ID	block	trial_block	trial_cat	trial_total	number	violation	level_violation	onset	duration	Response	Hit_Miss	RT	pre_trial_fixcross_ISI
first_trigger_at: 11449
trigger nr 3 at 13449
1	Single	1	1	1	9	0	0	19566	683	0	correct_rejection	NA	6034
1	Single	2	2	2	5	0	0	20283	683	0	correct_rejection	NA	0
1	Single	3	3	3	4	0	0	20999	684	0	correct_rejection	NA	0
1	Single	4	4	4	7	0	0	21716	683	0	correct_rejection	NA	0
1	Single	5	5	5	9	0	0	22432	684	0	correct_rejection	NA	0
1	Single	6	6	6	4	0	0	23149	684	0	correct_rejection	NA	0
1	Single	7	7	7	4	0	0	23866	683	0	correct_rejection	NA	0
1	Single	8	8	8	5	0	0	24582	684	0	correct_rejection	NA	0
1	Single	9	9	9	0	1	1	25299	683	1	hit	372	0
1	Single	10	10	10	8	0	0	26016	683	0	correct_rejection	NA	0
1	Single	11	11	11	7	0	0	26732	684	0	correct_rejection	NA	0
1	Single	12	12	12	5	0	0	27449	683	0	correct_rejection	NA	0
1	Single	13	13	13	7	0	0	28166	683	0	correct_rejection	NA	0
1	Single	14	14	14	0	1	1	28882	684	1	hit	371	0
1	Single	15	15	15	7	0	0	29599	683	0	correct_rejection	NA	0
1	Single	16	16	16	8	0	0	30316	683	0	correct_rejection	NA	0
1	Single	17	17	17	9	0	0	31032	684	0	correct_rejection	NA	0
1	Single	18	18	18	8	0	0	31749	683	0	correct_rejection	NA	0
1	Single	19	19	19	6	0	0	32466	683	0	correct_rejection	NA	0
1	Single	20	20	20	4	0	0	33182	684	0	correct_rejection	NA	0
1	Single	21	21	21	0	1	1	33899	683	1	hit	387	0
1	Single	22	22	22	9	0	0	34616	683	0	correct_rejection	NA	0
1	Single	23	23	23	9	0	0	35332	684	0	correct_rejection	NA	0
1	Single	24	24	24	7	0	0	36049	683	0	correct_rejection	NA	0
1	Single	25	25	25	0	1	1	36766	683	1	hit	365	0
1	Single	26	26	26	6	0	0	37482	684	0	correct_rejection	NA	0
1	Single	27	27	27	6	0	0	38199	683	0	correct_rejection	NA	0
1	Single	28	28	28	8	0	0	38916	683	0	correct_rejection	NA	0
1	Single	29	29	29	5	0	0	39632	684	0	correct_rejection	NA	0
1	Single	30	30	30	6	0	0	40349	683	0	correct_rejection	NA	0
1	Single	31	31	31	0	1	1	41066	683	1	hit	504	0
1	Single	32	32	32	7	0	0	41782	684	0	correct_rejection	NA	0
1	Single	33	33	33	4	0	0	42499	683	0	correct_rejection	NA	0
1	Single	34	34	34	8	0	0	43216	683	0	correct_rejection	NA	0
1	Single	35	35	35	8	0	0	43932	684	0	correct_rejection	NA	0
1	Single	36	36	36	4	0	0	44649	683	0	correct_rejection	NA	0
1	Single	37	37	37	6	0	0	45365	684	0	correct_rejection	NA	0
1	Single	38	38	38	5	0	0	46082	684	0	correct_rejection	NA	0
1	Single	39	39	39	5	0	0	46799	683	0	correct_rejection	NA	0
1	Single	40	40	40	9	0	0	47515	684	0	correct_rejection	NA	0
1	Single	41	41	41	6	0	0	48232	683	0	correct_rejection	NA	0
1	Single	42	42	42	4	0	0	48949	683	0	correct_rejection	NA	0
1	Single	43	43	43	9	0	0	49665	684	0	correct_rejection	NA	0
1	Single	44	44	44	8	0	0	50382	683	0	correct_rejection	NA	0
1	Single	45	45	45	8	0	0	51099	683	0	correct_rejection	NA	0
1	Single	46	46	46	6	0	0	51815	684	0	correct_rejection	NA	0
1	Single	47	47	47	9	0	0	52532	683	0	correct_rejection	NA	0
1	Single	48	48	48	6	0	0	53249	683	0	correct_rejection	NA	0
1	Single	49	49	49	6	0	0	53965	684	0	correct_rejection	NA	0
1	Single	50	50	50	7	0	0	54682	683	0	correct_rejection	NA	0
1	Single	51	51	51	5	0	0	55399	683	0	correct_rejection	NA	0
1	Single	52	52	52	6	0	0	56115	684	0	correct_rejection	NA	0
1	Single	53	53	53	5	0	0	56832	683	0	correct_rejection	NA	0
1	Single	54	54	54	8	0	0	57549	683	0	correct_rejection	NA	0
1	Single	55	55	55	4	0	0	58265	684	0	correct_rejection	NA	0
1	Single	56	56	56	5	0	0	58982	683	0	correct_rejection	NA	0
1	Single	57	57	57	4	0	0	59699	683	0	correct_rejection	NA	0
1	Single	58	58	58	8	0	0	60415	684	0	correct_rejection	NA	0
1	Single	59	59	59	7	0	0	61132	683	0	correct_rejection	NA	0
1	Single	60	60	60	7	0	0	61849	683	0	correct_rejection	NA	0
1	Single	61	61	61	6	0	0	62565	684	0	correct_rejection	NA	0
1	Single	62	62	62	8	0	0	63282	683	0	correct_rejection	NA	0
1	Single	63	63	63	9	0	0	63999	683	0	correct_rejection	NA	0
1	Single	64	64	64	7	0	0	64715	684	0	correct_rejection	NA	0
1	Single	65	65	65	9	0	0	65432	683	0	correct_rejection	NA	0
1	Single	66	66	66	5	0	0	66149	683	0	correct_rejection	NA	0
1	Single	67	67	67	5	0	0	66865	684	0	correct_rejection	NA	0
1	Single	68	68	68	7	0	0	67582	683	0	correct_rejection	NA	0
1	Single	69	69	69	4	0	0	68298	684	0	correct_rejection	NA	0
1	Single	70	70	70	6	0	0	69015	684	0	correct_rejection	NA	0
1	Single	71	71	71	4	0	0	69732	683	0	correct_rejection	NA	0
1	Single	72	72	72	0	1	1	70448	684	1	hit	325	0
1	Single	73	73	73	4	0	0	71165	683	0	correct_rejection	NA	0
1	Single	74	74	74	7	0	0	71882	683	0	correct_rejection	NA	0
1	Single	75	75	75	0	1	1	72598	684	1	hit	321	0
1	Single	76	76	76	8	0	0	73315	683	0	correct_rejection	NA	0
1	Single	77	77	77	5	0	0	74032	683	0	correct_rejection	NA	0
1	Single	78	78	78	9	0	0	74748	684	0	correct_rejection	NA	0
1	Single	79	79	79	9	0	0	75465	683	0	correct_rejection	NA	0
1	Single	80	80	80	4	0	0	76182	683	0	correct_rejection	NA	0
1	Single	81	81	81	9	0	0	76898	684	0	correct_rejection	NA	0
1	Single	82	82	82	0	1	1	77615	683	1	hit	367	0
1	Single	83	83	83	6	0	0	78332	683	0	correct_rejection	NA	0
1	Single	84	84	84	4	0	0	79048	684	0	correct_rejection	NA	0
1	Single	85	85	85	6	0	0	79765	683	0	correct_rejection	NA	0
1	Single	86	86	86	8	0	0	80482	683	0	correct_rejection	NA	0
1	Single	87	87	87	0	1	1	81198	684	1	hit	356	0
1	Single	88	88	88	8	0	0	81915	683	0	correct_rejection	NA	0
1	Single	89	89	89	5	0	0	82632	683	0	correct_rejection	NA	0
1	Single	90	90	90	7	0	0	83348	684	0	correct_rejection	NA	0
1	Single	91	91	91	8	0	0	84065	683	0	correct_rejection	NA	0
1	Single	92	92	92	6	0	0	84782	683	0	correct_rejection	NA	0
1	Single	93	93	93	7	0	0	85498	684	0	correct_rejection	NA	0
1	Single	94	94	94	9	0	0	86215	683	0	correct_rejection	NA	0
1	Single	95	95	95	8	0	0	86932	683	0	correct_rejection	NA	0
1	Single	96	96	96	7	0	0	87648	684	0	correct_rejection	NA	0
1	Single	97	97	97	6	0	0	88365	683	0	correct_rejection	NA	0
1	Single	98	98	98	9	0	0	89082	683	0	correct_rejection	NA	0
1	Single	99	99	99	0	1	1	89798	684	1	hit	339	0
1	Single	100	100	100	7	0	0	90515	683	0	correct_rejection	NA	0
1	Single	101	101	101	7	0	0	91232	683	0	correct_rejection	NA	0
1	Single	102	102	102	4	0	0	91948	684	0	correct_rejection	NA	0
1	Single	103	103	103	5	0	0	92665	683	0	correct_rejection	NA	0
1	Single	104	104	104	5	0	0	93381	684	0	correct_rejection	NA	0
1	Single	105	105	105	8	0	0	94098	683	0	correct_rejection	NA	0
1	Single	106	106	106	9	0	0	94815	683	0	correct_rejection	NA	0
1	Single	107	107	107	0	1	1	95531	684	1	hit	348	0
1	Single	108	108	108	9	0	0	96248	683	0	correct_rejection	NA	0
1	Single	109	109	109	4	0	0	96965	683	0	correct_rejection	NA	0
1	Single	110	110	110	0	1	1	97681	684	1	hit	335	0
1	Single	111	111	111	8	0	0	98398	683	0	correct_rejection	NA	0
1	Single	112	112	112	4	0	0	99115	683	0	correct_rejection	NA	0
1	Single	113	113	113	0	1	1	99831	684	1	hit	331	0
1	Single	114	114	114	7	0	0	100548	683	0	correct_rejection	NA	0
1	Single	115	115	115	5	0	0	101265	683	0	correct_rejection	NA	0
1	Single	116	116	116	9	0	0	101981	684	0	correct_rejection	NA	0
1	Single	117	117	117	5	0	0	102698	683	0	correct_rejection	NA	0
1	Single	118	118	118	6	0	0	103415	683	0	correct_rejection	NA	0
1	Single	119	119	119	6	0	0	104131	684	0	correct_rejection	NA	0
1	Single	120	120	120	5	0	0	104848	683	0	correct_rejection	NA	0
1	Single	121	121	121	0	1	1	105565	683	1	hit	301	0
1	Single	122	122	122	4	0	0	106281	684	0	correct_rejection	NA	0
1	Single	123	123	123	9	0	0	106998	683	0	correct_rejection	NA	0
1	Single	124	124	124	7	0	0	107715	683	0	correct_rejection	NA	0
1	Single	125	125	125	6	0	0	108431	684	0	correct_rejection	NA	0
1	Single	126	126	126	4	0	0	109148	683	0	correct_rejection	NA	0
1	Single	127	127	127	9	0	0	109865	683	0	correct_rejection	NA	0
1	Single	128	128	128	4	0	0	110581	684	0	correct_rejection	NA	0
1	Single	129	129	129	4	0	0	111298	683	0	correct_rejection	NA	0
1	Single	130	130	130	8	0	0	112015	683	0	correct_rejection	NA	0
1	Single	131	131	131	5	0	0	112731	684	0	correct_rejection	NA	0
1	Single	132	132	132	8	0	0	113448	683	0	correct_rejection	NA	0
1	Single	133	133	133	6	0	0	114164	684	0	correct_rejection	NA	0
1	Single	134	134	134	8	0	0	114881	684	0	correct_rejection	NA	0
1	Single	135	135	135	4	0	0	115598	683	0	correct_rejection	NA	0
1	Single	136	136	136	6	0	0	116314	684	0	correct_rejection	NA	0
1	Single	137	137	137	0	1	1	117031	683	1	hit	379	0
1	Single	138	138	138	6	0	0	117748	683	0	correct_rejection	NA	0
1	Single	139	139	139	9	0	0	118464	684	0	correct_rejection	NA	0
1	Single	140	140	140	5	0	0	119181	683	0	correct_rejection	NA	0
1	Single	141	141	141	4	0	0	119898	683	0	correct_rejection	NA	0
1	Single	142	142	142	5	0	0	120614	684	0	correct_rejection	NA	0
1	Single	143	143	143	0	1	1	121331	683	1	hit	417	0
1	Single	144	144	144	6	0	0	122048	683	0	correct_rejection	NA	0
1	Single	145	145	145	7	0	0	122764	684	0	correct_rejection	NA	0
1	Single	146	146	146	8	0	0	123481	683	0	correct_rejection	NA	0
1	Single	147	147	147	8	0	0	124198	683	0	correct_rejection	NA	0
1	Single	148	148	148	7	0	0	124914	684	0	correct_rejection	NA	0
1	Single	149	149	149	4	0	0	125631	683	0	correct_rejection	NA	0
1	Single	150	150	150	7	0	0	126348	683	0	correct_rejection	NA	0
1	Single	151	151	151	9	0	0	127064	684	0	correct_rejection	NA	0
1	Single	152	152	152	6	0	0	127781	683	0	correct_rejection	NA	0
1	Single	153	153	153	5	0	0	128498	683	0	correct_rejection	NA	0
1	Single	154	154	154	0	1	1	129214	684	1	hit	302	0
1	Single	155	155	155	7	0	0	129931	683	0	correct_rejection	NA	0
1	Single	156	156	156	7	0	0	130648	683	0	correct_rejection	NA	0
1	Single	157	157	157	0	1	1	131364	684	1	hit	376	0
1	Single	158	158	158	5	0	0	132081	683	0	correct_rejection	NA	0
1	Single	159	159	159	5	0	0	132798	683	0	correct_rejection	NA	0
1	Single	160	160	160	9	0	0	133514	684	0	correct_rejection	NA	0
1	Single	161	161	161	8	0	0	134231	683	0	correct_rejection	NA	0
1	Single	162	162	162	9	0	0	134948	683	0	correct_rejection	NA	0
1	Triplet	1	649	163	4	0	0	141881	683	0	correct_rejection	NA	6169
1	Triplet	2	650	164	5	0	0	142597	684	0	correct_rejection	NA	0
1	Triplet	3	651	165	6	0	0	143314	683	0	correct_rejection	NA	0
1	Triplet	4	652	166	6	0	0	144031	683	0	correct_rejection	NA	0
1	Triplet	5	653	167	5	0	0	144747	684	0	correct_rejection	NA	0
1	Triplet	6	654	168	4	0	0	145464	683	0	correct_rejection	NA	0
1	Triplet	7	655	169	4	0	0	146181	683	0	correct_rejection	NA	0
1	Triplet	8	656	170	5	0	0	146897	684	0	correct_rejection	NA	0
1	Triplet	9	657	171	6	0	0	147614	683	0	correct_rejection	NA	0
1	Triplet	10	658	172	9	0	0	148331	683	0	correct_rejection	NA	0
1	Triplet	11	659	173	0	1	1	149047	684	1	hit	382	0
1	Triplet	12	660	174	8	0	0	149764	683	0	correct_rejection	NA	0
1	Triplet	13	661	175	7	0	0	150481	683	0	correct_rejection	NA	0
1	Triplet	14	662	176	6	0	0	151197	684	0	correct_rejection	NA	0
1	Triplet	15	663	177	0	1	1	151914	683	1	hit	359	0
1	Triplet	16	664	178	5	0	0	152631	683	0	correct_rejection	NA	0
1	Triplet	17	665	179	4	0	0	153347	684	0	correct_rejection	NA	0
1	Triplet	18	666	180	6	0	0	154064	683	0	correct_rejection	NA	0
1	Triplet	19	667	181	5	0	0	154781	683	0	correct_rejection	NA	0
1	Triplet	20	668	182	4	0	0	155497	684	0	correct_rejection	NA	0
1	Triplet	21	669	183	7	0	0	156214	683	0	correct_rejection	NA	0
1	Triplet	22	670	184	8	0	0	156931	683	0	correct_rejection	NA	0
1	Triplet	23	671	185	9	0	0	157647	684	0	correct_rejection	NA	0
1	Triplet	24	672	186	6	0	0	158364	683	0	correct_rejection	NA	0
1	Triplet	25	673	187	0	1	1	159081	683	1	hit	410	0
1	Triplet	26	674	188	5	0	0	159797	684	0	correct_rejection	NA	0
1	Triplet	27	675	189	4	0	0	160514	683	0	correct_rejection	NA	0
1	Triplet	28	676	190	9	0	0	161230	684	0	correct_rejection	NA	0
1	Triplet	29	677	191	8	0	0	161947	684	0	correct_rejection	NA	0
1	Triplet	30	678	192	7	0	0	162664	683	0	correct_rejection	NA	0
1	Triplet	31	679	193	7	0	0	163380	684	0	correct_rejection	NA	0
1	Triplet	32	680	194	8	0	0	164097	683	0	correct_rejection	NA	0
1	Triplet	33	681	195	9	0	0	164814	683	0	correct_rejection	NA	0
1	Triplet	34	682	196	4	0	0	165530	684	0	correct_rejection	NA	0
1	Triplet	35	683	197	5	0	0	166247	683	0	correct_rejection	NA	0
1	Triplet	36	684	198	6	0	0	166964	683	0	correct_rejection	NA	0
1	Triplet	37	685	199	4	0	0	167680	684	0	correct_rejection	NA	0
1	Triplet	38	686	200	5	0	0	168397	683	0	correct_rejection	NA	0
1	Triplet	39	687	201	0	1	1	169114	683	1	hit	351	0
1	Triplet	40	688	202	6	0	0	169830	684	0	correct_rejection	NA	0
1	Triplet	41	689	203	7	0	0	170547	683	0	correct_rejection	NA	0
1	Triplet	42	690	204	8	0	0	171264	683	0	correct_rejection	NA	0
1	Triplet	43	691	205	9	0	0	171980	684	0	correct_rejection	NA	0
1	Triplet	44	692	206	7	0	0	172697	683	0	correct_rejection	NA	0
1	Triplet	45	693	207	8	0	0	173414	683	0	correct_rejection	NA	0
1	Triplet	46	694	208	9	0	0	174130	684	0	correct_rejection	NA	0
1	Triplet	47	695	209	9	0	0	174847	683	0	correct_rejection	NA	0
1	Triplet	48	696	210	8	0	0	175564	683	0	correct_rejection	NA	0
1	Triplet	49	697	211	0	1	1	176280	684	1	hit	380	0
1	Triplet	50	698	212	7	0	0	176997	683	0	correct_rejection	NA	0
1	Triplet	51	699	213	9	0	0	177714	683	0	correct_rejection	NA	0
1	Triplet	52	700	214	8	0	0	178430	684	0	correct_rejection	NA	0
1	Triplet	53	701	215	7	0	0	179147	683	0	correct_rejection	NA	0
1	Triplet	54	702	216	7	0	0	179864	683	0	correct_rejection	NA	0
1	Triplet	55	703	217	0	1	1	180580	684	1	hit	352	0
1	Triplet	56	704	218	8	0	0	181297	683	0	correct_rejection	NA	0
1	Triplet	57	705	219	9	0	0	182014	683	0	correct_rejection	NA	0
1	Triplet	58	706	220	7	0	0	182730	684	0	correct_rejection	NA	0
1	Triplet	59	707	221	8	0	0	183447	683	0	correct_rejection	NA	0
1	Triplet	60	708	222	0	1	1	184163	684	1	hit	363	0
1	Triplet	61	709	223	9	0	0	184880	684	0	correct_rejection	NA	0
1	Triplet	62	710	224	6	0	0	185597	683	0	correct_rejection	NA	0
1	Triplet	63	711	225	5	0	0	186313	684	0	correct_rejection	NA	0
1	Triplet	64	712	226	4	0	0	187030	683	0	correct_rejection	NA	0
1	Triplet	65	713	227	6	0	0	187747	683	0	correct_rejection	NA	0
1	Triplet	66	714	228	5	0	0	188463	684	0	correct_rejection	NA	0
1	Triplet	67	715	229	4	0	0	189180	683	0	correct_rejection	NA	0
1	Triplet	68	716	230	0	1	2	189897	683	1	hit	415	0
1	Triplet	69	717	231	4	0	0	190613	684	0	correct_rejection	NA	0
1	Triplet	70	718	232	5	0	0	191330	683	0	correct_rejection	NA	0
1	Triplet	71	719	233	6	0	0	192047	683	0	correct_rejection	NA	0
1	Triplet	72	720	234	4	0	0	192763	684	0	correct_rejection	NA	0
1	Triplet	73	721	235	5	0	0	193480	683	0	correct_rejection	NA	0
1	Triplet	74	722	236	6	0	0	194197	683	0	correct_rejection	NA	0
1	Triplet	75	723	237	6	0	0	194913	684	0	correct_rejection	NA	0
1	Triplet	76	724	238	5	0	0	195630	683	0	correct_rejection	NA	0
1	Triplet	77	725	239	0	1	1	196347	683	1	hit	364	0
1	Triplet	78	726	240	4	0	0	197063	684	0	correct_rejection	NA	0
1	Triplet	79	727	241	7	0	0	197780	683	0	correct_rejection	NA	0
1	Triplet	80	728	242	8	0	0	198497	683	0	correct_rejection	NA	0
1	Triplet	81	729	243	9	0	0	199213	684	0	correct_rejection	NA	0
1	Triplet	82	730	244	4	0	0	199930	683	0	correct_rejection	NA	0
1	Triplet	83	731	245	5	0	0	200647	683	0	correct_rejection	NA	0
1	Triplet	84	732	246	6	0	0	201363	684	0	correct_rejection	NA	0
1	Triplet	85	733	247	9	0	0	202080	683	0	correct_rejection	NA	0
1	Triplet	86	734	248	8	0	0	202797	683	0	correct_rejection	NA	0
1	Triplet	87	735	249	7	0	0	203513	684	0	correct_rejection	NA	0
1	Triplet	88	736	250	9	0	0	204230	683	0	correct_rejection	NA	0
1	Triplet	89	737	251	8	0	0	204947	683	0	correct_rejection	NA	0
1	Triplet	90	738	252	7	0	0	205663	684	0	correct_rejection	NA	0
1	Triplet	91	739	253	7	0	0	206380	683	0	correct_rejection	NA	0
1	Triplet	92	740	254	8	0	0	207096	684	0	correct_rejection	NA	0
1	Triplet	93	741	255	9	0	0	207813	683	0	correct_rejection	NA	0
1	Triplet	94	742	256	9	0	0	208530	683	0	correct_rejection	NA	0
1	Triplet	95	743	257	8	0	0	209246	684	0	correct_rejection	NA	0
1	Triplet	96	744	258	7	0	0	209963	683	0	correct_rejection	NA	0
1	Triplet	97	745	259	6	0	0	210680	683	0	correct_rejection	NA	0
1	Triplet	98	746	260	5	0	0	211396	684	0	correct_rejection	NA	0
1	Triplet	99	747	261	4	0	0	212113	683	0	correct_rejection	NA	0
1	Triplet	100	748	262	9	0	0	212830	683	0	correct_rejection	NA	0
1	Triplet	101	749	263	8	0	0	213546	684	0	correct_rejection	NA	0
1	Triplet	102	750	264	0	1	1	214263	683	1	hit	383	0
1	Triplet	103	751	265	7	0	0	214980	683	0	correct_rejection	NA	0
1	Triplet	104	752	266	4	0	0	215696	684	0	correct_rejection	NA	0
1	Triplet	105	753	267	5	0	0	216413	683	0	correct_rejection	NA	0
1	Triplet	106	754	268	6	0	0	217130	683	0	correct_rejection	NA	0
1	Triplet	107	755	269	7	0	0	217846	684	0	correct_rejection	NA	0
1	Triplet	108	756	270	8	0	0	218563	683	0	correct_rejection	NA	0
1	Triplet	109	757	271	9	0	0	219280	683	0	correct_rejection	NA	0
1	Triplet	110	758	272	0	1	2	219996	684	1	hit	397	0
1	Triplet	111	759	273	9	0	0	220713	683	0	correct_rejection	NA	0
1	Triplet	112	760	274	8	0	0	221430	683	0	correct_rejection	NA	0
1	Triplet	113	761	275	7	0	0	222146	684	0	correct_rejection	NA	0
1	Triplet	114	762	276	4	0	0	222863	683	0	correct_rejection	NA	0
1	Triplet	115	763	277	5	0	0	223580	683	0	correct_rejection	NA	0
1	Triplet	116	764	278	6	0	0	224296	684	0	correct_rejection	NA	0
1	Triplet	117	765	279	0	1	2	225013	683	1	hit	380	0
1	Triplet	118	766	280	4	0	0	225730	683	0	correct_rejection	NA	0
1	Triplet	119	767	281	5	0	0	226446	684	0	correct_rejection	NA	0
1	Triplet	120	768	282	6	0	0	227163	683	0	correct_rejection	NA	0
1	Triplet	121	769	283	9	0	0	227880	683	0	correct_rejection	NA	0
1	Triplet	122	770	284	8	0	0	228596	684	0	correct_rejection	NA	0
1	Triplet	123	771	285	0	1	1	229313	683	1	hit	373	0
1	Triplet	124	772	286	7	0	0	230029	684	0	correct_rejection	NA	0
1	Triplet	125	773	287	7	0	0	230746	684	0	correct_rejection	NA	0
1	Triplet	126	774	288	8	0	0	231463	683	0	correct_rejection	NA	0
1	Triplet	127	775	289	9	0	0	232179	684	0	correct_rejection	NA	0
1	Triplet	128	776	290	0	1	2	232896	683	1	hit	381	0
1	Triplet	129	777	291	6	0	0	233613	683	0	correct_rejection	NA	0
1	Triplet	130	778	292	5	0	0	234329	684	0	correct_rejection	NA	0
1	Triplet	131	779	293	4	0	0	235046	683	0	correct_rejection	NA	0
1	Triplet	132	780	294	7	0	0	235763	683	0	correct_rejection	NA	0
1	Triplet	133	781	295	8	0	0	236479	684	0	correct_rejection	NA	0
1	Triplet	134	782	296	9	0	0	237196	683	0	correct_rejection	NA	0
1	Triplet	135	783	297	7	0	0	237913	683	0	correct_rejection	NA	0
1	Triplet	136	784	298	8	0	0	238629	684	0	correct_rejection	NA	0
1	Triplet	137	785	299	9	0	0	239346	683	0	correct_rejection	NA	0
1	Triplet	138	786	300	4	0	0	240063	683	0	correct_rejection	NA	0
1	Triplet	139	787	301	0	1	1	240779	684	1	hit	360	0
1	Triplet	140	788	302	5	0	0	241496	683	0	correct_rejection	NA	0
1	Triplet	141	789	303	6	0	0	242213	683	0	correct_rejection	NA	0
1	Triplet	142	790	304	0	1	2	242929	684	1	hit	427	0
1	Triplet	143	791	305	6	0	0	243646	683	0	correct_rejection	NA	0
1	Triplet	144	792	306	5	0	0	244363	683	0	correct_rejection	NA	0
1	Triplet	145	793	307	4	0	0	245079	684	0	correct_rejection	NA	0
1	Triplet	146	794	308	6	0	0	245796	683	0	correct_rejection	NA	0
1	Triplet	147	795	309	5	0	0	246513	683	0	correct_rejection	NA	0
1	Triplet	148	796	310	4	0	0	247229	684	0	correct_rejection	NA	0
1	Triplet	149	797	311	0	1	2	247946	683	1	hit	356	0
1	Triplet	150	798	312	9	0	0	248663	683	0	correct_rejection	NA	0
1	Triplet	151	799	313	8	0	0	249379	684	0	correct_rejection	NA	0
1	Triplet	152	800	314	7	0	0	250096	683	0	correct_rejection	NA	0
1	Triplet	153	801	315	0	1	2	250813	683	1	hit	346	0
1	Triplet	154	802	316	9	0	0	251529	684	0	correct_rejection	NA	0
1	Triplet	155	803	317	8	0	0	252246	683	0	correct_rejection	NA	0
1	Triplet	156	804	318	7	0	0	252962	684	0	correct_rejection	NA	0
1	Triplet	157	805	319	6	0	0	253679	684	0	correct_rejection	NA	0
1	Triplet	158	806	320	5	0	0	254396	683	0	correct_rejection	NA	0
1	Triplet	159	807	321	4	0	0	255112	684	0	correct_rejection	NA	0
1	Triplet	160	808	322	4	0	0	255829	683	0	correct_rejection	NA	0
1	Triplet	161	809	323	5	0	0	256546	683	0	correct_rejection	NA	0
1	Triplet	162	810	324	6	0	0	257262	684	0	correct_rejection	NA	0
1	Nonet	1	1	325	9	0	0	265662	684	0	correct_rejection	NA	7642
1	Nonet	2	2	326	8	0	0	266379	683	0	correct_rejection	NA	0
1	Nonet	3	3	327	7	0	0	267096	683	0	correct_rejection	NA	0
1	Nonet	4	4	328	9	0	0	267812	684	0	correct_rejection	NA	0
1	Nonet	5	5	329	8	0	0	268529	683	0	correct_rejection	NA	0
1	Nonet	6	6	330	7	0	0	269246	683	0	correct_rejection	NA	0
1	Nonet	7	7	331	9	0	0	269962	684	0	correct_rejection	NA	0
1	Nonet	8	8	332	8	0	0	270679	683	0	correct_rejection	NA	0
1	Nonet	9	9	333	7	0	0	271396	683	0	correct_rejection	NA	0
1	Nonet	10	10	334	6	0	0	272112	684	0	correct_rejection	NA	0
1	Nonet	11	11	335	5	0	0	272829	683	0	correct_rejection	NA	0
1	Nonet	12	12	336	4	0	0	273546	683	0	correct_rejection	NA	0
1	Nonet	13	13	337	6	0	0	274262	684	0	correct_rejection	NA	0
1	Nonet	14	14	338	5	0	0	274979	683	0	correct_rejection	NA	0
1	Nonet	15	15	339	4	0	0	275695	684	0	correct_rejection	NA	0
1	Nonet	16	16	340	6	0	0	276412	684	0	correct_rejection	NA	0
1	Nonet	17	17	341	0	1	1	277129	683	1	hit	355	0
1	Nonet	18	18	342	5	0	0	277845	684	0	correct_rejection	NA	0
1	Nonet	19	19	343	4	0	0	278562	683	0	correct_rejection	NA	0
1	Nonet	20	20	344	6	0	0	279279	683	0	correct_rejection	NA	0
1	Nonet	21	21	345	5	0	0	279995	684	0	correct_rejection	NA	0
1	Nonet	22	22	346	0	1	1	280712	683	1	hit	323	0
1	Nonet	23	23	347	4	0	0	281429	683	0	correct_rejection	NA	0
1	Nonet	24	24	348	6	0	0	282145	684	0	correct_rejection	NA	0
1	Nonet	25	25	349	5	0	0	282862	683	0	correct_rejection	NA	0
1	Nonet	26	26	350	4	0	0	283579	683	0	correct_rejection	NA	0
1	Nonet	27	27	351	6	0	0	284295	684	0	correct_rejection	NA	0
1	Nonet	28	28	352	5	0	0	285012	683	0	correct_rejection	NA	0
1	Nonet	29	29	353	4	0	0	285729	683	0	correct_rejection	NA	0
1	Nonet	30	30	354	9	0	0	286445	684	0	correct_rejection	NA	0
1	Nonet	31	31	355	8	0	0	287162	683	0	correct_rejection	NA	0
1	Nonet	32	32	356	0	1	1	287879	683	1	hit	278	0
1	Nonet	33	33	357	7	0	0	288595	684	0	correct_rejection	NA	0
1	Nonet	34	34	358	9	0	0	289312	683	0	correct_rejection	NA	0
1	Nonet	35	35	359	8	0	0	290029	683	0	correct_rejection	NA	0
1	Nonet	36	36	360	7	0	0	290745	684	0	correct_rejection	NA	0
1	Nonet	37	37	361	9	0	0	291462	683	0	correct_rejection	NA	0
1	Nonet	38	38	362	8	0	0	292179	683	0	correct_rejection	NA	0
1	Nonet	39	39	363	7	0	0	292895	684	0	correct_rejection	NA	0
1	Nonet	40	40	364	4	0	0	293612	683	0	correct_rejection	NA	0
1	Nonet	41	41	365	5	0	0	294329	683	0	correct_rejection	NA	0
1	Nonet	42	42	366	6	0	0	295045	684	0	correct_rejection	NA	0
1	Nonet	43	43	367	0	1	2	295762	683	1	hit	399	0
1	Nonet	44	44	368	4	0	0	296479	683	0	correct_rejection	NA	0
1	Nonet	45	45	369	5	0	0	297195	684	0	correct_rejection	NA	0
1	Nonet	46	46	370	6	0	0	297912	683	0	correct_rejection	NA	0
1	Nonet	47	47	371	0	1	2	298628	684	1	hit	347	0
1	Nonet	48	48	372	4	0	0	299345	684	0	correct_rejection	NA	0
1	Nonet	49	49	373	5	0	0	300062	683	0	correct_rejection	NA	0
1	Nonet	50	50	374	6	0	0	300778	684	0	correct_rejection	NA	0
1	Nonet	51	51	375	4	0	0	301495	683	0	correct_rejection	NA	0
1	Nonet	52	52	376	5	0	0	302212	683	0	correct_rejection	NA	0
1	Nonet	53	53	377	0	1	1	302928	684	1	hit	393	0
1	Nonet	54	54	378	6	0	0	303645	683	0	correct_rejection	NA	0
1	Nonet	55	55	379	4	0	0	304362	683	0	correct_rejection	NA	0
1	Nonet	56	56	380	5	0	0	305078	684	0	correct_rejection	NA	0
1	Nonet	57	57	381	6	0	0	305795	683	0	correct_rejection	NA	0
1	Nonet	58	58	382	4	0	0	306512	683	0	correct_rejection	NA	0
1	Nonet	59	59	383	5	0	0	307228	684	0	correct_rejection	NA	0
1	Nonet	60	60	384	6	0	0	307945	683	0	correct_rejection	NA	0
1	Nonet	61	61	385	7	0	0	308662	683	0	correct_rejection	NA	0
1	Nonet	62	62	386	8	0	0	309378	684	0	correct_rejection	NA	0
1	Nonet	63	63	387	9	0	0	310095	683	0	correct_rejection	NA	0
1	Nonet	64	64	388	7	0	0	310812	683	0	correct_rejection	NA	0
1	Nonet	65	65	389	8	0	0	311528	684	0	correct_rejection	NA	0
1	Nonet	66	66	390	0	1	1	312245	683	1	hit	423	0
1	Nonet	67	67	391	9	0	0	312962	683	0	correct_rejection	NA	0
1	Nonet	68	68	392	7	0	0	313678	684	0	correct_rejection	NA	0
1	Nonet	69	69	393	8	0	0	314395	683	0	correct_rejection	NA	0
1	Nonet	70	70	394	9	0	0	315112	683	0	correct_rejection	NA	0
1	Nonet	71	71	395	4	0	0	315828	684	0	correct_rejection	NA	0
1	Nonet	72	72	396	5	0	0	316545	683	0	correct_rejection	NA	0
1	Nonet	73	73	397	6	0	0	317262	683	0	correct_rejection	NA	0
1	Nonet	74	74	398	4	0	0	317978	684	0	correct_rejection	NA	0
1	Nonet	75	75	399	5	0	0	318695	683	0	correct_rejection	NA	0
1	Nonet	76	76	400	6	0	0	319412	683	0	correct_rejection	NA	0
1	Nonet	77	77	401	4	0	0	320128	684	0	correct_rejection	NA	0
1	Nonet	78	78	402	5	0	0	320845	683	0	correct_rejection	NA	0
1	Nonet	79	79	403	6	0	0	321561	684	0	correct_rejection	NA	0
1	Nonet	80	80	404	9	0	0	322278	684	0	correct_rejection	NA	0
1	Nonet	81	81	405	8	0	0	322995	683	0	correct_rejection	NA	0
1	Nonet	82	82	406	0	1	1	323711	684	1	hit	425	0
1	Nonet	83	83	407	7	0	0	324428	683	0	correct_rejection	NA	0
1	Nonet	84	84	408	9	0	0	325145	683	0	correct_rejection	NA	0
1	Nonet	85	85	409	8	0	0	325861	684	0	correct_rejection	NA	0
1	Nonet	86	86	410	0	1	1	326578	683	1	hit	353	0
1	Nonet	87	87	411	7	0	0	327295	683	0	correct_rejection	NA	0
1	Nonet	88	88	412	9	0	0	328011	684	0	correct_rejection	NA	0
1	Nonet	89	89	413	8	0	0	328728	683	0	correct_rejection	NA	0
1	Nonet	90	90	414	7	0	0	329445	683	0	correct_rejection	NA	0
1	Nonet	91	91	415	0	1	3	330161	684	1	hit	314	0
1	Nonet	92	92	416	9	0	0	330878	683	0	correct_rejection	NA	0
1	Nonet	93	93	417	8	0	0	331595	683	0	correct_rejection	NA	0
1	Nonet	94	94	418	7	0	0	332311	684	0	correct_rejection	NA	0
1	Nonet	95	95	419	9	0	0	333028	683	0	correct_rejection	NA	0
1	Nonet	96	96	420	8	0	0	333745	683	0	correct_rejection	NA	0
1	Nonet	97	97	421	7	0	0	334461	684	0	correct_rejection	NA	0
1	Nonet	98	98	422	9	0	0	335178	683	0	correct_rejection	NA	0
1	Nonet	99	99	423	8	0	0	335895	683	0	correct_rejection	NA	0
1	Nonet	100	100	424	7	0	0	336611	684	0	correct_rejection	NA	0
1	Nonet	101	101	425	7	0	0	337328	683	0	correct_rejection	NA	0
1	Nonet	102	102	426	0	1	1	338045	683	1	hit	373	0
1	Nonet	103	103	427	8	0	0	338761	684	0	correct_rejection	NA	0
1	Nonet	104	104	428	9	0	0	339478	683	0	correct_rejection	NA	0
1	Nonet	105	105	429	7	0	0	340195	683	0	correct_rejection	NA	0
1	Nonet	106	106	430	8	0	0	340911	684	0	correct_rejection	NA	0
1	Nonet	107	107	431	9	0	0	341628	683	0	correct_rejection	NA	0
1	Nonet	108	108	432	7	0	0	342345	683	0	correct_rejection	NA	0
1	Nonet	109	109	433	8	0	0	343061	684	0	correct_rejection	NA	0
1	Nonet	110	110	434	9	0	0	343778	683	0	correct_rejection	NA	0
1	Nonet	111	111	435	6	0	0	344495	683	0	correct_rejection	NA	0
1	Nonet	112	112	436	5	0	0	345211	684	0	correct_rejection	NA	0
1	Nonet	113	113	437	0	1	1	345928	683	1	hit	400	0
1	Nonet	114	114	438	4	0	0	346644	684	0	correct_rejection	NA	0
1	Nonet	115	115	439	6	0	0	347361	683	0	correct_rejection	NA	0
1	Nonet	116	116	440	5	0	0	348078	683	0	correct_rejection	NA	0
1	Nonet	117	117	441	4	0	0	348794	684	0	correct_rejection	NA	0
1	Nonet	118	118	442	0	1	2	349511	683	1	hit	352	0
1	Nonet	119	119	443	6	0	0	350228	683	0	correct_rejection	NA	0
1	Nonet	120	120	444	5	0	0	350944	684	0	correct_rejection	NA	0
1	Nonet	121	121	445	4	0	0	351661	683	0	correct_rejection	NA	0
1	Nonet	122	122	446	4	0	0	352378	683	0	correct_rejection	NA	0
1	Nonet	123	123	447	5	0	0	353094	684	0	correct_rejection	NA	0
1	Nonet	124	124	448	6	0	0	353811	683	0	correct_rejection	NA	0
1	Nonet	125	125	449	4	0	0	354528	683	0	correct_rejection	NA	0
1	Nonet	126	126	450	5	0	0	355244	684	0	correct_rejection	NA	0
1	Nonet	127	127	451	0	1	1	355961	683	1	hit	337	0
1	Nonet	128	128	452	6	0	0	356678	683	0	correct_rejection	NA	0
1	Nonet	129	129	453	4	0	0	357394	684	0	correct_rejection	NA	0
1	Nonet	130	130	454	0	1	1	358111	683	1	hit	320	0
1	Nonet	131	131	455	5	0	0	358828	683	0	correct_rejection	NA	0
1	Nonet	132	132	456	6	0	0	359544	684	0	correct_rejection	NA	0
1	Nonet	133	133	457	6	0	0	360261	683	0	correct_rejection	NA	0
1	Nonet	134	134	458	5	0	0	360978	683	0	correct_rejection	NA	0
1	Nonet	135	135	459	4	0	0	361694	684	0	correct_rejection	NA	0
1	Nonet	136	136	460	6	0	0	362411	683	0	correct_rejection	NA	0
1	Nonet	137	137	461	5	0	0	363128	683	0	correct_rejection	NA	0
1	Nonet	138	138	462	4	0	0	363844	684	0	correct_rejection	NA	0
1	Nonet	139	139	463	6	0	0	364561	683	0	correct_rejection	NA	0
1	Nonet	140	140	464	5	0	0	365278	683	0	correct_rejection	NA	0
1	Nonet	141	141	465	4	0	0	365994	684	0	correct_rejection	NA	0
1	Nonet	142	142	466	7	0	0	366711	683	0	correct_rejection	NA	0
1	Nonet	143	143	467	8	0	0	367427	684	0	correct_rejection	NA	0
1	Nonet	144	144	468	0	1	1	368144	684	1	hit	327	0
1	Nonet	145	145	469	9	0	0	368861	683	0	correct_rejection	NA	0
1	Nonet	146	146	470	7	0	0	369577	684	0	correct_rejection	NA	0
1	Nonet	147	147	471	8	0	0	370294	683	0	correct_rejection	NA	0
1	Nonet	148	148	472	9	0	0	371011	683	0	correct_rejection	NA	0
1	Nonet	149	149	473	0	1	2	371727	684	1	hit	337	0
1	Nonet	150	150	474	7	0	0	372444	683	0	correct_rejection	NA	0
1	Nonet	151	151	475	8	0	0	373161	683	0	correct_rejection	NA	0
1	Nonet	152	152	476	9	0	0	373877	684	0	correct_rejection	NA	0
1	Nonet	153	153	477	7	0	0	374594	683	0	correct_rejection	NA	0
1	Nonet	154	154	478	8	0	0	375311	683	0	correct_rejection	NA	0
1	Nonet	155	155	479	9	0	0	376027	684	0	correct_rejection	NA	0
1	Nonet	156	156	480	7	0	0	376744	683	0	correct_rejection	NA	0
1	Nonet	157	157	481	8	0	0	377461	683	0	correct_rejection	NA	0
1	Nonet	158	158	482	9	0	0	378177	684	0	correct_rejection	NA	0
1	Nonet	159	159	483	0	1	2	378894	683	1	hit	286	0
1	Nonet	160	160	484	7	0	0	379611	683	0	correct_rejection	NA	0
1	Nonet	161	161	485	8	0	0	380327	684	0	correct_rejection	NA	0
1	Nonet	162	162	486	9	0	0	381044	683	0	correct_rejection	NA	0
1	Single	1	325	487	9	0	0	391027	684	0	correct_rejection	NA	9228
1	Single	2	326	488	5	0	0	391744	683	0	correct_rejection	NA	0
1	Single	3	327	489	7	0	0	392460	684	0	correct_rejection	NA	0
1	Single	4	328	490	6	0	0	393177	683	0	correct_rejection	NA	0
1	Single	5	329	491	0	1	1	393894	683	1	hit	347	0
1	Single	6	330	492	9	0	0	394610	684	0	correct_rejection	NA	0
1	Single	7	331	493	4	0	0	395327	683	0	correct_rejection	NA	0
1	Single	8	332	494	4	0	0	396044	683	0	correct_rejection	NA	0
1	Single	9	333	495	7	0	0	396760	684	0	correct_rejection	NA	0
1	Single	10	334	496	8	0	0	397477	683	0	correct_rejection	NA	0
1	Single	11	335	497	5	0	0	398194	683	0	correct_rejection	NA	0
1	Single	12	336	498	9	0	0	398910	684	0	correct_rejection	NA	0
1	Single	13	337	499	0	1	1	399627	683	1	hit	315	0
1	Single	14	338	500	8	0	0	400344	683	0	correct_rejection	NA	0
1	Single	15	339	501	6	0	0	401060	684	0	correct_rejection	NA	0
1	Single	16	340	502	7	0	0	401777	683	0	correct_rejection	NA	0
1	Single	17	341	503	4	0	0	402494	683	0	correct_rejection	NA	0
1	Single	18	342	504	0	1	1	403210	684	1	hit	434	0
1	Single	19	343	505	5	0	0	403927	683	0	correct_rejection	NA	0
1	Single	20	344	506	8	0	0	404644	683	0	correct_rejection	NA	0
1	Single	21	345	507	8	0	0	405360	684	0	correct_rejection	NA	0
1	Single	22	346	508	9	0	0	406077	683	0	correct_rejection	NA	0
1	Single	23	347	509	7	0	0	406794	683	0	correct_rejection	NA	0
1	Single	24	348	510	5	0	0	407510	684	0	correct_rejection	NA	0
1	Single	25	349	511	5	0	0	408227	683	0	correct_rejection	NA	0
1	Single	26	350	512	4	0	0	408944	683	0	correct_rejection	NA	0
1	Single	27	351	513	9	0	0	409660	684	0	correct_rejection	NA	0
1	Single	28	352	514	9	0	0	410377	683	0	correct_rejection	NA	0
1	Single	29	353	515	6	0	0	411094	683	0	correct_rejection	NA	0
1	Single	30	354	516	8	0	0	411810	684	0	correct_rejection	NA	0
1	Single	31	355	517	4	0	0	412527	683	0	correct_rejection	NA	0
1	Single	32	356	518	6	0	0	413243	684	0	correct_rejection	NA	0
1	Single	33	357	519	0	1	1	413960	684	1	hit	345	0
1	Single	34	358	520	6	0	0	414677	683	0	correct_rejection	NA	0
1	Single	35	359	521	5	0	0	415393	684	0	correct_rejection	NA	0
1	Single	36	360	522	6	0	0	416110	683	0	correct_rejection	NA	0
1	Single	37	361	523	4	0	0	416827	683	0	correct_rejection	NA	0
1	Single	38	362	524	8	0	0	417543	684	0	correct_rejection	NA	0
1	Single	39	363	525	7	0	0	418260	683	0	correct_rejection	NA	0
1	Single	40	364	526	7	0	0	418977	683	0	correct_rejection	NA	0
1	Single	41	365	527	5	0	0	419693	684	0	correct_rejection	NA	0
1	Single	42	366	528	8	0	0	420410	683	0	correct_rejection	NA	0
1	Single	43	367	529	4	0	0	421127	683	0	correct_rejection	NA	0
1	Single	44	368	530	5	0	0	421843	684	0	correct_rejection	NA	0
1	Single	45	369	531	6	0	0	422560	683	0	correct_rejection	NA	0
1	Single	46	370	532	8	0	0	423277	683	0	correct_rejection	NA	0
1	Single	47	371	533	6	0	0	423993	684	0	correct_rejection	NA	0
1	Single	48	372	534	6	0	0	424710	683	0	correct_rejection	NA	0
1	Single	49	373	535	0	1	1	425427	683	1	hit	326	0
1	Single	50	374	536	4	0	0	426143	684	0	correct_rejection	NA	0
1	Single	51	375	537	7	0	0	426860	683	0	correct_rejection	NA	0
1	Single	52	376	538	9	0	0	427577	683	0	correct_rejection	NA	0
1	Single	53	377	539	0	1	1	428293	684	1	hit	449	0
1	Single	54	378	540	7	0	0	429010	683	0	correct_rejection	NA	0
1	Single	55	379	541	7	0	0	429727	683	0	correct_rejection	NA	0
1	Single	56	380	542	8	0	0	430443	684	0	correct_rejection	NA	0
1	Single	57	381	543	0	1	1	431160	683	1	hit	303	0
1	Single	58	382	544	7	0	0	431877	683	0	correct_rejection	NA	0
1	Single	59	383	545	4	0	0	432593	684	0	correct_rejection	NA	0
1	Single	60	384	546	0	1	1	433310	683	1	hit	310	0
1	Single	61	385	547	9	0	0	434027	683	0	correct_rejection	NA	0
1	Single	62	386	548	8	0	0	434743	684	0	correct_rejection	NA	0
1	Single	63	387	549	9	0	0	435460	683	0	correct_rejection	NA	0
1	Single	64	388	550	5	0	0	436177	683	0	correct_rejection	NA	0
1	Single	65	389	551	5	0	0	436893	684	0	correct_rejection	NA	0
1	Single	66	390	552	7	0	0	437610	683	0	correct_rejection	NA	0
1	Single	67	391	553	5	0	0	438326	684	0	correct_rejection	NA	0
1	Single	68	392	554	9	0	0	439043	683	0	correct_rejection	NA	0
1	Single	69	393	555	6	0	0	439760	683	0	correct_rejection	NA	0
1	Single	70	394	556	9	0	0	440476	684	0	correct_rejection	NA	0
1	Single	71	395	557	9	0	0	441193	683	0	correct_rejection	NA	0
1	Single	72	396	558	4	0	0	441910	683	0	correct_rejection	NA	0
1	Single	73	397	559	6	0	0	442626	684	0	correct_rejection	NA	0
1	Single	74	398	560	7	0	0	443343	683	0	correct_rejection	NA	0
1	Single	75	399	561	6	0	0	444060	683	0	correct_rejection	NA	0
1	Single	76	400	562	5	0	0	444776	684	0	correct_rejection	NA	0
1	Single	77	401	563	0	1	1	445493	683	1	hit	356	0
1	Single	78	402	564	4	0	0	446210	683	0	correct_rejection	NA	0
1	Single	79	403	565	4	0	0	446926	684	0	correct_rejection	NA	0
1	Single	80	404	566	8	0	0	447643	683	0	correct_rejection	NA	0
1	Single	81	405	567	8	0	0	448360	683	0	correct_rejection	NA	0
1	Single	82	406	568	0	1	1	449076	684	1	hit	328	0
1	Single	83	407	569	8	0	0	449793	683	0	correct_rejection	NA	0
1	Single	84	408	570	4	0	0	450510	683	0	correct_rejection	NA	0
1	Single	85	409	571	9	0	0	451226	684	0	correct_rejection	NA	0
1	Single	86	410	572	7	0	0	451943	683	0	correct_rejection	NA	0
1	Single	87	411	573	4	0	0	452660	683	0	correct_rejection	NA	0
1	Single	88	412	574	8	0	0	453376	684	0	correct_rejection	NA	0
1	Single	89	413	575	9	0	0	454093	683	0	correct_rejection	NA	0
1	Single	90	414	576	4	0	0	454810	683	0	correct_rejection	NA	0
1	Single	91	415	577	7	0	0	455526	684	0	correct_rejection	NA	0
1	Single	92	416	578	6	0	0	456243	683	0	correct_rejection	NA	0
1	Single	93	417	579	6	0	0	456960	683	0	correct_rejection	NA	0
1	Single	94	418	580	0	1	1	457676	684	1	hit	331	0
1	Single	95	419	581	8	0	0	458393	683	0	correct_rejection	NA	0
1	Single	96	420	582	8	0	0	459110	683	0	correct_rejection	NA	0
1	Single	97	421	583	5	0	0	459826	684	0	correct_rejection	NA	0
1	Single	98	422	584	5	0	0	460543	683	0	correct_rejection	NA	0
1	Single	99	423	585	6	0	0	461259	684	0	correct_rejection	NA	0
1	Single	100	424	586	0	1	1	461976	683	1	hit	336	0
1	Single	101	425	587	7	0	0	462693	683	0	correct_rejection	NA	0
1	Single	102	426	588	9	0	0	463409	684	0	correct_rejection	NA	0
1	Single	103	427	589	6	0	0	464126	683	0	correct_rejection	NA	0
1	Single	104	428	590	4	0	0	464843	683	0	correct_rejection	NA	0
1	Single	105	429	591	4	0	0	465559	684	0	correct_rejection	NA	0
1	Single	106	430	592	6	0	0	466276	683	0	correct_rejection	NA	0
1	Single	107	431	593	9	0	0	466993	683	0	correct_rejection	NA	0
1	Single	108	432	594	5	0	0	467709	684	0	correct_rejection	NA	0
1	Single	109	433	595	4	0	0	468426	683	0	correct_rejection	NA	0
1	Single	110	434	596	5	0	0	469143	683	0	correct_rejection	NA	0
1	Single	111	435	597	9	0	0	469859	684	0	correct_rejection	NA	0
1	Single	112	436	598	9	0	0	470576	683	0	correct_rejection	NA	0
1	Single	113	437	599	8	0	0	471293	683	0	correct_rejection	NA	0
1	Single	114	438	600	7	0	0	472009	684	0	correct_rejection	NA	0
1	Single	115	439	601	8	0	0	472726	683	0	correct_rejection	NA	0
1	Single	116	440	602	6	0	0	473443	683	0	correct_rejection	NA	0
1	Single	117	441	603	5	0	0	474159	684	0	correct_rejection	NA	0
1	Single	118	442	604	7	0	0	474876	683	0	correct_rejection	NA	0
1	Single	119	443	605	7	0	0	475593	683	0	correct_rejection	NA	0
1	Single	120	444	606	5	0	0	476309	684	0	correct_rejection	NA	0
1	Single	121	445	607	8	0	0	477026	683	0	correct_rejection	NA	0
1	Single	122	446	608	7	0	0	477743	683	0	correct_rejection	NA	0
1	Single	123	447	609	9	0	0	478459	684	0	correct_rejection	NA	0
1	Single	124	448	610	0	1	1	479176	683	1	hit	402	0
1	Single	125	449	611	9	0	0	479893	683	0	correct_rejection	NA	0
1	Single	126	450	612	6	0	0	480609	684	0	correct_rejection	NA	0
1	Single	127	451	613	0	1	1	481326	683	1	hit	370	0
1	Single	128	452	614	5	0	0	482043	683	0	correct_rejection	NA	0
1	Single	129	453	615	5	0	0	482759	684	0	correct_rejection	NA	0
1	Single	130	454	616	9	0	0	483476	683	0	correct_rejection	NA	0
1	Single	131	455	617	4	0	0	484192	684	0	correct_rejection	NA	0
1	Single	132	456	618	9	0	0	484909	683	0	correct_rejection	NA	0
1	Single	133	457	619	5	0	0	485626	683	0	correct_rejection	NA	0
1	Single	134	458	620	7	0	0	486342	684	0	correct_rejection	NA	0
1	Single	135	459	621	4	0	0	487059	683	0	correct_rejection	NA	0
1	Single	136	460	622	4	0	0	487776	683	0	correct_rejection	NA	0
1	Single	137	461	623	5	0	0	488492	684	0	correct_rejection	NA	0
1	Single	138	462	624	8	0	0	489209	683	0	correct_rejection	NA	0
1	Single	139	463	625	8	0	0	489926	683	0	correct_rejection	NA	0
1	Single	140	464	626	0	1	1	490642	684	1	hit	350	0
1	Single	141	465	627	9	0	0	491359	683	0	correct_rejection	NA	0
1	Single	142	466	628	7	0	0	492076	683	0	correct_rejection	NA	0
1	Single	143	467	629	8	0	0	492792	684	0	correct_rejection	NA	0
1	Single	144	468	630	4	0	0	493509	683	0	correct_rejection	NA	0
1	Single	145	469	631	8	0	0	494226	683	0	correct_rejection	NA	0
1	Single	146	470	632	6	0	0	494942	684	0	correct_rejection	NA	0
1	Single	147	471	633	9	0	0	495659	683	0	correct_rejection	NA	0
1	Single	148	472	634	8	0	0	496376	683	0	correct_rejection	NA	0
1	Single	149	473	635	0	1	1	497092	684	1	hit	329	0
1	Single	150	474	636	5	0	0	497809	683	0	correct_rejection	NA	0
1	Single	151	475	637	4	0	0	498526	683	0	correct_rejection	NA	0
1	Single	152	476	638	0	1	1	499242	684	1	hit	327	0
1	Single	153	477	639	7	0	0	499959	683	0	correct_rejection	NA	0
1	Single	154	478	640	5	0	0	500676	683	0	correct_rejection	NA	0
1	Single	155	479	641	0	1	1	501392	684	1	hit	318	0
1	Single	156	480	642	6	0	0	502109	683	0	correct_rejection	NA	0
1	Single	157	481	643	6	0	0	502826	683	0	correct_rejection	NA	0
1	Single	158	482	644	7	0	0	503542	684	0	correct_rejection	NA	0
1	Single	159	483	645	7	0	0	504259	683	0	correct_rejection	NA	0
1	Single	160	484	646	6	0	0	504976	683	0	correct_rejection	NA	0
1	Single	161	485	647	4	0	0	505692	684	0	correct_rejection	NA	0
1	Single	162	486	648	6	0	0	506409	683	0	correct_rejection	NA	0
1	Correct	1	163	649	4	0	0	515175	684	0	correct_rejection	NA	8011
1	Correct	2	164	650	5	0	0	515892	683	0	correct_rejection	NA	0
1	Correct	3	165	651	6	0	0	516609	683	0	correct_rejection	NA	0
1	Correct	4	166	652	4	0	0	517325	684	0	correct_rejection	NA	0
1	Correct	5	167	653	5	0	0	518042	683	0	correct_rejection	NA	0
1	Correct	6	168	654	6	0	0	518759	683	0	correct_rejection	NA	0
1	Correct	7	169	655	4	0	0	519475	684	0	correct_rejection	NA	0
1	Correct	8	170	656	0	1	1	520192	683	1	hit	388	0
1	Correct	9	171	657	5	0	0	520909	683	0	correct_rejection	NA	0
1	Correct	10	172	658	6	0	0	521625	684	0	correct_rejection	NA	0
1	Correct	11	173	659	6	0	0	522342	683	0	correct_rejection	NA	0
1	Correct	12	174	660	5	0	0	523059	683	0	correct_rejection	NA	0
1	Correct	13	175	661	4	0	0	523775	684	0	correct_rejection	NA	0
1	Correct	14	176	662	0	1	2	524492	683	1	hit	503	0
1	Correct	15	177	663	6	0	0	525209	683	0	correct_rejection	NA	0
1	Correct	16	178	664	5	0	0	525925	684	0	correct_rejection	NA	0
1	Correct	17	179	665	4	0	0	526642	683	0	correct_rejection	NA	0
1	Correct	18	180	666	6	0	0	527359	683	0	correct_rejection	NA	0
1	Correct	19	181	667	5	0	0	528075	684	0	correct_rejection	NA	0
1	Correct	20	182	668	4	0	0	528792	683	0	correct_rejection	NA	0
1	Correct	21	183	669	0	1	3	529508	684	1	hit	363	0
1	Correct	22	184	670	9	0	0	530225	683	0	correct_rejection	NA	0
1	Correct	23	185	671	8	0	0	530942	683	0	correct_rejection	NA	0
1	Correct	24	186	672	7	0	0	531658	684	0	correct_rejection	NA	0
1	Correct	25	187	673	0	1	2	532375	683	1	hit	444	0
1	Correct	26	188	674	9	0	0	533092	683	0	correct_rejection	NA	0
1	Correct	27	189	675	8	0	0	533808	684	0	correct_rejection	NA	0
1	Correct	28	190	676	0	1	1	534525	683	1	hit	319	0
1	Correct	29	191	677	7	0	0	535242	683	0	correct_rejection	NA	0
1	Correct	30	192	678	9	0	0	535958	684	0	correct_rejection	NA	0
1	Correct	31	193	679	8	0	0	536675	683	0	correct_rejection	NA	0
1	Correct	32	194	680	7	0	0	537392	683	0	correct_rejection	NA	0
1	Correct	33	195	681	0	1	3	538108	684	1	hit	322	0
1	Correct	34	196	682	7	0	0	538825	683	0	correct_rejection	NA	0
1	Correct	35	197	683	8	0	0	539542	683	0	correct_rejection	NA	0
1	Correct	36	198	684	9	0	0	540258	684	0	correct_rejection	NA	0
1	Correct	37	199	685	7	0	0	540975	683	0	correct_rejection	NA	0
1	Correct	38	200	686	8	0	0	541692	683	0	correct_rejection	NA	0
1	Correct	39	201	687	9	0	0	542408	684	0	correct_rejection	NA	0
1	Correct	40	202	688	7	0	0	543125	683	0	correct_rejection	NA	0
1	Correct	41	203	689	8	0	0	543842	683	0	correct_rejection	NA	0
1	Correct	42	204	690	9	0	0	544558	684	0	correct_rejection	NA	0
1	Correct	43	205	691	4	0	0	545275	683	0	correct_rejection	NA	0
1	Correct	44	206	692	5	0	0	545992	683	0	correct_rejection	NA	0
1	Correct	45	207	693	6	0	0	546708	684	0	correct_rejection	NA	0
1	Correct	46	208	694	4	0	0	547425	683	0	correct_rejection	NA	0
1	Correct	47	209	695	5	0	0	548142	683	0	correct_rejection	NA	0
1	Correct	48	210	696	6	0	0	548858	684	0	correct_rejection	NA	0
1	Correct	49	211	697	4	0	0	549575	683	0	correct_rejection	NA	0
1	Correct	50	212	698	5	0	0	550292	683	0	correct_rejection	NA	0
1	Correct	51	213	699	6	0	0	551008	684	0	correct_rejection	NA	0
1	Correct	52	214	700	6	0	0	551725	683	0	correct_rejection	NA	0
1	Correct	53	215	701	5	0	0	552441	684	0	correct_rejection	NA	0
1	Correct	54	216	702	4	0	0	553158	684	0	correct_rejection	NA	0
1	Correct	55	217	703	6	0	0	553875	683	0	correct_rejection	NA	0
1	Correct	56	218	704	5	0	0	554591	684	0	correct_rejection	NA	0
1	Correct	57	219	705	4	0	0	555308	683	0	correct_rejection	NA	0
1	Correct	58	220	706	6	0	0	556025	683	0	correct_rejection	NA	0
1	Correct	59	221	707	5	0	0	556741	684	0	correct_rejection	NA	0
1	Correct	60	222	708	0	1	1	557458	683	1	hit	435	0
1	Correct	61	223	709	4	0	0	558175	683	0	correct_rejection	NA	0
1	Correct	62	224	710	9	0	0	558891	684	0	correct_rejection	NA	0
1	Correct	63	225	711	0	1	1	559608	683	1	hit	381	0
1	Correct	64	226	712	8	0	0	560325	683	0	correct_rejection	NA	0
1	Correct	65	227	713	7	0	0	561041	684	0	correct_rejection	NA	0
1	Correct	66	228	714	9	0	0	561758	683	0	correct_rejection	NA	0
1	Correct	67	229	715	8	0	0	562475	683	0	correct_rejection	NA	0
1	Correct	68	230	716	7	0	0	563191	684	0	correct_rejection	NA	0
1	Correct	69	231	717	9	0	0	563908	683	0	correct_rejection	NA	0
1	Correct	70	232	718	8	0	0	564625	683	0	correct_rejection	NA	0
1	Correct	71	233	719	7	0	0	565341	684	0	correct_rejection	NA	0
1	Correct	72	234	720	7	0	0	566058	683	0	correct_rejection	NA	0
1	Correct	73	235	721	8	0	0	566775	683	0	correct_rejection	NA	0
1	Correct	74	236	722	0	1	1	567491	684	1	hit	397	0
1	Correct	75	237	723	9	0	0	568208	683	0	correct_rejection	NA	0
1	Correct	76	238	724	7	0	0	568925	683	0	correct_rejection	NA	0
1	Correct	77	239	725	0	1	1	569641	684	1	hit	374	0
1	Correct	78	240	726	8	0	0	570358	683	0	correct_rejection	NA	0
1	Correct	79	241	727	9	0	0	571075	683	0	correct_rejection	NA	0
1	Correct	80	242	728	7	0	0	571791	684	0	correct_rejection	NA	0
1	Correct	81	243	729	0	1	1	572508	683	1	hit	374	0
1	Correct	82	244	730	8	0	0	573225	683	0	correct_rejection	NA	0
1	Correct	83	245	731	9	0	0	573941	684	0	correct_rejection	NA	0
1	Correct	84	246	732	4	0	0	574658	683	0	correct_rejection	NA	0
1	Correct	85	247	733	5	0	0	575374	684	0	correct_rejection	NA	0
1	Correct	86	248	734	6	0	0	576091	683	0	correct_rejection	NA	0
1	Correct	87	249	735	0	1	2	576808	683	1	hit	343	0
1	Correct	88	250	736	4	0	0	577524	684	0	correct_rejection	NA	0
1	Correct	89	251	737	5	0	0	578241	683	0	correct_rejection	NA	0
1	Correct	90	252	738	6	0	0	578958	683	0	correct_rejection	NA	0
1	Correct	91	253	739	4	0	0	579674	684	0	correct_rejection	NA	0
1	Correct	92	254	740	5	0	0	580391	683	0	correct_rejection	NA	0
1	Correct	93	255	741	6	0	0	581108	683	0	correct_rejection	NA	0
1	Correct	94	256	742	6	0	0	581824	684	0	correct_rejection	NA	0
1	Correct	95	257	743	0	1	1	582541	683	1	hit	337	0
1	Correct	96	258	744	5	0	0	583258	683	0	correct_rejection	NA	0
1	Correct	97	259	745	4	0	0	583974	684	0	correct_rejection	NA	0
1	Correct	98	260	746	6	0	0	584691	683	0	correct_rejection	NA	0
1	Correct	99	261	747	5	0	0	585408	683	0	correct_rejection	NA	0
1	Correct	100	262	748	4	0	0	586124	684	0	correct_rejection	NA	0
1	Correct	101	263	749	6	0	0	586841	683	0	correct_rejection	NA	0
1	Correct	102	264	750	5	0	0	587558	683	0	correct_rejection	NA	0
1	Correct	103	265	751	4	0	0	588274	684	0	correct_rejection	NA	0
1	Correct	104	266	752	9	0	0	588991	683	0	correct_rejection	NA	0
1	Correct	105	267	753	8	0	0	589708	683	0	correct_rejection	NA	0
1	Correct	106	268	754	7	0	0	590424	684	0	correct_rejection	NA	0
1	Correct	107	269	755	9	0	0	591141	683	0	correct_rejection	NA	0
1	Correct	108	270	756	8	0	0	591858	683	0	correct_rejection	NA	0
1	Correct	109	271	757	7	0	0	592574	684	0	correct_rejection	NA	0
1	Correct	110	272	758	9	0	0	593291	683	0	correct_rejection	NA	0
1	Correct	111	273	759	8	0	0	594008	683	0	correct_rejection	NA	0
1	Correct	112	274	760	7	0	0	594724	684	0	correct_rejection	NA	0
1	Correct	113	275	761	7	0	0	595441	683	0	correct_rejection	NA	0
1	Correct	114	276	762	8	0	0	596158	683	0	correct_rejection	NA	0
1	Correct	115	277	763	0	1	1	596874	684	1	hit	316	0
1	Correct	116	278	764	9	0	0	597591	683	0	correct_rejection	NA	0
1	Correct	117	279	765	7	0	0	598307	684	0	correct_rejection	NA	0
1	Correct	118	280	766	8	0	0	599024	683	0	correct_rejection	NA	0
1	Correct	119	281	767	9	0	0	599741	683	0	correct_rejection	NA	0
1	Correct	120	282	768	0	1	2	600457	684	1	hit	360	0
1	Correct	121	283	769	7	0	0	601174	683	0	correct_rejection	NA	0
1	Correct	122	284	770	8	0	0	601891	683	0	correct_rejection	NA	0
1	Correct	123	285	771	9	0	0	602607	684	0	correct_rejection	NA	0
1	Correct	124	286	772	4	0	0	603324	683	0	correct_rejection	NA	0
1	Correct	125	287	773	5	0	0	604041	683	0	correct_rejection	NA	0
1	Correct	126	288	774	0	1	1	604757	684	1	hit	336	0
1	Correct	127	289	775	6	0	0	605474	683	0	correct_rejection	NA	0
1	Correct	128	290	776	4	0	0	606191	683	0	correct_rejection	NA	0
1	Correct	129	291	777	5	0	0	606907	684	0	correct_rejection	NA	0
1	Correct	130	292	778	6	0	0	607624	683	0	correct_rejection	NA	0
1	Correct	131	293	779	4	0	0	608341	683	0	correct_rejection	NA	0
1	Correct	132	294	780	5	0	0	609057	684	0	correct_rejection	NA	0
1	Correct	133	295	781	6	0	0	609774	683	0	correct_rejection	NA	0
1	Correct	134	296	782	6	0	0	610491	683	0	correct_rejection	NA	0
1	Correct	135	297	783	5	0	0	611207	684	0	correct_rejection	NA	0
1	Correct	136	298	784	4	0	0	611924	683	0	correct_rejection	NA	0
1	Correct	137	299	785	6	0	0	612641	683	0	correct_rejection	NA	0
1	Correct	138	300	786	5	0	0	613357	684	0	correct_rejection	NA	0
1	Correct	139	301	787	4	0	0	614074	683	0	correct_rejection	NA	0
1	Correct	140	302	788	6	0	0	614791	683	0	correct_rejection	NA	0
1	Correct	141	303	789	5	0	0	615507	684	0	correct_rejection	NA	0
1	Correct	142	304	790	4	0	0	616224	683	0	correct_rejection	NA	0
1	Correct	143	305	791	9	0	0	616941	683	0	correct_rejection	NA	0
1	Correct	144	306	792	8	0	0	617657	684	0	correct_rejection	NA	0
1	Correct	145	307	793	7	0	0	618374	683	0	correct_rejection	NA	0
1	Correct	146	308	794	9	0	0	619091	683	0	correct_rejection	NA	0
1	Correct	147	309	795	8	0	0	619807	684	0	correct_rejection	NA	0
1	Correct	148	310	796	0	1	1	620524	683	1	hit	425	0
1	Correct	149	311	797	7	0	0	621240	684	0	correct_rejection	NA	0
1	Correct	150	312	798	9	0	0	621957	684	0	correct_rejection	NA	0
1	Correct	151	313	799	8	0	0	622674	683	0	correct_rejection	NA	0
1	Correct	152	314	800	7	0	0	623390	684	0	correct_rejection	NA	0
1	Correct	153	315	801	7	0	0	624107	683	0	correct_rejection	NA	0
1	Correct	154	316	802	0	1	1	624824	683	1	hit	411	0
1	Correct	155	317	803	8	0	0	625540	684	0	correct_rejection	NA	0
1	Correct	156	318	804	9	0	0	626257	683	0	correct_rejection	NA	0
1	Correct	157	319	805	7	0	0	626974	683	0	correct_rejection	NA	0
1	Correct	158	320	806	8	0	0	627690	684	0	correct_rejection	NA	0
1	Correct	159	321	807	9	0	0	628407	683	0	correct_rejection	NA	0
1	Correct	160	322	808	7	0	0	629124	683	0	correct_rejection	NA	0
1	Correct	161	323	809	8	0	0	629840	684	0	correct_rejection	NA	0
1	Correct	162	324	810	9	0	0	630557	683	0	correct_rejection	NA	0
trigger nr 620 at 630434
trigger nr 632 at 715188
1	Nonet	1	325	811	4	0	0	723306	683	0	correct_rejection	NA	8033
1	Nonet	2	326	812	5	0	0	724022	684	0	correct_rejection	NA	0
1	Nonet	3	327	813	6	0	0	724739	683	0	correct_rejection	NA	0
1	Nonet	4	328	814	4	0	0	725456	683	0	correct_rejection	NA	0
1	Nonet	5	329	815	5	0	0	726172	684	0	correct_rejection	NA	0
1	Nonet	6	330	816	6	0	0	726889	683	0	correct_rejection	NA	0
1	Nonet	7	331	817	0	1	2	727606	683	1	hit	383	0
1	Nonet	8	332	818	4	0	0	728322	684	0	correct_rejection	NA	0
1	Nonet	9	333	819	5	0	0	729039	683	0	correct_rejection	NA	0
1	Nonet	10	334	820	6	0	0	729756	683	0	correct_rejection	NA	0
1	Nonet	11	335	821	6	0	0	730472	684	0	correct_rejection	NA	0
1	Nonet	12	336	822	0	1	1	731189	683	1	hit	367	0
1	Nonet	13	337	823	5	0	0	731906	683	0	correct_rejection	NA	0
1	Nonet	14	338	824	4	0	0	732622	684	0	correct_rejection	NA	0
1	Nonet	15	339	825	6	0	0	733339	683	0	correct_rejection	NA	0
1	Nonet	16	340	826	5	0	0	734056	683	0	correct_rejection	NA	0
1	Nonet	17	341	827	4	0	0	734772	684	0	correct_rejection	NA	0
1	Nonet	18	342	828	6	0	0	735489	683	0	correct_rejection	NA	0
1	Nonet	19	343	829	5	0	0	736205	684	0	correct_rejection	NA	0
1	Nonet	20	344	830	4	0	0	736922	683	0	correct_rejection	NA	0
1	Nonet	21	345	831	4	0	0	737639	683	0	correct_rejection	NA	0
1	Nonet	22	346	832	5	0	0	738355	684	0	correct_rejection	NA	0
1	Nonet	23	347	833	6	0	0	739072	683	0	correct_rejection	NA	0
1	Nonet	24	348	834	4	0	0	739789	683	0	correct_rejection	NA	0
1	Nonet	25	349	835	0	1	1	740505	684	1	hit	318	0
1	Nonet	26	350	836	5	0	0	741222	683	0	correct_rejection	NA	0
1	Nonet	27	351	837	6	0	0	741939	683	0	correct_rejection	NA	0
1	Nonet	28	352	838	4	0	0	742655	684	0	correct_rejection	NA	0
1	Nonet	29	353	839	5	0	0	743372	683	0	correct_rejection	NA	0
1	Nonet	30	354	840	6	0	0	744089	683	0	correct_rejection	NA	0
1	Nonet	31	355	841	9	0	0	744805	684	0	correct_rejection	NA	0
1	Nonet	32	356	842	8	0	0	745522	683	0	correct_rejection	NA	0
1	Nonet	33	357	843	7	0	0	746239	683	0	correct_rejection	NA	0
1	Nonet	34	358	844	9	0	0	746955	684	0	correct_rejection	NA	0
1	Nonet	35	359	845	8	0	0	747672	683	0	correct_rejection	NA	0
1	Nonet	36	360	846	7	0	0	748389	683	0	correct_rejection	NA	0
1	Nonet	37	361	847	9	0	0	749105	684	0	correct_rejection	NA	0
1	Nonet	38	362	848	8	0	0	749822	683	0	correct_rejection	NA	0
1	Nonet	39	363	849	7	0	0	750539	683	0	correct_rejection	NA	0
1	Nonet	40	364	850	4	0	0	751255	684	0	correct_rejection	NA	0
1	Nonet	41	365	851	5	0	0	751972	683	0	correct_rejection	NA	0
1	Nonet	42	366	852	6	0	0	752689	683	0	correct_rejection	NA	0
1	Nonet	43	367	853	4	0	0	753405	684	0	correct_rejection	NA	0
1	Nonet	44	368	854	5	0	0	754122	683	0	correct_rejection	NA	0
1	Nonet	45	369	855	0	1	1	754839	683	1	hit	322	0
1	Nonet	46	370	856	6	0	0	755555	684	0	correct_rejection	NA	0
1	Nonet	47	371	857	4	0	0	756272	683	0	correct_rejection	NA	0
1	Nonet	48	372	858	5	0	0	756989	683	0	correct_rejection	NA	0
1	Nonet	49	373	859	6	0	0	757705	684	0	correct_rejection	NA	0
1	Nonet	50	374	860	7	0	0	758422	683	0	correct_rejection	NA	0
1	Nonet	51	375	861	0	1	1	759138	684	1	hit	319	0
1	Nonet	52	376	862	8	0	0	759855	683	0	correct_rejection	NA	0
1	Nonet	53	377	863	9	0	0	760572	683	0	correct_rejection	NA	0
1	Nonet	54	378	864	7	0	0	761288	684	0	correct_rejection	NA	0
1	Nonet	55	379	865	8	0	0	762005	683	0	correct_rejection	NA	0
1	Nonet	56	380	866	9	0	0	762722	683	0	correct_rejection	NA	0
1	Nonet	57	381	867	7	0	0	763438	684	0	correct_rejection	NA	0
1	Nonet	58	382	868	8	0	0	764155	683	0	correct_rejection	NA	0
1	Nonet	59	383	869	9	0	0	764872	683	0	correct_rejection	NA	0
1	Nonet	60	384	870	9	0	0	765588	684	0	correct_rejection	NA	0
1	Nonet	61	385	871	8	0	0	766305	683	0	correct_rejection	NA	0
1	Nonet	62	386	872	7	0	0	767022	683	0	correct_rejection	NA	0
1	Nonet	63	387	873	9	0	0	767738	684	0	correct_rejection	NA	0
1	Nonet	64	388	874	8	0	0	768455	683	0	correct_rejection	NA	0
1	Nonet	65	389	875	0	1	1	769172	683	1	hit	389	0
1	Nonet	66	390	876	7	0	0	769888	684	0	correct_rejection	NA	0
1	Nonet	67	391	877	9	0	0	770605	683	0	correct_rejection	NA	0
1	Nonet	68	392	878	8	0	0	771322	683	0	correct_rejection	NA	0
1	Nonet	69	393	879	7	0	0	772038	684	0	correct_rejection	NA	0
1	Nonet	70	394	880	0	1	3	772755	683	1	hit	387	0
1	Nonet	71	395	881	9	0	0	773472	683	0	correct_rejection	NA	0
1	Nonet	72	396	882	8	0	0	774188	684	0	correct_rejection	NA	0
1	Nonet	73	397	883	7	0	0	774905	683	0	correct_rejection	NA	0
1	Nonet	74	398	884	9	0	0	775622	683	0	correct_rejection	NA	0
1	Nonet	75	399	885	8	0	0	776338	684	0	correct_rejection	NA	0
1	Nonet	76	400	886	7	0	0	777055	683	0	correct_rejection	NA	0
1	Nonet	77	401	887	9	0	0	777772	683	0	correct_rejection	NA	0
1	Nonet	78	402	888	0	1	1	778488	684	1	hit	434	0
1	Nonet	79	403	889	8	0	0	779205	683	0	correct_rejection	NA	0
1	Nonet	80	404	890	7	0	0	779922	683	0	correct_rejection	NA	0
1	Nonet	81	405	891	6	0	0	780638	684	0	correct_rejection	NA	0
1	Nonet	82	406	892	5	0	0	781355	683	0	correct_rejection	NA	0
1	Nonet	83	407	893	4	0	0	782071	684	0	correct_rejection	NA	0
1	Nonet	84	408	894	0	1	2	782788	683	1	hit	312	0
1	Nonet	85	409	895	6	0	0	783505	683	0	correct_rejection	NA	0
1	Nonet	86	410	896	5	0	0	784221	684	0	correct_rejection	NA	0
1	Nonet	87	411	897	4	0	0	784938	683	0	correct_rejection	NA	0
1	Nonet	88	412	898	6	0	0	785655	683	0	correct_rejection	NA	0
1	Nonet	89	413	899	5	0	0	786371	684	0	correct_rejection	NA	0
1	Nonet	90	414	900	4	0	0	787088	683	0	correct_rejection	NA	0
1	Nonet	91	415	901	7	0	0	787805	683	0	correct_rejection	NA	0
1	Nonet	92	416	902	8	0	0	788521	684	0	correct_rejection	NA	0
1	Nonet	93	417	903	9	0	0	789238	683	0	correct_rejection	NA	0
1	Nonet	94	418	904	7	0	0	789955	683	0	correct_rejection	NA	0
1	Nonet	95	419	905	8	0	0	790671	684	0	correct_rejection	NA	0
1	Nonet	96	420	906	9	0	0	791388	683	0	correct_rejection	NA	0
1	Nonet	97	421	907	7	0	0	792105	683	0	correct_rejection	NA	0
1	Nonet	98	422	908	8	0	0	792821	684	0	correct_rejection	NA	0
1	Nonet	99	423	909	9	0	0	793538	683	0	correct_rejection	NA	0
1	Nonet	100	424	910	6	0	0	794255	683	0	correct_rejection	NA	0
1	Nonet	101	425	911	0	1	1	794971	684	1	hit	392	0
1	Nonet	102	426	912	5	0	0	795688	683	0	correct_rejection	NA	0
1	Nonet	103	427	913	4	0	0	796405	683	0	correct_rejection	NA	0
1	Nonet	104	428	914	6	0	0	797121	684	0	correct_rejection	NA	0
1	Nonet	105	429	915	5	0	0	797838	683	0	correct_rejection	NA	0
1	Nonet	106	430	916	4	0	0	798555	683	0	correct_rejection	NA	0
1	Nonet	107	431	917	6	0	0	799271	684	0	correct_rejection	NA	0
1	Nonet	108	432	918	5	0	0	799988	683	0	correct_rejection	NA	0
1	Nonet	109	433	919	4	0	0	800705	683	0	correct_rejection	NA	0
1	Nonet	110	434	920	0	1	3	801421	684	1	hit	333	0
1	Nonet	111	435	921	6	0	0	802138	683	0	correct_rejection	NA	0
1	Nonet	112	436	922	5	0	0	802855	683	0	correct_rejection	NA	0
1	Nonet	113	437	923	0	1	1	803571	684	1	hit	427	0
1	Nonet	114	438	924	4	0	0	804288	683	0	correct_rejection	NA	0
1	Nonet	115	439	925	6	0	0	805004	684	0	correct_rejection	NA	0
1	Nonet	116	440	926	5	0	0	805721	683	0	correct_rejection	NA	0
1	Nonet	117	441	927	4	0	0	806438	683	0	correct_rejection	NA	0
1	Nonet	118	442	928	6	0	0	807154	684	0	correct_rejection	NA	0
1	Nonet	119	443	929	5	0	0	807871	683	0	correct_rejection	NA	0
1	Nonet	120	444	930	4	0	0	808588	683	0	correct_rejection	NA	0
1	Nonet	121	445	931	9	0	0	809304	684	0	correct_rejection	NA	0
1	Nonet	122	446	932	8	0	0	810021	683	0	correct_rejection	NA	0
1	Nonet	123	447	933	0	1	1	810738	683	1	hit	373	0
1	Nonet	124	448	934	7	0	0	811454	684	0	correct_rejection	NA	0
1	Nonet	125	449	935	9	0	0	812171	683	0	correct_rejection	NA	0
1	Nonet	126	450	936	8	0	0	812888	683	0	correct_rejection	NA	0
1	Nonet	127	451	937	7	0	0	813604	684	0	correct_rejection	NA	0
1	Nonet	128	452	938	9	0	0	814321	683	0	correct_rejection	NA	0
1	Nonet	129	453	939	8	0	0	815038	683	0	correct_rejection	NA	0
1	Nonet	130	454	940	7	0	0	815754	684	0	correct_rejection	NA	0
1	Nonet	131	455	941	0	1	3	816471	683	1	hit	408	0
1	Nonet	132	456	942	7	0	0	817188	683	0	correct_rejection	NA	0
1	Nonet	133	457	943	8	0	0	817904	684	0	correct_rejection	NA	0
1	Nonet	134	458	944	9	0	0	818621	683	0	correct_rejection	NA	0
1	Nonet	135	459	945	7	0	0	819338	683	0	correct_rejection	NA	0
1	Nonet	136	460	946	8	0	0	820054	684	0	correct_rejection	NA	0
1	Nonet	137	461	947	0	1	1	820771	683	1	hit	375	0
1	Nonet	138	462	948	9	0	0	821488	683	0	correct_rejection	NA	0
1	Nonet	139	463	949	7	0	0	822204	684	0	correct_rejection	NA	0
1	Nonet	140	464	950	8	0	0	822921	683	0	correct_rejection	NA	0
1	Nonet	141	465	951	9	0	0	823638	683	0	correct_rejection	NA	0
1	Nonet	142	466	952	0	1	3	824354	684	1	hit	369	0
1	Nonet	143	467	953	7	0	0	825071	683	0	correct_rejection	NA	0
1	Nonet	144	468	954	8	0	0	825788	682	0	correct_rejection	NA	0
1	Nonet	145	469	955	9	0	0	826504	684	0	correct_rejection	NA	0
1	Nonet	146	470	956	7	0	0	827221	683	0	correct_rejection	NA	0
1	Nonet	147	471	957	8	0	0	827937	684	0	correct_rejection	NA	0
1	Nonet	148	472	958	9	0	0	828654	684	0	correct_rejection	NA	0
1	Nonet	149	473	959	7	0	0	829371	683	0	correct_rejection	NA	0
1	Nonet	150	474	960	8	0	0	830087	684	0	correct_rejection	NA	0
1	Nonet	151	475	961	9	0	0	830804	683	0	correct_rejection	NA	0
1	Nonet	152	476	962	4	0	0	831521	683	0	correct_rejection	NA	0
1	Nonet	153	477	963	5	0	0	832237	684	0	correct_rejection	NA	0
1	Nonet	154	478	964	0	1	1	832954	683	1	hit	336	0
1	Nonet	155	479	965	6	0	0	833671	683	0	correct_rejection	NA	0
1	Nonet	156	480	966	4	0	0	834387	684	0	correct_rejection	NA	0
1	Nonet	157	481	967	0	1	1	835104	683	1	hit	374	0
1	Nonet	158	482	968	5	0	0	835821	683	0	correct_rejection	NA	0
1	Nonet	159	483	969	6	0	0	836537	684	0	correct_rejection	NA	0
1	Nonet	160	484	970	4	0	0	837254	683	0	correct_rejection	NA	0
1	Nonet	161	485	971	5	0	0	837971	683	0	correct_rejection	NA	0
1	Nonet	162	486	972	6	0	0	838687	684	0	correct_rejection	NA	0
1	Correct	1	487	973	4	0	0	845687	684	0	correct_rejection	NA	6242
1	Correct	2	488	974	5	0	0	846404	683	0	correct_rejection	NA	0
1	Correct	3	489	975	6	0	0	847121	683	0	correct_rejection	NA	0
1	Correct	4	490	976	4	0	0	847837	684	0	correct_rejection	NA	0
1	Correct	5	491	977	0	1	1	848554	683	1	hit	377	0
1	Correct	6	492	978	5	0	0	849270	684	0	correct_rejection	NA	0
1	Correct	7	493	979	6	0	0	849987	684	0	correct_rejection	NA	0
1	Correct	8	494	980	0	1	2	850704	683	1	hit	347	0
1	Correct	9	495	981	4	0	0	851420	684	0	correct_rejection	NA	0
1	Correct	10	496	982	5	0	0	852137	683	0	correct_rejection	NA	0
1	Correct	11	497	983	6	0	0	852854	683	0	correct_rejection	NA	0
1	Correct	12	498	984	6	0	0	853570	684	0	correct_rejection	NA	0
1	Correct	13	499	985	5	0	0	854287	683	0	correct_rejection	NA	0
1	Correct	14	500	986	4	0	0	855004	683	0	correct_rejection	NA	0
1	Correct	15	501	987	0	1	2	855720	684	1	hit	341	0
1	Correct	16	502	988	6	0	0	856437	683	0	correct_rejection	NA	0
1	Correct	17	503	989	5	0	0	857154	683	0	correct_rejection	NA	0
1	Correct	18	504	990	4	0	0	857870	684	0	correct_rejection	NA	0
1	Correct	19	505	991	6	0	0	858587	683	0	correct_rejection	NA	0
1	Correct	20	506	992	0	1	1	859304	683	1	hit	381	0
1	Correct	21	507	993	5	0	0	860020	684	0	correct_rejection	NA	0
1	Correct	22	508	994	4	0	0	860737	683	0	correct_rejection	NA	0
1	Correct	23	509	995	9	0	0	861454	683	0	correct_rejection	NA	0
1	Correct	24	510	996	8	0	0	862170	684	0	correct_rejection	NA	0
1	Correct	25	511	997	7	0	0	862887	683	0	correct_rejection	NA	0
1	Correct	26	512	998	9	0	0	863604	683	0	correct_rejection	NA	0
1	Correct	27	513	999	0	1	1	864320	684	1	hit	329	0
1	Correct	28	514	1000	8	0	0	865037	683	0	correct_rejection	NA	0
1	Correct	29	515	1001	7	0	0	865754	683	0	correct_rejection	NA	0
1	Correct	30	516	1002	9	0	0	866470	684	0	correct_rejection	NA	0
1	Correct	31	517	1003	8	0	0	867187	683	0	correct_rejection	NA	0
1	Correct	32	518	1004	0	1	1	867904	683	1	hit	344	0
1	Correct	33	519	1005	7	0	0	868620	684	0	correct_rejection	NA	0
1	Correct	34	520	1006	7	0	0	869337	683	0	correct_rejection	NA	0
1	Correct	35	521	1007	8	0	0	870054	683	0	correct_rejection	NA	0
1	Correct	36	522	1008	9	0	0	870770	684	0	correct_rejection	NA	0
1	Correct	37	523	1009	7	0	0	871487	683	0	correct_rejection	NA	0
1	Correct	38	524	1010	8	0	0	872203	684	0	correct_rejection	NA	0
1	Correct	39	525	1011	9	0	0	872920	684	0	correct_rejection	NA	0
1	Correct	40	526	1012	7	0	0	873637	683	0	correct_rejection	NA	0
1	Correct	41	527	1013	8	0	0	874353	684	0	correct_rejection	NA	0
1	Correct	42	528	1014	9	0	0	875070	683	0	correct_rejection	NA	0
1	Correct	43	529	1015	4	0	0	875787	683	0	correct_rejection	NA	0
1	Correct	44	530	1016	5	0	0	876503	684	0	correct_rejection	NA	0
1	Correct	45	531	1017	6	0	0	877220	683	0	correct_rejection	NA	0
1	Correct	46	532	1018	4	0	0	877937	683	0	correct_rejection	NA	0
1	Correct	47	533	1019	5	0	0	878653	684	0	correct_rejection	NA	0
1	Correct	48	534	1020	6	0	0	879370	683	0	correct_rejection	NA	0
1	Correct	49	535	1021	4	0	0	880087	683	0	correct_rejection	NA	0
1	Correct	50	536	1022	5	0	0	880803	684	0	correct_rejection	NA	0
1	Correct	51	537	1023	0	1	1	881520	683	1	hit	340	0
1	Correct	52	538	1024	6	0	0	882237	683	0	correct_rejection	NA	0
1	Correct	53	539	1025	6	0	0	882953	684	0	correct_rejection	NA	0
1	Correct	54	540	1026	5	0	0	883670	683	0	correct_rejection	NA	0
1	Correct	55	541	1027	4	0	0	884387	683	0	correct_rejection	NA	0
1	Correct	56	542	1028	6	0	0	885103	684	0	correct_rejection	NA	0
1	Correct	57	543	1029	5	0	0	885820	683	0	correct_rejection	NA	0
1	Correct	58	544	1030	4	0	0	886537	683	0	correct_rejection	NA	0
1	Correct	59	545	1031	0	1	2	887253	684	1	hit	277	0
1	Correct	60	546	1032	6	0	0	887970	683	0	correct_rejection	NA	0
1	Correct	61	547	1033	5	0	0	888687	683	0	correct_rejection	NA	0
1	Correct	62	548	1034	0	1	1	889403	684	1	hit	367	0
1	Correct	63	549	1035	4	0	0	890120	683	0	correct_rejection	NA	0
1	Correct	64	550	1036	9	0	0	890837	683	0	correct_rejection	NA	0
1	Correct	65	551	1037	0	1	1	891553	684	1	hit	339	0
1	Correct	66	552	1038	8	0	0	892270	683	0	correct_rejection	NA	0
1	Correct	67	553	1039	7	0	0	892987	683	0	correct_rejection	NA	0
1	Correct	68	554	1040	9	0	0	893703	684	0	correct_rejection	NA	0
1	Correct	69	555	1041	8	0	0	894420	683	0	correct_rejection	NA	0
1	Correct	70	556	1042	0	1	1	895136	684	1	hit	298	0
1	Correct	71	557	1043	7	0	0	895853	684	0	correct_rejection	NA	0
1	Correct	72	558	1044	9	0	0	896570	683	0	correct_rejection	NA	0
1	Correct	73	559	1045	8	0	0	897286	684	0	correct_rejection	NA	0
1	Correct	74	560	1046	7	0	0	898003	683	0	correct_rejection	NA	0
1	Correct	75	561	1047	7	0	0	898720	683	0	correct_rejection	NA	0
1	Correct	76	562	1048	8	0	0	899436	684	0	correct_rejection	NA	0
1	Correct	77	563	1049	9	0	0	900153	683	0	correct_rejection	NA	0
1	Correct	78	564	1050	7	0	0	900870	683	0	correct_rejection	NA	0
1	Correct	79	565	1051	8	0	0	901586	684	0	correct_rejection	NA	0
1	Correct	80	566	1052	9	0	0	902303	683	0	correct_rejection	NA	0
1	Correct	81	567	1053	7	0	0	903020	683	0	correct_rejection	NA	0
1	Correct	82	568	1054	8	0	0	903736	684	0	correct_rejection	NA	0
1	Correct	83	569	1055	9	0	0	904453	683	0	correct_rejection	NA	0
1	Correct	84	570	1056	4	0	0	905170	683	0	correct_rejection	NA	0
1	Correct	85	571	1057	5	0	0	905886	684	0	correct_rejection	NA	0
1	Correct	86	572	1058	6	0	0	906603	683	0	correct_rejection	NA	0
1	Correct	87	573	1059	4	0	0	907320	683	0	correct_rejection	NA	0
1	Correct	88	574	1060	5	0	0	908036	684	0	correct_rejection	NA	0
1	Correct	89	575	1061	0	1	1	908753	683	1	hit	337	0
1	Correct	90	576	1062	6	0	0	909470	683	0	correct_rejection	NA	0
1	Correct	91	577	1063	4	0	0	910186	684	0	correct_rejection	NA	0
1	Correct	92	578	1064	5	0	0	910903	683	0	correct_rejection	NA	0
1	Correct	93	579	1065	6	0	0	911620	683	0	correct_rejection	NA	0
1	Correct	94	580	1066	6	0	0	912336	684	0	correct_rejection	NA	0
1	Correct	95	581	1067	0	1	1	913053	683	1	hit	383	0
1	Correct	96	582	1068	5	0	0	913770	683	0	correct_rejection	NA	0
1	Correct	97	583	1069	4	0	0	914486	684	0	correct_rejection	NA	0
1	Correct	98	584	1070	6	0	0	915203	683	0	correct_rejection	NA	0
1	Correct	99	585	1071	5	0	0	915920	683	0	correct_rejection	NA	0
1	Correct	100	586	1072	4	0	0	916636	684	0	correct_rejection	NA	0
1	Correct	101	587	1073	6	0	0	917353	683	0	correct_rejection	NA	0
1	Correct	102	588	1074	5	0	0	918069	684	0	correct_rejection	NA	0
1	Correct	103	589	1075	4	0	0	918786	683	0	correct_rejection	NA	0
1	Correct	104	590	1076	9	0	0	919503	683	0	correct_rejection	NA	0
1	Correct	105	591	1077	8	0	0	920219	684	0	correct_rejection	NA	0
1	Correct	106	592	1078	7	0	0	920936	683	0	correct_rejection	NA	0
1	Correct	107	593	1079	9	0	0	921653	683	0	correct_rejection	NA	0
1	Correct	108	594	1080	8	0	0	922369	684	0	correct_rejection	NA	0
1	Correct	109	595	1081	7	0	0	923086	683	0	correct_rejection	NA	0
1	Correct	110	596	1082	9	0	0	923803	683	0	correct_rejection	NA	0
1	Correct	111	597	1083	8	0	0	924519	684	0	correct_rejection	NA	0
1	Correct	112	598	1084	7	0	0	925236	683	0	correct_rejection	NA	0
1	Correct	113	599	1085	7	0	0	925953	683	0	correct_rejection	NA	0
1	Correct	114	600	1086	8	0	0	926669	684	0	correct_rejection	NA	0
1	Correct	115	601	1087	0	1	1	927386	683	1	hit	333	0
1	Correct	116	602	1088	9	0	0	928103	683	0	correct_rejection	NA	0
1	Correct	117	603	1089	7	0	0	928819	684	0	correct_rejection	NA	0
1	Correct	118	604	1090	8	0	0	929536	683	0	correct_rejection	NA	0
1	Correct	119	605	1091	9	0	0	930253	683	0	correct_rejection	NA	0
1	Correct	120	606	1092	7	0	0	930969	684	0	correct_rejection	NA	0
1	Correct	121	607	1093	8	0	0	931686	683	0	correct_rejection	NA	0
1	Correct	122	608	1094	9	0	0	932403	683	0	correct_rejection	NA	0
1	Correct	123	609	1095	0	1	4	933119	684	1	hit	388	0
1	Correct	124	610	1096	4	0	0	933836	683	0	correct_rejection	NA	0
1	Correct	125	611	1097	5	0	0	934553	683	0	correct_rejection	NA	0
1	Correct	126	612	1098	6	0	0	935269	684	0	correct_rejection	NA	0
1	Correct	127	613	1099	4	0	0	935986	683	0	correct_rejection	NA	0
1	Correct	128	614	1100	5	0	0	936703	683	0	correct_rejection	NA	0
1	Correct	129	615	1101	6	0	0	937419	684	0	correct_rejection	NA	0
1	Correct	130	616	1102	0	1	2	938136	683	1	hit	344	0
1	Correct	131	617	1103	4	0	0	938853	683	0	correct_rejection	NA	0
1	Correct	132	618	1104	5	0	0	939569	684	0	correct_rejection	NA	0
1	Correct	133	619	1105	6	0	0	940286	683	0	correct_rejection	NA	0
1	Correct	134	620	1106	6	0	0	941002	684	0	correct_rejection	NA	0
1	Correct	135	621	1107	5	0	0	941719	684	0	correct_rejection	NA	0
1	Correct	136	622	1108	4	0	0	942436	683	0	correct_rejection	NA	0
1	Correct	137	623	1109	6	0	0	943152	684	0	correct_rejection	NA	0
1	Correct	138	624	1110	5	0	0	943869	683	0	correct_rejection	NA	0
1	Correct	139	625	1111	0	1	1	944586	683	1	hit	357	0
1	Correct	140	626	1112	4	0	0	945302	684	0	correct_rejection	NA	0
1	Correct	141	627	1113	6	0	0	946019	683	0	correct_rejection	NA	0
1	Correct	142	628	1114	5	0	0	946736	683	0	correct_rejection	NA	0
1	Correct	143	629	1115	4	0	0	947452	684	0	correct_rejection	NA	0
1	Correct	144	630	1116	0	1	3	948169	683	1	hit	331	0
1	Correct	145	631	1117	9	0	0	948886	683	0	correct_rejection	NA	0
1	Correct	146	632	1118	8	0	0	949602	684	0	correct_rejection	NA	0
1	Correct	147	633	1119	7	0	0	950319	683	0	correct_rejection	NA	0
1	Correct	148	634	1120	9	0	0	951036	683	0	correct_rejection	NA	0
1	Correct	149	635	1121	8	0	0	951752	684	0	correct_rejection	NA	0
1	Correct	150	636	1122	7	0	0	952469	683	0	correct_rejection	NA	0
1	Correct	151	637	1123	9	0	0	953186	683	0	correct_rejection	NA	0
1	Correct	152	638	1124	8	0	0	953902	684	0	correct_rejection	NA	0
1	Correct	153	639	1125	7	0	0	954619	683	0	correct_rejection	NA	0
1	Correct	154	640	1126	7	0	0	955336	683	0	correct_rejection	NA	0
1	Correct	155	641	1127	8	0	0	956052	684	0	correct_rejection	NA	0
1	Correct	156	642	1128	9	0	0	956769	683	0	correct_rejection	NA	0
1	Correct	157	643	1129	7	0	0	957486	683	0	correct_rejection	NA	0
1	Correct	158	644	1130	8	0	0	958202	684	0	correct_rejection	NA	0
1	Correct	159	645	1131	9	0	0	958919	683	0	correct_rejection	NA	0
1	Correct	160	646	1132	7	0	0	959636	683	0	correct_rejection	NA	0
1	Correct	161	647	1133	8	0	0	960352	684	0	correct_rejection	NA	0
1	Correct	162	648	1134	9	0	0	961069	683	0	correct_rejection	NA	0
1	Triplet	1	325	1135	6	0	0	967852	683	0	correct_rejection	NA	6028
1	Triplet	2	326	1136	5	0	0	968569	683	0	correct_rejection	NA	0
1	Triplet	3	327	1137	4	0	0	969285	684	0	correct_rejection	NA	0
1	Triplet	4	328	1138	6	0	0	970002	683	0	correct_rejection	NA	0
1	Triplet	5	329	1139	5	0	0	970719	683	0	correct_rejection	NA	0
1	Triplet	6	330	1140	4	0	0	971435	684	0	correct_rejection	NA	0
1	Triplet	7	331	1141	9	0	0	972152	683	0	correct_rejection	NA	0
1	Triplet	8	332	1142	8	0	0	972869	683	0	correct_rejection	NA	0
1	Triplet	9	333	1143	7	0	0	973585	684	0	correct_rejection	NA	0
1	Triplet	10	334	1144	9	0	0	974302	683	0	correct_rejection	NA	0
1	Triplet	11	335	1145	8	0	0	975019	683	0	correct_rejection	NA	0
1	Triplet	12	336	1146	7	0	0	975735	684	0	correct_rejection	NA	0
1	Triplet	13	337	1147	7	0	0	976452	683	0	correct_rejection	NA	0
1	Triplet	14	338	1148	0	1	1	977169	683	1	hit	440	0
1	Triplet	15	339	1149	8	0	0	977885	684	0	correct_rejection	NA	0
1	Triplet	16	340	1150	9	0	0	978602	683	0	correct_rejection	NA	0
1	Triplet	17	341	1151	9	0	0	979319	683	0	correct_rejection	NA	0
1	Triplet	18	342	1152	8	0	0	980035	684	0	correct_rejection	NA	0
1	Triplet	19	343	1153	7	0	0	980752	683	0	correct_rejection	NA	0
1	Triplet	20	344	1154	6	0	0	981469	683	0	correct_rejection	NA	0
1	Triplet	21	345	1155	5	0	0	982185	684	0	correct_rejection	NA	0
1	Triplet	22	346	1156	4	0	0	982902	683	0	correct_rejection	NA	0
1	Triplet	23	347	1157	7	0	0	983619	683	0	correct_rejection	NA	0
1	Triplet	24	348	1158	8	0	0	984335	684	0	correct_rejection	NA	0
1	Triplet	25	349	1159	9	0	0	985052	683	0	correct_rejection	NA	0
1	Triplet	26	350	1160	4	0	0	985769	683	0	correct_rejection	NA	0
1	Triplet	27	351	1161	5	0	0	986485	684	0	correct_rejection	NA	0
1	Triplet	28	352	1162	6	0	0	987202	683	0	correct_rejection	NA	0
1	Triplet	29	353	1163	6	0	0	987918	684	0	correct_rejection	NA	0
1	Triplet	30	354	1164	0	1	1	988635	683	1	hit	384	0
1	Triplet	31	355	1165	5	0	0	989352	683	0	correct_rejection	NA	0
1	Triplet	32	356	1166	4	0	0	990068	684	0	correct_rejection	NA	0
1	Triplet	33	357	1167	4	0	0	990785	683	0	correct_rejection	NA	0
1	Triplet	34	358	1168	5	0	0	991502	683	0	correct_rejection	NA	0
1	Triplet	35	359	1169	6	0	0	992218	684	0	correct_rejection	NA	0
1	Triplet	36	360	1170	9	0	0	992935	683	0	correct_rejection	NA	0
1	Triplet	37	361	1171	8	0	0	993652	683	0	correct_rejection	NA	0
1	Triplet	38	362	1172	7	0	0	994368	684	0	correct_rejection	NA	0
1	Triplet	39	363	1173	4	0	0	995085	683	0	correct_rejection	NA	0
1	Triplet	40	364	1174	5	0	0	995802	683	0	correct_rejection	NA	0
1	Triplet	41	365	1175	6	0	0	996518	684	0	correct_rejection	NA	0
1	Triplet	42	366	1176	4	0	0	997235	683	0	correct_rejection	NA	0
1	Triplet	43	367	1177	0	1	1	997952	683	1	hit	348	0
1	Triplet	44	368	1178	5	0	0	998668	684	0	correct_rejection	NA	0
1	Triplet	45	369	1179	6	0	0	999385	683	0	correct_rejection	NA	0
1	Triplet	46	370	1180	7	0	0	1000102	683	0	correct_rejection	NA	0
1	Triplet	47	371	1181	8	0	0	1000818	684	0	correct_rejection	NA	0
1	Triplet	48	372	1182	9	0	0	1001535	683	0	correct_rejection	NA	0
1	Triplet	49	373	1183	7	0	0	1002252	683	0	correct_rejection	NA	0
1	Triplet	50	374	1184	8	0	0	1002968	684	0	correct_rejection	NA	0
1	Triplet	51	375	1185	9	0	0	1003685	683	0	correct_rejection	NA	0
1	Triplet	52	376	1186	0	1	2	1004402	683	1	hit	377	0
1	Triplet	53	377	1187	6	0	0	1005118	684	0	correct_rejection	NA	0
1	Triplet	54	378	1188	5	0	0	1005835	683	0	correct_rejection	NA	0
1	Triplet	55	379	1189	4	0	0	1006552	683	0	correct_rejection	NA	0
1	Triplet	56	380	1190	0	1	2	1007268	684	1	hit	350	0
1	Triplet	57	381	1191	7	0	0	1007985	683	0	correct_rejection	NA	0
1	Triplet	58	382	1192	8	0	0	1008702	683	0	correct_rejection	NA	0
1	Triplet	59	383	1193	9	0	0	1009418	684	0	correct_rejection	NA	0
1	Triplet	60	384	1194	9	0	0	1010135	683	0	correct_rejection	NA	0
1	Triplet	61	385	1195	8	0	0	1010851	684	0	correct_rejection	NA	0
1	Triplet	62	386	1196	7	0	0	1011568	683	0	correct_rejection	NA	0
1	Triplet	63	387	1197	4	0	0	1012285	683	0	correct_rejection	NA	0
1	Triplet	64	388	1198	5	0	0	1013001	684	0	correct_rejection	NA	0
1	Triplet	65	389	1199	6	0	0	1013718	683	0	correct_rejection	NA	0
1	Triplet	66	390	1200	7	0	0	1014435	683	0	correct_rejection	NA	0
1	Triplet	67	391	1201	8	0	0	1015151	684	0	correct_rejection	NA	0
1	Triplet	68	392	1202	0	1	1	1015868	683	1	hit	356	0
1	Triplet	69	393	1203	9	0	0	1016585	683	0	correct_rejection	NA	0
1	Triplet	70	394	1204	4	0	0	1017301	684	0	correct_rejection	NA	0
1	Triplet	71	395	1205	5	0	0	1018018	683	0	correct_rejection	NA	0
1	Triplet	72	396	1206	0	1	1	1018735	683	1	hit	353	0
1	Triplet	73	397	1207	6	0	0	1019451	684	0	correct_rejection	NA	0
1	Triplet	74	398	1208	4	0	0	1020168	683	0	correct_rejection	NA	0
1	Triplet	75	399	1209	0	1	1	1020885	683	1	hit	352	0
1	Triplet	76	400	1210	5	0	0	1021601	684	0	correct_rejection	NA	0
1	Triplet	77	401	1211	6	0	0	1022318	683	0	correct_rejection	NA	0
1	Triplet	78	402	1212	9	0	0	1023035	683	0	correct_rejection	NA	0
1	Triplet	79	403	1213	0	1	1	1023751	684	1	hit	439	0
1	Triplet	80	404	1214	8	0	0	1024468	683	0	correct_rejection	NA	0
1	Triplet	81	405	1215	7	0	0	1025185	683	0	correct_rejection	NA	0
1	Triplet	82	406	1216	9	0	0	1025901	684	0	correct_rejection	NA	0
1	Triplet	83	407	1217	8	0	0	1026618	683	0	correct_rejection	NA	0
1	Triplet	84	408	1218	7	0	0	1027335	683	0	correct_rejection	NA	0
1	Triplet	85	409	1219	6	0	0	1028051	684	0	correct_rejection	NA	0
1	Triplet	86	410	1220	5	0	0	1028768	683	0	correct_rejection	NA	0
1	Triplet	87	411	1221	4	0	0	1029485	683	0	correct_rejection	NA	0
1	Triplet	88	412	1222	4	0	0	1030201	684	0	correct_rejection	NA	0
1	Triplet	89	413	1223	5	0	0	1030918	683	0	correct_rejection	NA	0
1	Triplet	90	414	1224	6	0	0	1031635	683	0	correct_rejection	NA	0
1	Triplet	91	415	1225	6	0	0	1032351	684	0	correct_rejection	NA	0
1	Triplet	92	416	1226	5	0	0	1033068	683	0	correct_rejection	NA	0
1	Triplet	93	417	1227	4	0	0	1033784	684	0	correct_rejection	NA	0
1	Triplet	94	418	1228	9	0	0	1034501	683	0	correct_rejection	NA	0
1	Triplet	95	419	1229	8	0	0	1035218	683	0	correct_rejection	NA	0
1	Triplet	96	420	1230	7	0	0	1035934	684	0	correct_rejection	NA	0
1	Triplet	97	421	1231	0	1	2	1036651	683	1	hit	314	0
1	Triplet	98	422	1232	7	0	0	1037368	683	0	correct_rejection	NA	0
1	Triplet	99	423	1233	8	0	0	1038084	684	0	correct_rejection	NA	0
1	Triplet	100	424	1234	9	0	0	1038801	683	0	correct_rejection	NA	0
1	Triplet	101	425	1235	7	0	0	1039518	683	0	correct_rejection	NA	0
1	Triplet	102	426	1236	8	0	0	1040234	684	0	correct_rejection	NA	0
1	Triplet	103	427	1237	9	0	0	1040951	683	0	correct_rejection	NA	0
1	Triplet	104	428	1238	6	0	0	1041668	683	0	correct_rejection	NA	0
1	Triplet	105	429	1239	5	0	0	1042384	684	0	correct_rejection	NA	0
1	Triplet	106	430	1240	4	0	0	1043101	683	0	correct_rejection	NA	0
1	Triplet	107	431	1241	0	1	2	1043818	683	1	hit	348	0
1	Triplet	108	432	1242	6	0	0	1044534	684	0	correct_rejection	NA	0
1	Triplet	109	433	1243	5	0	0	1045251	683	0	correct_rejection	NA	0
1	Triplet	110	434	1244	0	1	1	1045968	683	0	miss	NA	0
1	Triplet	111	435	1245	4	0	0	1046684	684	0	correct_rejection	NA	0
1	Triplet	112	436	1246	9	0	0	1047401	683	0	correct_rejection	NA	0
1	Triplet	113	437	1247	8	0	0	1048118	683	0	correct_rejection	NA	0
1	Triplet	114	438	1248	7	0	0	1048834	684	0	correct_rejection	NA	0
1	Triplet	115	439	1249	4	0	0	1049551	683	0	correct_rejection	NA	0
1	Triplet	116	440	1250	5	0	0	1050268	683	0	correct_rejection	NA	0
1	Triplet	117	441	1251	6	0	0	1050984	684	0	correct_rejection	NA	0
1	Triplet	118	442	1252	9	0	0	1051701	683	0	correct_rejection	NA	0
1	Triplet	119	443	1253	8	0	0	1052418	683	0	correct_rejection	NA	0
1	Triplet	120	444	1254	7	0	0	1053134	684	0	correct_rejection	NA	0
1	Triplet	121	445	1255	7	0	0	1053851	683	0	correct_rejection	NA	0
1	Triplet	122	446	1256	8	0	0	1054568	683	0	correct_rejection	NA	0
1	Triplet	123	447	1257	9	0	0	1055284	684	0	correct_rejection	NA	0
1	Triplet	124	448	1258	6	0	0	1056001	683	0	correct_rejection	NA	0
1	Triplet	125	449	1259	5	0	0	1056717	684	0	correct_rejection	NA	0
1	Triplet	126	450	1260	4	0	0	1057434	683	0	correct_rejection	NA	0
1	Triplet	127	451	1261	4	0	0	1058151	683	0	correct_rejection	NA	0
1	Triplet	128	452	1262	0	1	1	1058867	684	1	hit	522	0
1	Triplet	129	453	1263	5	0	0	1059584	683	0	correct_rejection	NA	0
1	Triplet	130	454	1264	6	0	0	1060301	683	0	correct_rejection	NA	0
1	Triplet	131	455	1265	0	1	2	1061017	684	1	hit	356	0
1	Triplet	132	456	1266	4	0	0	1061734	683	0	correct_rejection	NA	0
1	Triplet	133	457	1267	5	0	0	1062451	683	0	correct_rejection	NA	0
1	Triplet	134	458	1268	6	0	0	1063167	684	0	correct_rejection	NA	0
1	Triplet	135	459	1269	6	0	0	1063884	683	0	correct_rejection	NA	0
1	Triplet	136	460	1270	5	0	0	1064601	683	0	correct_rejection	NA	0
1	Triplet	137	461	1271	4	0	0	1065317	684	0	correct_rejection	NA	0
1	Triplet	138	462	1272	6	0	0	1066034	683	0	correct_rejection	NA	0
1	Triplet	139	463	1273	5	0	0	1066751	683	0	correct_rejection	NA	0
1	Triplet	140	464	1274	0	1	1	1067467	684	1	hit	347	0
1	Triplet	141	465	1275	4	0	0	1068184	683	0	correct_rejection	NA	0
1	Triplet	142	466	1276	7	0	0	1068901	683	0	correct_rejection	NA	0
1	Triplet	143	467	1277	8	0	0	1069617	684	0	correct_rejection	NA	0
1	Triplet	144	468	1278	9	0	0	1070334	683	0	correct_rejection	NA	0
1	Triplet	145	469	1279	7	0	0	1071051	683	0	correct_rejection	NA	0
1	Triplet	146	470	1280	8	0	0	1071767	684	1	false_alarm	322	0
1	Triplet	147	471	1281	9	0	0	1072484	683	0	correct_rejection	NA	0
1	Triplet	148	472	1282	4	0	0	1073201	683	0	correct_rejection	NA	0
1	Triplet	149	473	1283	5	0	0	1073917	684	0	correct_rejection	NA	0
1	Triplet	150	474	1284	6	0	0	1074634	683	0	correct_rejection	NA	0
1	Triplet	151	475	1285	0	1	2	1075351	683	1	hit	312	0
1	Triplet	152	476	1286	7	0	0	1076067	684	0	correct_rejection	NA	0
1	Triplet	153	477	1287	8	0	0	1076784	683	0	correct_rejection	NA	0
1	Triplet	154	478	1288	0	1	1	1077501	683	1	hit	308	0
1	Triplet	155	479	1289	9	0	0	1078217	684	0	correct_rejection	NA	0
1	Triplet	156	480	1290	9	0	0	1078934	683	0	correct_rejection	NA	0
1	Triplet	157	481	1291	8	0	0	1079650	684	0	correct_rejection	NA	0
1	Triplet	158	482	1292	7	0	0	1080367	683	0	correct_rejection	NA	0
1	Triplet	159	483	1293	9	0	0	1081084	683	0	correct_rejection	NA	0
1	Triplet	160	484	1294	0	1	1	1081800	684	1	hit	329	0
1	Triplet	161	485	1295	8	0	0	1082517	683	0	correct_rejection	NA	0
1	Triplet	162	486	1296	7	0	0	1083234	683	0	correct_rejection	NA	0
1	Single	1	649	1297	8	0	0	1093167	683	0	correct_rejection	NA	9170
1	Single	2	650	1298	9	0	0	1093884	683	0	correct_rejection	NA	0
1	Single	3	651	1299	8	0	0	1094600	684	0	correct_rejection	NA	0
1	Single	4	652	1300	5	0	0	1095317	683	0	correct_rejection	NA	0
1	Single	5	653	1301	4	0	0	1096034	683	0	correct_rejection	NA	0
1	Single	6	654	1302	4	0	0	1096750	684	0	correct_rejection	NA	0
1	Single	7	655	1303	9	0	0	1097467	683	0	correct_rejection	NA	0
1	Single	8	656	1304	9	0	0	1098184	683	0	correct_rejection	NA	0
1	Single	9	657	1305	4	0	0	1098900	684	0	correct_rejection	NA	0
1	Single	10	658	1306	7	0	0	1099617	683	0	correct_rejection	NA	0
1	Single	11	659	1307	4	0	0	1100334	683	0	correct_rejection	NA	0
1	Single	12	660	1308	5	0	0	1101050	684	0	correct_rejection	NA	0
1	Single	13	661	1309	7	0	0	1101767	683	0	correct_rejection	NA	0
1	Single	14	662	1310	6	0	0	1102483	684	0	correct_rejection	NA	0
1	Single	15	663	1311	8	0	0	1103200	684	0	correct_rejection	NA	0
1	Single	16	664	1312	7	0	0	1103917	683	0	correct_rejection	NA	0
1	Single	17	665	1313	5	0	0	1104633	684	0	correct_rejection	NA	0
1	Single	18	666	1314	5	0	0	1105350	683	0	correct_rejection	NA	0
1	Single	19	667	1315	9	0	0	1106067	683	0	correct_rejection	NA	0
1	Single	20	668	1316	5	0	0	1106783	684	0	correct_rejection	NA	0
1	Single	21	669	1317	0	1	1	1107500	683	1	hit	407	0
1	Single	22	670	1318	8	0	0	1108217	683	0	correct_rejection	NA	0
1	Single	23	671	1319	6	0	0	1108933	684	0	correct_rejection	NA	0
1	Single	24	672	1320	5	0	0	1109650	683	0	correct_rejection	NA	0
1	Single	25	673	1321	6	0	0	1110367	683	0	correct_rejection	NA	0
1	Single	26	674	1322	6	0	0	1111083	684	0	correct_rejection	NA	0
1	Single	27	675	1323	7	0	0	1111800	683	0	correct_rejection	NA	0
1	Single	28	676	1324	9	0	0	1112517	683	0	correct_rejection	NA	0
1	Single	29	677	1325	6	0	0	1113233	684	0	correct_rejection	NA	0
1	Single	30	678	1326	9	0	0	1113950	683	0	correct_rejection	NA	0
1	Single	31	679	1327	7	0	0	1114667	683	0	correct_rejection	NA	0
1	Single	32	680	1328	7	0	0	1115383	684	0	correct_rejection	NA	0
1	Single	33	681	1329	0	1	1	1116100	683	1	hit	372	0
1	Single	34	682	1330	8	0	0	1116817	683	0	correct_rejection	NA	0
1	Single	35	683	1331	8	0	0	1117533	684	0	correct_rejection	NA	0
1	Single	36	684	1332	4	0	0	1118250	683	0	correct_rejection	NA	0
1	Single	37	685	1333	6	0	0	1118967	683	0	correct_rejection	NA	0
1	Single	38	686	1334	4	0	0	1119683	684	0	correct_rejection	NA	0
1	Single	39	687	1335	7	0	0	1120400	683	0	correct_rejection	NA	0
1	Single	40	688	1336	9	0	0	1121117	683	0	correct_rejection	NA	0
1	Single	41	689	1337	5	0	0	1121833	684	0	correct_rejection	NA	0
1	Single	42	690	1338	9	0	0	1122550	683	0	correct_rejection	NA	0
1	Single	43	691	1339	4	0	0	1123267	683	0	correct_rejection	NA	0
1	Single	44	692	1340	8	0	0	1123983	684	0	correct_rejection	NA	0
1	Single	45	693	1341	4	0	0	1124700	683	0	correct_rejection	NA	0
1	Single	46	694	1342	9	0	0	1125416	684	0	correct_rejection	NA	0
1	Single	47	695	1343	7	0	0	1126133	683	0	correct_rejection	NA	0
1	Single	48	696	1344	8	0	0	1126850	683	0	correct_rejection	NA	0
1	Single	49	697	1345	9	0	0	1127566	684	0	correct_rejection	NA	0
1	Single	50	698	1346	6	0	0	1128283	683	0	correct_rejection	NA	0
1	Single	51	699	1347	8	0	0	1129000	683	0	correct_rejection	NA	0
1	Single	52	700	1348	8	0	0	1129716	684	0	correct_rejection	NA	0
1	Single	53	701	1349	5	0	0	1130433	683	0	correct_rejection	NA	0
1	Single	54	702	1350	8	0	0	1131150	683	0	correct_rejection	NA	0
1	Single	55	703	1351	7	0	0	1131866	684	0	correct_rejection	NA	0
1	Single	56	704	1352	7	0	0	1132583	683	0	correct_rejection	NA	0
1	Single	57	705	1353	4	0	0	1133300	683	0	correct_rejection	NA	0
1	Single	58	706	1354	0	1	1	1134016	684	1	hit	359	0
1	Single	59	707	1355	4	0	0	1134733	683	0	correct_rejection	NA	0
1	Single	60	708	1356	6	0	0	1135450	683	0	correct_rejection	NA	0
1	Single	61	709	1357	5	0	0	1136166	684	0	correct_rejection	NA	0
1	Single	62	710	1358	4	0	0	1136883	683	0	correct_rejection	NA	0
1	Single	63	711	1359	7	0	0	1137600	683	0	correct_rejection	NA	0
1	Single	64	712	1360	6	0	0	1138316	684	0	correct_rejection	NA	0
1	Single	65	713	1361	6	0	0	1139033	683	0	correct_rejection	NA	0
1	Single	66	714	1362	9	0	0	1139750	683	0	correct_rejection	NA	0
1	Single	67	715	1363	0	1	1	1140466	684	1	hit	371	0
1	Single	68	716	1364	9	0	0	1141183	683	0	correct_rejection	NA	0
1	Single	69	717	1365	8	0	0	1141900	683	0	correct_rejection	NA	0
1	Single	70	718	1366	0	1	1	1142616	684	1	hit	377	0
1	Single	71	719	1367	6	0	0	1143333	683	0	correct_rejection	NA	0
1	Single	72	720	1368	4	0	0	1144050	683	0	correct_rejection	NA	0
1	Single	73	721	1369	5	0	0	1144766	684	0	correct_rejection	NA	0
1	Single	74	722	1370	5	0	0	1145483	683	0	correct_rejection	NA	0
1	Single	75	723	1371	0	1	1	1146200	683	1	hit	325	0
1	Single	76	724	1372	6	0	0	1146916	684	0	correct_rejection	NA	0
1	Single	77	725	1373	7	0	0	1147633	683	0	correct_rejection	NA	0
1	Single	78	726	1374	0	1	1	1148349	684	1	hit	310	0
1	Single	79	727	1375	5	0	0	1149066	684	0	correct_rejection	NA	0
1	Single	80	728	1376	5	0	0	1149783	683	0	correct_rejection	NA	0
1	Single	81	729	1377	4	0	0	1150499	684	0	correct_rejection	NA	0
1	Single	82	730	1378	0	1	1	1151216	683	1	hit	326	0
1	Single	83	731	1379	9	0	0	1151933	683	0	correct_rejection	NA	0
1	Single	84	732	1380	5	0	0	1152649	684	0	correct_rejection	NA	0
1	Single	85	733	1381	6	0	0	1153366	683	0	correct_rejection	NA	0
1	Single	86	734	1382	4	0	0	1154083	683	0	correct_rejection	NA	0
1	Single	87	735	1383	0	1	1	1154799	684	1	hit	345	0
1	Single	88	736	1384	7	0	0	1155516	683	0	correct_rejection	NA	0
1	Single	89	737	1385	9	0	0	1156233	683	0	correct_rejection	NA	0
1	Single	90	738	1386	8	0	0	1156949	684	0	correct_rejection	NA	0
1	Single	91	739	1387	8	0	0	1157666	683	0	correct_rejection	NA	0
1	Single	92	740	1388	7	0	0	1158383	683	0	correct_rejection	NA	0
1	Single	93	741	1389	8	0	0	1159099	684	0	correct_rejection	NA	0
1	Single	94	742	1390	0	1	1	1159816	683	1	hit	360	0
1	Single	95	743	1391	4	0	0	1160533	683	0	correct_rejection	NA	0
1	Single	96	744	1392	8	0	0	1161249	684	0	correct_rejection	NA	0
1	Single	97	745	1393	5	0	0	1161966	683	0	correct_rejection	NA	0
1	Single	98	746	1394	5	0	0	1162683	683	0	correct_rejection	NA	0
1	Single	99	747	1395	8	0	0	1163399	684	0	correct_rejection	NA	0
1	Single	100	748	1396	9	0	0	1164116	683	0	correct_rejection	NA	0
1	Single	101	749	1397	4	0	0	1164833	683	0	correct_rejection	NA	0
1	Single	102	750	1398	4	0	0	1165549	684	0	correct_rejection	NA	0
1	Single	103	751	1399	0	1	1	1166266	683	1	hit	349	0
1	Single	104	752	1400	5	0	0	1166983	683	0	correct_rejection	NA	0
1	Single	105	753	1401	9	0	0	1167699	684	0	correct_rejection	NA	0
1	Single	106	754	1402	9	0	0	1168416	683	0	correct_rejection	NA	0
1	Single	107	755	1403	7	0	0	1169132	684	0	correct_rejection	NA	0
1	Single	108	756	1404	6	0	0	1169849	684	0	correct_rejection	NA	0
1	Single	109	757	1405	7	0	0	1170566	683	0	correct_rejection	NA	0
1	Single	110	758	1406	7	0	0	1171282	684	0	correct_rejection	NA	0
1	Single	111	759	1407	5	0	0	1171999	683	0	correct_rejection	NA	0
1	Single	112	760	1408	0	1	1	1172716	683	1	hit	351	0
1	Single	113	761	1409	7	0	0	1173432	684	0	correct_rejection	NA	0
1	Single	114	762	1410	4	0	0	1174149	683	0	correct_rejection	NA	0
1	Single	115	763	1411	6	0	0	1174866	683	0	correct_rejection	NA	0
1	Single	116	764	1412	9	0	0	1175582	684	0	correct_rejection	NA	0
1	Single	117	765	1413	6	0	0	1176299	683	0	correct_rejection	NA	0
1	Single	118	766	1414	6	0	0	1177016	683	0	correct_rejection	NA	0
1	Single	119	767	1415	8	0	0	1177732	684	0	correct_rejection	NA	0
1	Single	120	768	1416	6	0	0	1178449	683	0	correct_rejection	NA	0
1	Single	121	769	1417	0	1	1	1179166	683	1	hit	370	0
1	Single	122	770	1418	7	0	0	1179882	684	0	correct_rejection	NA	0
1	Single	123	771	1419	7	0	0	1180599	683	0	correct_rejection	NA	0
1	Single	124	772	1420	8	0	0	1181316	683	0	correct_rejection	NA	0
1	Single	125	773	1421	7	0	0	1182032	684	0	correct_rejection	NA	0
1	Single	126	774	1422	6	0	0	1182749	683	0	correct_rejection	NA	0
1	Single	127	775	1423	9	0	0	1183466	683	0	correct_rejection	NA	0
1	Single	128	776	1424	7	0	0	1184182	684	0	correct_rejection	NA	0
1	Single	129	777	1425	0	1	1	1184899	683	1	hit	366	0
1	Single	130	778	1426	4	0	0	1185616	683	0	correct_rejection	NA	0
1	Single	131	779	1427	9	0	0	1186332	684	0	correct_rejection	NA	0
1	Single	132	780	1428	6	0	0	1187049	683	0	correct_rejection	NA	0
1	Single	133	781	1429	5	0	0	1187766	683	0	correct_rejection	NA	0
1	Single	134	782	1430	6	0	0	1188482	684	0	correct_rejection	NA	0
1	Single	135	783	1431	0	1	1	1189199	683	1	hit	365	0
1	Single	136	784	1432	6	0	0	1189916	683	0	correct_rejection	NA	0
1	Single	137	785	1433	7	0	0	1190632	684	0	correct_rejection	NA	0
1	Single	138	786	1434	9	0	0	1191349	683	0	correct_rejection	NA	0
1	Single	139	787	1435	9	0	0	1192066	683	0	correct_rejection	NA	0
1	Single	140	788	1436	4	0	0	1192782	684	0	correct_rejection	NA	0
1	Single	141	789	1437	5	0	0	1193499	683	0	correct_rejection	NA	0
1	Single	142	790	1438	8	0	0	1194215	684	0	correct_rejection	NA	0
1	Single	143	791	1439	6	0	0	1194932	683	0	correct_rejection	NA	0
1	Single	144	792	1440	8	0	0	1195649	683	0	correct_rejection	NA	0
1	Single	145	793	1441	9	0	0	1196365	684	0	correct_rejection	NA	0
1	Single	146	794	1442	5	0	0	1197082	683	0	correct_rejection	NA	0
1	Single	147	795	1443	7	0	0	1197799	683	0	correct_rejection	NA	0
1	Single	148	796	1444	5	0	0	1198515	684	0	correct_rejection	NA	0
1	Single	149	797	1445	5	0	0	1199232	683	0	correct_rejection	NA	0
1	Single	150	798	1446	9	0	0	1199949	683	0	correct_rejection	NA	0
1	Single	151	799	1447	8	0	0	1200665	684	0	correct_rejection	NA	0
1	Single	152	800	1448	0	1	1	1201382	683	1	hit	392	0
1	Single	153	801	1449	5	0	0	1202099	683	0	correct_rejection	NA	0
1	Single	154	802	1450	4	0	0	1202815	684	0	correct_rejection	NA	0
1	Single	155	803	1451	6	0	0	1203532	683	0	correct_rejection	NA	0
1	Single	156	804	1452	0	1	1	1204249	683	1	hit	388	0
1	Single	157	805	1453	4	0	0	1204965	684	0	correct_rejection	NA	0
1	Single	158	806	1454	4	0	0	1205682	683	0	correct_rejection	NA	0
1	Single	159	807	1455	8	0	0	1206399	683	0	correct_rejection	NA	0
1	Single	160	808	1456	0	1	1	1207115	684	1	hit	370	0
1	Single	161	809	1457	8	0	0	1207832	683	0	correct_rejection	NA	0
1	Single	162	810	1458	4	0	0	1208549	683	0	correct_rejection	NA	0
1	Triplet	1	1	1459	9	0	0	1216915	684	0	correct_rejection	NA	7611
1	Triplet	2	2	1460	8	0	0	1217632	683	0	correct_rejection	NA	0
1	Triplet	3	3	1461	7	0	0	1218348	684	0	correct_rejection	NA	0
1	Triplet	4	4	1462	6	0	0	1219065	683	0	correct_rejection	NA	0
1	Triplet	5	5	1463	5	0	0	1219782	683	0	correct_rejection	NA	0
1	Triplet	6	6	1464	4	0	0	1220498	684	0	correct_rejection	NA	0
1	Triplet	7	7	1465	7	0	0	1221215	683	0	correct_rejection	NA	0
1	Triplet	8	8	1466	8	0	0	1221932	683	0	correct_rejection	NA	0
1	Triplet	9	9	1467	9	0	0	1222648	684	0	correct_rejection	NA	0
1	Triplet	10	10	1468	7	0	0	1223365	683	0	correct_rejection	NA	0
1	Triplet	11	11	1469	8	0	0	1224082	683	0	correct_rejection	NA	0
1	Triplet	12	12	1470	9	0	0	1224798	684	0	correct_rejection	NA	0
1	Triplet	13	13	1471	0	1	2	1225515	683	1	hit	358	0
1	Triplet	14	14	1472	4	0	0	1226232	683	0	correct_rejection	NA	0
1	Triplet	15	15	1473	5	0	0	1226948	684	0	correct_rejection	NA	0
1	Triplet	16	16	1474	0	1	1	1227665	683	1	hit	441	0
1	Triplet	17	17	1475	6	0	0	1228382	683	0	correct_rejection	NA	0
1	Triplet	18	18	1476	6	0	0	1229098	684	0	correct_rejection	NA	0
1	Triplet	19	19	1477	0	1	1	1229815	683	1	hit	484	0
1	Triplet	20	20	1478	5	0	0	1230532	683	0	correct_rejection	NA	0
1	Triplet	21	21	1479	4	0	0	1231248	684	0	correct_rejection	NA	0
1	Triplet	22	22	1480	4	0	0	1231965	683	0	correct_rejection	NA	0
1	Triplet	23	23	1481	5	0	0	1232682	683	0	correct_rejection	NA	0
1	Triplet	24	24	1482	6	0	0	1233398	684	0	correct_rejection	NA	0
1	Triplet	25	25	1483	0	1	2	1234115	683	1	hit	387	0
1	Triplet	26	26	1484	7	0	0	1234832	683	0	correct_rejection	NA	0
1	Triplet	27	27	1485	8	0	0	1235548	684	0	correct_rejection	NA	0
1	Triplet	28	28	1486	9	0	0	1236265	683	0	correct_rejection	NA	0
1	Triplet	29	29	1487	9	0	0	1236982	683	0	correct_rejection	NA	0
1	Triplet	30	30	1488	8	0	0	1237698	684	0	correct_rejection	NA	0
1	Triplet	31	31	1489	7	0	0	1238415	683	0	correct_rejection	NA	0
1	Triplet	32	32	1490	7	0	0	1239131	684	0	correct_rejection	NA	0
1	Triplet	33	33	1491	8	0	0	1239848	684	0	correct_rejection	NA	0
1	Triplet	34	34	1492	9	0	0	1240565	683	0	correct_rejection	NA	0
1	Triplet	35	35	1493	6	0	0	1241281	684	0	correct_rejection	NA	0
1	Triplet	36	36	1494	5	0	0	1241998	683	0	correct_rejection	NA	0
1	Triplet	37	37	1495	4	0	0	1242715	683	0	correct_rejection	NA	0
1	Triplet	38	38	1496	6	0	0	1243431	684	0	correct_rejection	NA	0
1	Triplet	39	39	1497	5	0	0	1244148	683	0	correct_rejection	NA	0
1	Triplet	40	40	1498	4	0	0	1244865	683	0	correct_rejection	NA	0
1	Triplet	41	41	1499	9	0	0	1245581	684	0	correct_rejection	NA	0
1	Triplet	42	42	1500	8	0	0	1246298	683	0	correct_rejection	NA	0
1	Triplet	43	43	1501	7	0	0	1247015	683	0	correct_rejection	NA	0
1	Triplet	44	44	1502	9	0	0	1247731	684	0	correct_rejection	NA	0
1	Triplet	45	45	1503	8	0	0	1248448	683	0	correct_rejection	NA	0
1	Triplet	46	46	1504	7	0	0	1249165	683	0	correct_rejection	NA	0
1	Triplet	47	47	1505	0	1	2	1249881	684	1	hit	360	0
1	Triplet	48	48	1506	4	0	0	1250598	683	0	correct_rejection	NA	0
1	Triplet	49	49	1507	5	0	0	1251315	683	0	correct_rejection	NA	0
1	Triplet	50	50	1508	0	1	1	1252031	684	1	hit	464	0
1	Triplet	51	51	1509	6	0	0	1252748	683	0	correct_rejection	NA	0
1	Triplet	52	52	1510	4	0	0	1253465	683	0	correct_rejection	NA	0
1	Triplet	53	53	1511	5	0	0	1254181	684	0	correct_rejection	NA	0
1	Triplet	54	54	1512	6	0	0	1254898	683	0	correct_rejection	NA	0
1	Triplet	55	55	1513	9	0	0	1255615	683	0	correct_rejection	NA	0
1	Triplet	56	56	1514	8	0	0	1256331	684	0	correct_rejection	NA	0
1	Triplet	57	57	1515	7	0	0	1257048	683	0	correct_rejection	NA	0
1	Triplet	58	58	1516	4	0	0	1257765	683	0	correct_rejection	NA	0
1	Triplet	59	59	1517	5	0	0	1258481	684	0	correct_rejection	NA	0
1	Triplet	60	60	1518	6	0	0	1259198	683	0	correct_rejection	NA	0
1	Triplet	61	61	1519	0	1	2	1259915	683	1	hit	360	0
1	Triplet	62	62	1520	6	0	0	1260631	684	0	correct_rejection	NA	0
1	Triplet	63	63	1521	5	0	0	1261348	683	0	correct_rejection	NA	0
1	Triplet	64	64	1522	0	1	1	1262064	684	1	hit	374	0
1	Triplet	65	65	1523	4	0	0	1262781	684	0	correct_rejection	NA	0
1	Triplet	66	66	1524	6	0	0	1263498	683	0	correct_rejection	NA	0
1	Triplet	67	67	1525	5	0	0	1264214	684	0	correct_rejection	NA	0
1	Triplet	68	68	1526	4	0	0	1264931	683	0	correct_rejection	NA	0
1	Triplet	69	69	1527	0	1	2	1265648	683	1	hit	362	0
1	Triplet	70	70	1528	7	0	0	1266364	684	0	correct_rejection	NA	0
1	Triplet	71	71	1529	8	0	0	1267081	683	0	correct_rejection	NA	0
1	Triplet	72	72	1530	0	1	1	1267798	683	1	hit	334	0
1	Triplet	73	73	1531	9	0	0	1268514	684	0	correct_rejection	NA	0
1	Triplet	74	74	1532	4	0	0	1269231	683	0	correct_rejection	NA	0
1	Triplet	75	75	1533	0	1	1	1269948	683	1	hit	409	0
1	Triplet	76	76	1534	5	0	0	1270664	684	0	correct_rejection	NA	0
1	Triplet	77	77	1535	6	0	0	1271381	683	0	correct_rejection	NA	0
1	Triplet	78	78	1536	9	0	0	1272098	683	0	correct_rejection	NA	0
1	Triplet	79	79	1537	8	0	0	1272814	684	0	correct_rejection	NA	0
1	Triplet	80	80	1538	7	0	0	1273531	683	0	correct_rejection	NA	0
1	Triplet	81	81	1539	7	0	0	1274248	683	0	correct_rejection	NA	0
1	Triplet	82	82	1540	8	0	0	1274964	684	0	correct_rejection	NA	0
1	Triplet	83	83	1541	9	0	0	1275681	683	0	correct_rejection	NA	0
1	Triplet	84	84	1542	0	1	2	1276398	683	1	hit	311	0
1	Triplet	85	85	1543	9	0	0	1277114	684	0	correct_rejection	NA	0
1	Triplet	86	86	1544	8	0	0	1277831	683	0	correct_rejection	NA	0
1	Triplet	87	87	1545	7	0	0	1278548	683	0	correct_rejection	NA	0
1	Triplet	88	88	1546	6	0	0	1279264	684	0	correct_rejection	NA	0
1	Triplet	89	89	1547	5	0	0	1279981	683	0	correct_rejection	NA	0
1	Triplet	90	90	1548	4	0	0	1280698	683	0	correct_rejection	NA	0
1	Triplet	91	91	1549	4	0	0	1281414	684	0	correct_rejection	NA	0
1	Triplet	92	92	1550	5	0	0	1282131	683	0	correct_rejection	NA	0
1	Triplet	93	93	1551	6	0	0	1282848	683	0	correct_rejection	NA	0
1	Triplet	94	94	1552	4	0	0	1283564	684	0	correct_rejection	NA	0
1	Triplet	95	95	1553	0	1	1	1284281	683	1	hit	369	0
1	Triplet	96	96	1554	5	0	0	1284997	684	0	correct_rejection	NA	0
1	Triplet	97	97	1555	6	0	0	1285714	684	0	correct_rejection	NA	0
1	Triplet	98	98	1556	7	0	0	1286431	683	0	correct_rejection	NA	0
1	Triplet	99	99	1557	8	0	0	1287147	684	0	correct_rejection	NA	0
1	Triplet	100	100	1558	9	0	0	1287864	683	0	correct_rejection	NA	0
1	Triplet	101	101	1559	7	0	0	1288581	683	0	correct_rejection	NA	0
1	Triplet	102	102	1560	8	0	0	1289297	684	0	correct_rejection	NA	0
1	Triplet	103	103	1561	9	0	0	1290014	683	0	correct_rejection	NA	0
1	Triplet	104	104	1562	6	0	0	1290731	683	0	correct_rejection	NA	0
1	Triplet	105	105	1563	5	0	0	1291447	684	0	correct_rejection	NA	0
1	Triplet	106	106	1564	4	0	0	1292164	683	0	correct_rejection	NA	0
1	Triplet	107	107	1565	9	0	0	1292881	683	0	correct_rejection	NA	0
1	Triplet	108	108	1566	8	0	0	1293597	684	0	correct_rejection	NA	0
1	Triplet	109	109	1567	0	1	1	1294314	683	1	hit	371	0
1	Triplet	110	110	1568	7	0	0	1295031	683	0	correct_rejection	NA	0
1	Triplet	111	111	1569	7	0	0	1295747	684	0	correct_rejection	NA	0
1	Triplet	112	112	1570	8	0	0	1296464	683	0	correct_rejection	NA	0
1	Triplet	113	113	1571	9	0	0	1297181	683	0	correct_rejection	NA	0
1	Triplet	114	114	1572	4	0	0	1297897	684	0	correct_rejection	NA	0
1	Triplet	115	115	1573	5	0	0	1298614	683	0	correct_rejection	NA	0
1	Triplet	116	116	1574	6	0	0	1299331	683	0	correct_rejection	NA	0
1	Triplet	117	117	1575	4	0	0	1300047	684	0	correct_rejection	NA	0
1	Triplet	118	118	1576	5	0	0	1300764	683	0	correct_rejection	NA	0
1	Triplet	119	119	1577	6	0	0	1301481	683	0	correct_rejection	NA	0
1	Triplet	120	120	1578	0	1	2	1302197	684	1	hit	410	0
1	Triplet	121	121	1579	9	0	0	1302914	683	0	correct_rejection	NA	0
1	Triplet	122	122	1580	8	0	0	1303631	683	0	correct_rejection	NA	0
1	Triplet	123	123	1581	7	0	0	1304347	684	0	correct_rejection	NA	0
1	Triplet	124	124	1582	4	0	0	1305064	683	0	correct_rejection	NA	0
1	Triplet	125	125	1583	5	0	0	1305781	683	0	correct_rejection	NA	0
1	Triplet	126	126	1584	6	0	0	1306497	684	0	correct_rejection	NA	0
1	Triplet	127	127	1585	7	0	0	1307214	683	0	correct_rejection	NA	0
1	Triplet	128	128	1586	8	0	0	1307930	684	0	correct_rejection	NA	0
1	Triplet	129	129	1587	0	1	1	1308647	684	1	hit	375	0
1	Triplet	130	130	1588	9	0	0	1309364	683	0	correct_rejection	NA	0
1	Triplet	131	131	1589	6	0	0	1310080	684	0	correct_rejection	NA	0
1	Triplet	132	132	1590	5	0	0	1310797	683	0	correct_rejection	NA	0
1	Triplet	133	133	1591	4	0	0	1311514	683	0	correct_rejection	NA	0
1	Triplet	134	134	1592	0	1	2	1312230	684	1	hit	437	0
1	Triplet	135	135	1593	4	0	0	1312947	683	0	correct_rejection	NA	0
1	Triplet	136	136	1594	5	0	0	1313664	683	0	correct_rejection	NA	0
1	Triplet	137	137	1595	6	0	0	1314380	684	0	correct_rejection	NA	0
1	Triplet	138	138	1596	6	0	0	1315097	683	0	correct_rejection	NA	0
1	Triplet	139	139	1597	5	0	0	1315814	683	0	correct_rejection	NA	0
1	Triplet	140	140	1598	4	0	0	1316530	684	0	correct_rejection	NA	0
1	Triplet	141	141	1599	9	0	0	1317247	683	0	correct_rejection	NA	0
1	Triplet	142	142	1600	8	0	0	1317964	683	0	correct_rejection	NA	0
1	Triplet	143	143	1601	7	0	0	1318680	684	0	correct_rejection	NA	0
1	Triplet	144	144	1602	7	0	0	1319397	683	0	correct_rejection	NA	0
1	Triplet	145	145	1603	8	0	0	1320114	683	0	correct_rejection	NA	0
1	Triplet	146	146	1604	9	0	0	1320830	684	0	correct_rejection	NA	0
1	Triplet	147	147	1605	7	0	0	1321547	683	0	correct_rejection	NA	0
1	Triplet	148	148	1606	8	0	0	1322264	683	0	correct_rejection	NA	0
1	Triplet	149	149	1607	9	0	0	1322980	684	0	correct_rejection	NA	0
1	Triplet	150	150	1608	9	0	0	1323697	683	0	correct_rejection	NA	0
1	Triplet	151	151	1609	0	1	1	1324414	683	1	hit	364	0
1	Triplet	152	152	1610	8	0	0	1325130	684	0	correct_rejection	NA	0
1	Triplet	153	153	1611	7	0	0	1325847	683	0	correct_rejection	NA	0
1	Triplet	154	154	1612	9	0	0	1326564	683	0	correct_rejection	NA	0
1	Triplet	155	155	1613	8	0	0	1327280	684	0	correct_rejection	NA	0
1	Triplet	156	156	1614	7	0	0	1327997	683	0	correct_rejection	NA	0
1	Triplet	157	157	1615	6	0	0	1328714	683	0	correct_rejection	NA	0
1	Triplet	158	158	1616	5	0	0	1329430	684	0	correct_rejection	NA	0
1	Triplet	159	159	1617	4	0	0	1330147	683	0	correct_rejection	NA	0
1	Triplet	160	160	1618	6	0	0	1330863	684	0	correct_rejection	NA	0
1	Triplet	161	161	1619	5	0	0	1331580	684	0	correct_rejection	NA	0
1	Triplet	162	162	1620	4	0	0	1332297	683	0	correct_rejection	NA	0
trigger nr 1249 at 1332172
trigger nr 1262 at 1421930
