ID	block	trial_block	trial_cat	trial_total	number	violation	level_violation	onset	duration	Response	Hit_Miss	RT	pre_trial_fixcross_ISI
first_trigger_at: 11368
trigger nr 3 at 13368
2	Triplet	1	649	1	4	0	0	19416	683	0	correct_rejection	NA	5970
2	Triplet	2	650	2	5	0	0	20133	683	0	correct_rejection	NA	0
2	Triplet	3	651	3	6	0	0	20849	684	0	correct_rejection	NA	0
2	Triplet	4	652	4	6	0	0	21566	683	0	correct_rejection	NA	0
2	Triplet	5	653	5	5	0	0	22282	684	0	correct_rejection	NA	0
2	Triplet	6	654	6	4	0	0	22999	684	0	correct_rejection	NA	0
2	Triplet	7	655	7	4	0	0	23716	683	0	correct_rejection	NA	0
2	Triplet	8	656	8	5	0	0	24432	684	0	correct_rejection	NA	0
2	Triplet	9	657	9	6	0	0	25149	683	0	correct_rejection	NA	0
2	Triplet	10	658	10	9	0	0	25866	683	0	correct_rejection	NA	0
2	Triplet	11	659	11	0	1	1	26582	684	1	hit	330	0
2	Triplet	12	660	12	8	0	0	27299	683	0	correct_rejection	NA	0
2	Triplet	13	661	13	7	0	0	28016	683	0	correct_rejection	NA	0
2	Triplet	14	662	14	6	0	0	28732	684	0	correct_rejection	NA	0
2	Triplet	15	663	15	0	1	1	29449	683	1	hit	439	0
2	Triplet	16	664	16	5	0	0	30166	683	0	correct_rejection	NA	0
2	Triplet	17	665	17	4	0	0	30882	684	0	correct_rejection	NA	0
2	Triplet	18	666	18	6	0	0	31599	683	0	correct_rejection	NA	0
2	Triplet	19	667	19	5	0	0	32316	683	0	correct_rejection	NA	0
2	Triplet	20	668	20	4	0	0	33032	684	0	correct_rejection	NA	0
2	Triplet	21	669	21	7	0	0	33749	683	0	correct_rejection	NA	0
2	Triplet	22	670	22	8	0	0	34466	683	0	correct_rejection	NA	0
2	Triplet	23	671	23	9	0	0	35182	684	0	correct_rejection	NA	0
2	Triplet	24	672	24	6	0	0	35899	683	0	correct_rejection	NA	0
2	Triplet	25	673	25	0	1	1	36616	683	1	hit	351	0
2	Triplet	26	674	26	5	0	0	37332	684	0	correct_rejection	NA	0
2	Triplet	27	675	27	4	0	0	38049	683	0	correct_rejection	NA	0
2	Triplet	28	676	28	9	0	0	38766	683	0	correct_rejection	NA	0
2	Triplet	29	677	29	8	0	0	39482	684	0	correct_rejection	NA	0
2	Triplet	30	678	30	7	0	0	40199	683	0	correct_rejection	NA	0
2	Triplet	31	679	31	7	0	0	40916	683	0	correct_rejection	NA	0
2	Triplet	32	680	32	8	0	0	41632	684	0	correct_rejection	NA	0
2	Triplet	33	681	33	9	0	0	42349	683	0	correct_rejection	NA	0
2	Triplet	34	682	34	4	0	0	43066	683	0	correct_rejection	NA	0
2	Triplet	35	683	35	5	0	0	43782	684	0	correct_rejection	NA	0
2	Triplet	36	684	36	6	0	0	44499	683	0	correct_rejection	NA	0
2	Triplet	37	685	37	4	0	0	45215	684	0	correct_rejection	NA	0
2	Triplet	38	686	38	5	0	0	45932	684	0	correct_rejection	NA	0
2	Triplet	39	687	39	0	1	1	46649	683	1	hit	381	0
2	Triplet	40	688	40	6	0	0	47365	684	0	correct_rejection	NA	0
2	Triplet	41	689	41	7	0	0	48082	683	0	correct_rejection	NA	0
2	Triplet	42	690	42	8	0	0	48799	683	0	correct_rejection	NA	0
2	Triplet	43	691	43	9	0	0	49515	684	0	correct_rejection	NA	0
2	Triplet	44	692	44	7	0	0	50232	683	0	correct_rejection	NA	0
2	Triplet	45	693	45	8	0	0	50949	683	0	correct_rejection	NA	0
2	Triplet	46	694	46	9	0	0	51665	684	0	correct_rejection	NA	0
2	Triplet	47	695	47	9	0	0	52382	683	0	correct_rejection	NA	0
2	Triplet	48	696	48	8	0	0	53099	683	0	correct_rejection	NA	0
2	Triplet	49	697	49	0	1	1	53815	684	1	hit	378	0
2	Triplet	50	698	50	7	0	0	54532	683	0	correct_rejection	NA	0
2	Triplet	51	699	51	9	0	0	55249	683	0	correct_rejection	NA	0
2	Triplet	52	700	52	8	0	0	55965	684	0	correct_rejection	NA	0
2	Triplet	53	701	53	7	0	0	56682	683	0	correct_rejection	NA	0
2	Triplet	54	702	54	7	0	0	57399	683	0	correct_rejection	NA	0
2	Triplet	55	703	55	0	1	1	58115	684	1	hit	387	0
2	Triplet	56	704	56	8	0	0	58832	683	0	correct_rejection	NA	0
2	Triplet	57	705	57	9	0	0	59549	683	0	correct_rejection	NA	0
2	Triplet	58	706	58	7	0	0	60265	684	0	correct_rejection	NA	0
2	Triplet	59	707	59	8	0	0	60982	683	0	correct_rejection	NA	0
2	Triplet	60	708	60	0	1	1	61699	683	1	hit	386	0
2	Triplet	61	709	61	9	0	0	62415	684	0	correct_rejection	NA	0
2	Triplet	62	710	62	6	0	0	63132	683	0	correct_rejection	NA	0
2	Triplet	63	711	63	5	0	0	63849	683	0	correct_rejection	NA	0
2	Triplet	64	712	64	4	0	0	64565	684	0	correct_rejection	NA	0
2	Triplet	65	713	65	6	0	0	65282	683	0	correct_rejection	NA	0
2	Triplet	66	714	66	5	0	0	65999	683	0	correct_rejection	NA	0
2	Triplet	67	715	67	4	0	0	66715	684	0	correct_rejection	NA	0
2	Triplet	68	716	68	0	1	2	67432	683	1	hit	346	0
2	Triplet	69	717	69	4	0	0	68148	684	0	correct_rejection	NA	0
2	Triplet	70	718	70	5	0	0	68865	684	0	correct_rejection	NA	0
2	Triplet	71	719	71	6	0	0	69582	683	0	correct_rejection	NA	0
2	Triplet	72	720	72	4	0	0	70298	684	0	correct_rejection	NA	0
2	Triplet	73	721	73	5	0	0	71015	683	0	correct_rejection	NA	0
2	Triplet	74	722	74	6	0	0	71732	683	0	correct_rejection	NA	0
2	Triplet	75	723	75	6	0	0	72448	684	0	correct_rejection	NA	0
2	Triplet	76	724	76	5	0	0	73165	683	0	correct_rejection	NA	0
2	Triplet	77	725	77	0	1	1	73882	683	1	hit	352	0
2	Triplet	78	726	78	4	0	0	74598	684	0	correct_rejection	NA	0
2	Triplet	79	727	79	7	0	0	75315	683	0	correct_rejection	NA	0
2	Triplet	80	728	80	8	0	0	76032	683	0	correct_rejection	NA	0
2	Triplet	81	729	81	9	0	0	76748	684	0	correct_rejection	NA	0
2	Triplet	82	730	82	4	0	0	77465	683	0	correct_rejection	NA	0
2	Triplet	83	731	83	5	0	0	78182	683	0	correct_rejection	NA	0
2	Triplet	84	732	84	6	0	0	78898	684	0	correct_rejection	NA	0
2	Triplet	85	733	85	9	0	0	79615	683	0	correct_rejection	NA	0
2	Triplet	86	734	86	8	0	0	80332	683	0	correct_rejection	NA	0
2	Triplet	87	735	87	7	0	0	81048	684	0	correct_rejection	NA	0
2	Triplet	88	736	88	9	0	0	81765	683	0	correct_rejection	NA	0
2	Triplet	89	737	89	8	0	0	82482	683	0	correct_rejection	NA	0
2	Triplet	90	738	90	7	0	0	83198	684	0	correct_rejection	NA	0
2	Triplet	91	739	91	7	0	0	83915	683	0	correct_rejection	NA	0
2	Triplet	92	740	92	8	0	0	84632	683	0	correct_rejection	NA	0
2	Triplet	93	741	93	9	0	0	85348	684	0	correct_rejection	NA	0
2	Triplet	94	742	94	9	0	0	86065	683	0	correct_rejection	NA	0
2	Triplet	95	743	95	8	0	0	86782	683	0	correct_rejection	NA	0
2	Triplet	96	744	96	7	0	0	87498	684	0	correct_rejection	NA	0
2	Triplet	97	745	97	6	0	0	88215	683	0	correct_rejection	NA	0
2	Triplet	98	746	98	5	0	0	88932	683	0	correct_rejection	NA	0
2	Triplet	99	747	99	4	0	0	89648	684	0	correct_rejection	NA	0
2	Triplet	100	748	100	9	0	0	90365	683	0	correct_rejection	NA	0
2	Triplet	101	749	101	8	0	0	91081	684	0	correct_rejection	NA	0
2	Triplet	102	750	102	0	1	1	91798	684	1	hit	368	0
2	Triplet	103	751	103	7	0	0	92515	683	0	correct_rejection	NA	0
2	Triplet	104	752	104	4	0	0	93231	684	0	correct_rejection	NA	0
2	Triplet	105	753	105	5	0	0	93948	683	0	correct_rejection	NA	0
2	Triplet	106	754	106	6	0	0	94665	683	0	correct_rejection	NA	0
2	Triplet	107	755	107	7	0	0	95381	684	0	correct_rejection	NA	0
2	Triplet	108	756	108	8	0	0	96098	683	0	correct_rejection	NA	0
2	Triplet	109	757	109	9	0	0	96815	683	0	correct_rejection	NA	0
2	Triplet	110	758	110	0	1	2	97531	684	1	hit	304	0
2	Triplet	111	759	111	9	0	0	98248	683	0	correct_rejection	NA	0
2	Triplet	112	760	112	8	0	0	98965	683	0	correct_rejection	NA	0
2	Triplet	113	761	113	7	0	0	99681	684	0	correct_rejection	NA	0
2	Triplet	114	762	114	4	0	0	100398	683	0	correct_rejection	NA	0
2	Triplet	115	763	115	5	0	0	101115	683	0	correct_rejection	NA	0
2	Triplet	116	764	116	6	0	0	101831	684	0	correct_rejection	NA	0
2	Triplet	117	765	117	0	1	2	102548	683	1	hit	359	0
2	Triplet	118	766	118	4	0	0	103265	683	0	correct_rejection	NA	0
2	Triplet	119	767	119	5	0	0	103981	684	0	correct_rejection	NA	0
2	Triplet	120	768	120	6	0	0	104698	683	0	correct_rejection	NA	0
2	Triplet	121	769	121	9	0	0	105415	683	0	correct_rejection	NA	0
2	Triplet	122	770	122	8	0	0	106131	684	0	correct_rejection	NA	0
2	Triplet	123	771	123	0	1	1	106848	683	1	hit	351	0
2	Triplet	124	772	124	7	0	0	107565	683	0	correct_rejection	NA	0
2	Triplet	125	773	125	7	0	0	108281	684	0	correct_rejection	NA	0
2	Triplet	126	774	126	8	0	0	108998	683	0	correct_rejection	NA	0
2	Triplet	127	775	127	9	0	0	109715	683	0	correct_rejection	NA	0
2	Triplet	128	776	128	0	1	2	110431	684	1	hit	383	0
2	Triplet	129	777	129	6	0	0	111148	683	0	correct_rejection	NA	0
2	Triplet	130	778	130	5	0	0	111865	683	0	correct_rejection	NA	0
2	Triplet	131	779	131	4	0	0	112581	684	0	correct_rejection	NA	0
2	Triplet	132	780	132	7	0	0	113298	683	0	correct_rejection	NA	0
2	Triplet	133	781	133	8	0	0	114014	684	0	correct_rejection	NA	0
2	Triplet	134	782	134	9	0	0	114731	684	0	correct_rejection	NA	0
2	Triplet	135	783	135	7	0	0	115448	683	0	correct_rejection	NA	0
2	Triplet	136	784	136	8	0	0	116164	684	0	correct_rejection	NA	0
2	Triplet	137	785	137	9	0	0	116881	683	0	correct_rejection	NA	0
2	Triplet	138	786	138	4	0	0	117598	683	0	correct_rejection	NA	0
2	Triplet	139	787	139	0	1	1	118314	684	1	hit	351	0
2	Triplet	140	788	140	5	0	0	119031	683	0	correct_rejection	NA	0
2	Triplet	141	789	141	6	0	0	119748	683	0	correct_rejection	NA	0
2	Triplet	142	790	142	0	1	2	120464	684	1	hit	405	0
2	Triplet	143	791	143	6	0	0	121181	683	0	correct_rejection	NA	0
2	Triplet	144	792	144	5	0	0	121898	683	0	correct_rejection	NA	0
2	Triplet	145	793	145	4	0	0	122614	684	0	correct_rejection	NA	0
2	Triplet	146	794	146	6	0	0	123331	683	0	correct_rejection	NA	0
2	Triplet	147	795	147	5	0	0	124048	683	0	correct_rejection	NA	0
2	Triplet	148	796	148	4	0	0	124764	684	0	correct_rejection	NA	0
2	Triplet	149	797	149	0	1	2	125481	683	1	hit	320	0
2	Triplet	150	798	150	9	0	0	126198	683	0	correct_rejection	NA	0
2	Triplet	151	799	151	8	0	0	126914	684	0	correct_rejection	NA	0
2	Triplet	152	800	152	7	0	0	127631	683	0	correct_rejection	NA	0
2	Triplet	153	801	153	0	1	2	128348	683	1	hit	320	0
2	Triplet	154	802	154	9	0	0	129064	684	0	correct_rejection	NA	0
2	Triplet	155	803	155	8	0	0	129781	683	0	correct_rejection	NA	0
2	Triplet	156	804	156	7	0	0	130498	683	0	correct_rejection	NA	0
2	Triplet	157	805	157	6	0	0	131214	684	0	correct_rejection	NA	0
2	Triplet	158	806	158	5	0	0	131931	683	0	correct_rejection	NA	0
2	Triplet	159	807	159	4	0	0	132648	683	0	correct_rejection	NA	0
2	Triplet	160	808	160	4	0	0	133364	684	0	correct_rejection	NA	0
2	Triplet	161	809	161	5	0	0	134081	683	0	correct_rejection	NA	0
2	Triplet	162	810	162	6	0	0	134798	683	0	correct_rejection	NA	0
2	Correct	1	1	163	4	0	0	143181	683	0	correct_rejection	NA	7627
2	Correct	2	2	164	5	0	0	143897	684	0	correct_rejection	NA	0
2	Correct	3	3	165	6	0	0	144614	683	0	correct_rejection	NA	0
2	Correct	4	4	166	0	1	2	145331	683	1	hit	304	0
2	Correct	5	5	167	4	0	0	146047	684	0	correct_rejection	NA	0
2	Correct	6	6	168	5	0	0	146764	683	0	correct_rejection	NA	0
2	Correct	7	7	169	6	0	0	147481	683	0	correct_rejection	NA	0
2	Correct	8	8	170	4	0	0	148197	684	0	correct_rejection	NA	0
2	Correct	9	9	171	5	0	0	148914	683	0	correct_rejection	NA	0
2	Correct	10	10	172	6	0	0	149631	683	0	correct_rejection	NA	0
2	Correct	11	11	173	0	1	3	150347	684	1	hit	328	0
2	Correct	12	12	174	6	0	0	151064	683	0	correct_rejection	NA	0
2	Correct	13	13	175	5	0	0	151781	683	0	correct_rejection	NA	0
2	Correct	14	14	176	4	0	0	152497	684	0	correct_rejection	NA	0
2	Correct	15	15	177	6	0	0	153214	683	0	correct_rejection	NA	0
2	Correct	16	16	178	0	1	1	153931	683	1	hit	384	0
2	Correct	17	17	179	5	0	0	154647	684	0	correct_rejection	NA	0
2	Correct	18	18	180	4	0	0	155364	683	0	correct_rejection	NA	0
2	Correct	19	19	181	6	0	0	156081	683	0	correct_rejection	NA	0
2	Correct	20	20	182	5	0	0	156797	684	0	correct_rejection	NA	0
2	Correct	21	21	183	4	0	0	157514	683	0	correct_rejection	NA	0
2	Correct	22	22	184	9	0	0	158231	683	0	correct_rejection	NA	0
2	Correct	23	23	185	8	0	0	158947	684	0	correct_rejection	NA	0
2	Correct	24	24	186	7	0	0	159664	683	0	correct_rejection	NA	0
2	Correct	25	25	187	9	0	0	160380	684	0	correct_rejection	NA	0
2	Correct	26	26	188	8	0	0	161097	684	0	correct_rejection	NA	0
2	Correct	27	27	189	7	0	0	161814	683	0	correct_rejection	NA	0
2	Correct	28	28	190	0	1	2	162530	684	1	hit	319	0
2	Correct	29	29	191	9	0	0	163247	683	0	correct_rejection	NA	0
2	Correct	30	30	192	8	0	0	163964	683	0	correct_rejection	NA	0
2	Correct	31	31	193	7	0	0	164680	684	0	correct_rejection	NA	0
2	Correct	32	32	194	7	0	0	165397	683	0	correct_rejection	NA	0
2	Correct	33	33	195	8	0	0	166114	683	0	correct_rejection	NA	0
2	Correct	34	34	196	9	0	0	166830	684	0	correct_rejection	NA	0
2	Correct	35	35	197	7	0	0	167547	683	0	correct_rejection	NA	0
2	Correct	36	36	198	8	0	0	168264	683	0	correct_rejection	NA	0
2	Correct	37	37	199	9	0	0	168980	684	0	correct_rejection	NA	0
2	Correct	38	38	200	7	0	0	169697	683	0	correct_rejection	NA	0
2	Correct	39	39	201	8	0	0	170414	683	0	correct_rejection	NA	0
2	Correct	40	40	202	9	0	0	171130	684	0	correct_rejection	NA	0
2	Correct	41	41	203	0	1	4	171847	683	1	hit	356	0
2	Correct	42	42	204	4	0	0	172564	683	0	correct_rejection	NA	0
2	Correct	43	43	205	5	0	0	173280	684	0	correct_rejection	NA	0
2	Correct	44	44	206	0	1	1	173997	683	1	hit	406	0
2	Correct	45	45	207	6	0	0	174714	683	0	correct_rejection	NA	0
2	Correct	46	46	208	4	0	0	175430	684	0	correct_rejection	NA	0
2	Correct	47	47	209	5	0	0	176147	683	0	correct_rejection	NA	0
2	Correct	48	48	210	6	0	0	176864	683	0	correct_rejection	NA	0
2	Correct	49	49	211	4	0	0	177580	684	0	correct_rejection	NA	0
2	Correct	50	50	212	5	0	0	178297	683	0	correct_rejection	NA	0
2	Correct	51	51	213	6	0	0	179014	683	0	correct_rejection	NA	0
2	Correct	52	52	214	6	0	0	179730	684	0	correct_rejection	NA	0
2	Correct	53	53	215	5	0	0	180447	683	0	correct_rejection	NA	0
2	Correct	54	54	216	4	0	0	181164	683	0	correct_rejection	NA	0
2	Correct	55	55	217	6	0	0	181880	684	0	correct_rejection	NA	0
2	Correct	56	56	218	5	0	0	182597	683	0	correct_rejection	NA	0
2	Correct	57	57	219	4	0	0	183313	684	0	correct_rejection	NA	0
2	Correct	58	58	220	6	0	0	184030	684	0	correct_rejection	NA	0
2	Correct	59	59	221	5	0	0	184747	683	0	correct_rejection	NA	0
2	Correct	60	60	222	4	0	0	185463	684	0	correct_rejection	NA	0
2	Correct	61	61	223	9	0	0	186180	683	0	correct_rejection	NA	0
2	Correct	62	62	224	8	0	0	186897	683	0	correct_rejection	NA	0
2	Correct	63	63	225	7	0	0	187613	684	0	correct_rejection	NA	0
2	Correct	64	64	226	9	0	0	188330	683	0	correct_rejection	NA	0
2	Correct	65	65	227	8	0	0	189047	683	0	correct_rejection	NA	0
2	Correct	66	66	228	7	0	0	189763	684	0	correct_rejection	NA	0
2	Correct	67	67	229	9	0	0	190480	683	0	correct_rejection	NA	0
2	Correct	68	68	230	8	0	0	191197	683	0	correct_rejection	NA	0
2	Correct	69	69	231	7	0	0	191913	684	0	correct_rejection	NA	0
2	Correct	70	70	232	7	0	0	192630	683	0	correct_rejection	NA	0
2	Correct	71	71	233	8	0	0	193347	683	0	correct_rejection	NA	0
2	Correct	72	72	234	9	0	0	194063	684	0	correct_rejection	NA	0
2	Correct	73	73	235	7	0	0	194780	683	0	correct_rejection	NA	0
2	Correct	74	74	236	8	0	0	195497	683	0	correct_rejection	NA	0
2	Correct	75	75	237	9	0	0	196213	684	0	correct_rejection	NA	0
2	Correct	76	76	238	7	0	0	196930	683	0	correct_rejection	NA	0
2	Correct	77	77	239	8	0	0	197647	683	0	correct_rejection	NA	0
2	Correct	78	78	240	9	0	0	198363	684	0	correct_rejection	NA	0
2	Correct	79	79	241	4	0	0	199080	683	0	correct_rejection	NA	0
2	Correct	80	80	242	0	1	1	199797	683	1	hit	389	0
2	Correct	81	81	243	5	0	0	200513	684	0	correct_rejection	NA	0
2	Correct	82	82	244	6	0	0	201230	683	0	correct_rejection	NA	0
2	Correct	83	83	245	4	0	0	201947	683	0	correct_rejection	NA	0
2	Correct	84	84	246	5	0	0	202663	684	0	correct_rejection	NA	0
2	Correct	85	85	247	6	0	0	203380	683	0	correct_rejection	NA	0
2	Correct	86	86	248	4	0	0	204097	683	0	correct_rejection	NA	0
2	Correct	87	87	249	0	1	1	204813	684	1	hit	417	0
2	Correct	88	88	250	5	0	0	205530	683	0	correct_rejection	NA	0
2	Correct	89	89	251	6	0	0	206246	684	0	correct_rejection	NA	0
2	Correct	90	90	252	6	0	0	206963	684	0	correct_rejection	NA	0
2	Correct	91	91	253	5	0	0	207680	683	0	correct_rejection	NA	0
2	Correct	92	92	254	0	1	1	208396	684	1	hit	408	0
2	Correct	93	93	255	4	0	0	209113	683	0	correct_rejection	NA	0
2	Correct	94	94	256	6	0	0	209830	683	0	correct_rejection	NA	0
2	Correct	95	95	257	5	0	0	210546	684	0	correct_rejection	NA	0
2	Correct	96	96	258	0	1	1	211263	683	1	hit	437	0
2	Correct	97	97	259	4	0	0	211980	683	0	correct_rejection	NA	0
2	Correct	98	98	260	6	0	0	212696	684	0	correct_rejection	NA	0
2	Correct	99	99	261	5	0	0	213413	683	0	correct_rejection	NA	0
2	Correct	100	100	262	4	0	0	214130	683	0	correct_rejection	NA	0
2	Correct	101	101	263	9	0	0	214846	684	0	correct_rejection	NA	0
2	Correct	102	102	264	0	1	1	215563	683	1	hit	396	0
2	Correct	103	103	265	8	0	0	216280	683	0	correct_rejection	NA	0
2	Correct	104	104	266	7	0	0	216996	684	0	correct_rejection	NA	0
2	Correct	105	105	267	9	0	0	217713	683	0	correct_rejection	NA	0
2	Correct	106	106	268	8	0	0	218430	683	0	correct_rejection	NA	0
2	Correct	107	107	269	7	0	0	219146	684	0	correct_rejection	NA	0
2	Correct	108	108	270	9	0	0	219863	683	0	correct_rejection	NA	0
2	Correct	109	109	271	8	0	0	220580	683	0	correct_rejection	NA	0
2	Correct	110	110	272	0	1	1	221296	684	1	hit	381	0
2	Correct	111	111	273	7	0	0	222013	683	0	correct_rejection	NA	0
2	Correct	112	112	274	7	0	0	222730	683	0	correct_rejection	NA	0
2	Correct	113	113	275	8	0	0	223446	684	0	correct_rejection	NA	0
2	Correct	114	114	276	9	0	0	224163	683	0	correct_rejection	NA	0
2	Correct	115	115	277	7	0	0	224880	683	0	correct_rejection	NA	0
2	Correct	116	116	278	8	0	0	225596	684	0	correct_rejection	NA	0
2	Correct	117	117	279	9	0	0	226313	683	0	correct_rejection	NA	0
2	Correct	118	118	280	7	0	0	227030	683	0	correct_rejection	NA	0
2	Correct	119	119	281	8	0	0	227746	684	0	correct_rejection	NA	0
2	Correct	120	120	282	0	1	1	228463	683	1	hit	375	0
2	Correct	121	121	283	9	0	0	229180	683	0	correct_rejection	NA	0
2	Correct	122	122	284	4	0	0	229896	684	0	correct_rejection	NA	0
2	Correct	123	123	285	5	0	0	230613	683	0	correct_rejection	NA	0
2	Correct	124	124	286	6	0	0	231329	684	0	correct_rejection	NA	0
2	Correct	125	125	287	4	0	0	232046	683	0	correct_rejection	NA	0
2	Correct	126	126	288	5	0	0	232763	683	0	correct_rejection	NA	0
2	Correct	127	127	289	6	0	0	233479	684	0	correct_rejection	NA	0
2	Correct	128	128	290	4	0	0	234196	683	0	correct_rejection	NA	0
2	Correct	129	129	291	5	0	0	234913	683	0	correct_rejection	NA	0
2	Correct	130	130	292	0	1	1	235629	684	1	hit	377	0
2	Correct	131	131	293	6	0	0	236346	683	0	correct_rejection	NA	0
2	Correct	132	132	294	6	0	0	237063	683	0	correct_rejection	NA	0
2	Correct	133	133	295	0	1	1	237779	684	1	hit	455	0
2	Correct	134	134	296	5	0	0	238496	683	0	correct_rejection	NA	0
2	Correct	135	135	297	4	0	0	239213	683	0	correct_rejection	NA	0
2	Correct	136	136	298	6	0	0	239929	684	0	correct_rejection	NA	0
2	Correct	137	137	299	5	0	0	240646	683	0	correct_rejection	NA	0
2	Correct	138	138	300	4	0	0	241363	683	0	correct_rejection	NA	0
2	Correct	139	139	301	0	1	2	242079	684	1	hit	367	0
2	Correct	140	140	302	6	0	0	242796	683	0	correct_rejection	NA	0
2	Correct	141	141	303	5	0	0	243513	683	0	correct_rejection	NA	0
2	Correct	142	142	304	4	0	0	244229	684	0	correct_rejection	NA	0
2	Correct	143	143	305	9	0	0	244946	683	0	correct_rejection	NA	0
2	Correct	144	144	306	8	0	0	245663	683	0	correct_rejection	NA	0
2	Correct	145	145	307	7	0	0	246379	684	0	correct_rejection	NA	0
2	Correct	146	146	308	9	0	0	247096	683	0	correct_rejection	NA	0
2	Correct	147	147	309	8	0	0	247813	683	0	correct_rejection	NA	0
2	Correct	148	148	310	7	0	0	248529	684	0	correct_rejection	NA	0
2	Correct	149	149	311	9	0	0	249246	683	0	correct_rejection	NA	0
2	Correct	150	150	312	0	1	1	249963	683	1	hit	333	0
2	Correct	151	151	313	8	0	0	250679	684	0	correct_rejection	NA	0
2	Correct	152	152	314	7	0	0	251396	683	0	correct_rejection	NA	0
2	Correct	153	153	315	7	0	0	252112	684	0	correct_rejection	NA	0
2	Correct	154	154	316	8	0	0	252829	683	0	correct_rejection	NA	0
2	Correct	155	155	317	9	0	0	253546	683	0	correct_rejection	NA	0
2	Correct	156	156	318	0	1	2	254262	684	1	hit	371	0
2	Correct	157	157	319	7	0	0	254979	683	0	correct_rejection	NA	0
2	Correct	158	158	320	8	0	0	255696	683	0	correct_rejection	NA	0
2	Correct	159	159	321	9	0	0	256412	684	0	correct_rejection	NA	0
2	Correct	160	160	322	7	0	0	257129	683	0	correct_rejection	NA	0
2	Correct	161	161	323	8	0	0	257846	683	0	correct_rejection	NA	0
2	Correct	162	162	324	9	0	0	258562	684	0	correct_rejection	NA	0
2	Triplet	1	487	325	6	0	0	267362	684	0	correct_rejection	NA	8042
2	Triplet	2	488	326	5	0	0	268079	683	0	correct_rejection	NA	0
2	Triplet	3	489	327	4	0	0	268796	683	0	correct_rejection	NA	0
2	Triplet	4	490	328	4	0	0	269512	684	0	correct_rejection	NA	0
2	Triplet	5	491	329	5	0	0	270229	683	0	correct_rejection	NA	0
2	Triplet	6	492	330	6	0	0	270946	683	0	correct_rejection	NA	0
2	Triplet	7	493	331	9	0	0	271662	683	0	correct_rejection	NA	0
2	Triplet	8	494	332	8	0	0	272379	683	0	correct_rejection	NA	0
2	Triplet	9	495	333	7	0	0	273096	683	0	correct_rejection	NA	0
2	Triplet	10	496	334	0	1	2	273812	684	1	hit	325	0
2	Triplet	11	497	335	4	0	0	274529	683	0	correct_rejection	NA	0
2	Triplet	12	498	336	5	0	0	275246	683	0	correct_rejection	NA	0
2	Triplet	13	499	337	0	1	1	275962	684	1	hit	404	0
2	Triplet	14	500	338	6	0	0	276679	683	0	correct_rejection	NA	0
2	Triplet	15	501	339	6	0	0	277395	684	0	correct_rejection	NA	0
2	Triplet	16	502	340	5	0	0	278112	683	0	correct_rejection	NA	0
2	Triplet	17	503	341	0	1	1	278829	683	1	hit	353	0
2	Triplet	18	504	342	4	0	0	279545	684	0	correct_rejection	NA	0
2	Triplet	19	505	343	6	0	0	280262	683	0	correct_rejection	NA	0
2	Triplet	20	506	344	5	0	0	280979	683	0	correct_rejection	NA	0
2	Triplet	21	507	345	4	0	0	281695	684	0	correct_rejection	NA	0
2	Triplet	22	508	346	7	0	0	282412	683	0	correct_rejection	NA	0
2	Triplet	23	509	347	0	1	1	283129	683	1	hit	275	0
2	Triplet	24	510	348	8	0	0	283845	684	0	correct_rejection	NA	0
2	Triplet	25	511	349	9	0	0	284562	683	0	correct_rejection	NA	0
2	Triplet	26	512	350	6	0	0	285279	683	0	correct_rejection	NA	0
2	Triplet	27	513	351	0	1	1	285995	684	1	hit	365	0
2	Triplet	28	514	352	5	0	0	286712	683	0	correct_rejection	NA	0
2	Triplet	29	515	353	4	0	0	287429	683	0	correct_rejection	NA	0
2	Triplet	30	516	354	9	0	0	288145	684	0	correct_rejection	NA	0
2	Triplet	31	517	355	0	1	1	288862	683	1	hit	351	0
2	Triplet	32	518	356	8	0	0	289579	683	0	correct_rejection	NA	0
2	Triplet	33	519	357	7	0	0	290295	684	0	correct_rejection	NA	0
2	Triplet	34	520	358	9	0	0	291012	683	0	correct_rejection	NA	0
2	Triplet	35	521	359	8	0	0	291729	683	0	correct_rejection	NA	0
2	Triplet	36	522	360	0	1	1	292445	684	1	hit	348	0
2	Triplet	37	523	361	7	0	0	293162	683	0	correct_rejection	NA	0
2	Triplet	38	524	362	7	0	0	293879	683	0	correct_rejection	NA	0
2	Triplet	39	525	363	8	0	0	294595	684	0	correct_rejection	NA	0
2	Triplet	40	526	364	9	0	0	295312	683	0	correct_rejection	NA	0
2	Triplet	41	527	365	0	1	2	296029	683	1	hit	365	0
2	Triplet	42	528	366	4	0	0	296745	684	0	correct_rejection	NA	0
2	Triplet	43	529	367	5	0	0	297462	683	0	correct_rejection	NA	0
2	Triplet	44	530	368	6	0	0	298179	683	0	correct_rejection	NA	0
2	Triplet	45	531	369	4	0	0	298895	684	0	correct_rejection	NA	0
2	Triplet	46	532	370	5	0	0	299612	683	0	correct_rejection	NA	0
2	Triplet	47	533	371	6	0	0	300328	684	0	correct_rejection	NA	0
2	Triplet	48	534	372	7	0	0	301045	683	0	correct_rejection	NA	0
2	Triplet	49	535	373	8	0	0	301762	683	0	correct_rejection	NA	0
2	Triplet	50	536	374	9	0	0	302478	684	0	correct_rejection	NA	0
2	Triplet	51	537	375	7	0	0	303195	683	0	correct_rejection	NA	0
2	Triplet	52	538	376	8	0	0	303912	683	0	correct_rejection	NA	0
2	Triplet	53	539	377	0	1	1	304628	684	1	hit	363	0
2	Triplet	54	540	378	9	0	0	305345	683	0	correct_rejection	NA	0
2	Triplet	55	541	379	9	0	0	306062	683	0	correct_rejection	NA	0
2	Triplet	56	542	380	8	0	0	306778	684	0	correct_rejection	NA	0
2	Triplet	57	543	381	7	0	0	307495	683	0	correct_rejection	NA	0
2	Triplet	58	544	382	4	0	0	308212	683	0	correct_rejection	NA	0
2	Triplet	59	545	383	5	0	0	308928	684	0	correct_rejection	NA	0
2	Triplet	60	546	384	0	1	1	309645	683	1	hit	391	0
2	Triplet	61	547	385	6	0	0	310362	683	0	correct_rejection	NA	0
2	Triplet	62	548	386	7	0	0	311078	684	0	correct_rejection	NA	0
2	Triplet	63	549	387	8	0	0	311795	683	0	correct_rejection	NA	0
2	Triplet	64	550	388	9	0	0	312512	683	0	correct_rejection	NA	0
2	Triplet	65	551	389	6	0	0	313228	684	0	correct_rejection	NA	0
2	Triplet	66	552	390	0	1	1	313945	683	1	hit	349	0
2	Triplet	67	553	391	5	0	0	314662	683	0	correct_rejection	NA	0
2	Triplet	68	554	392	4	0	0	315378	684	0	correct_rejection	NA	0
2	Triplet	69	555	393	6	0	0	316095	683	0	correct_rejection	NA	0
2	Triplet	70	556	394	5	0	0	316812	683	0	correct_rejection	NA	0
2	Triplet	71	557	395	4	0	0	317528	684	0	correct_rejection	NA	0
2	Triplet	72	558	396	4	0	0	318245	683	0	correct_rejection	NA	0
2	Triplet	73	559	397	5	0	0	318962	683	0	correct_rejection	NA	0
2	Triplet	74	560	398	6	0	0	319678	684	0	correct_rejection	NA	0
2	Triplet	75	561	399	4	0	0	320395	683	0	correct_rejection	NA	0
2	Triplet	76	562	400	5	0	0	321112	683	0	correct_rejection	NA	0
2	Triplet	77	563	401	6	0	0	321828	684	0	correct_rejection	NA	0
2	Triplet	78	564	402	0	1	2	322545	683	1	hit	358	0
2	Triplet	79	565	403	6	0	0	323261	684	0	correct_rejection	NA	0
2	Triplet	80	566	404	5	0	0	323978	683	0	correct_rejection	NA	0
2	Triplet	81	567	405	4	0	0	324695	683	0	correct_rejection	NA	0
2	Triplet	82	568	406	7	0	0	325411	684	0	correct_rejection	NA	0
2	Triplet	83	569	407	0	1	1	326128	683	1	hit	361	0
2	Triplet	84	570	408	8	0	0	326845	683	0	correct_rejection	NA	0
2	Triplet	85	571	409	9	0	0	327561	684	0	correct_rejection	NA	0
2	Triplet	86	572	410	0	1	2	328278	683	1	hit	435	0
2	Triplet	87	573	411	9	0	0	328995	683	0	correct_rejection	NA	0
2	Triplet	88	574	412	8	0	0	329711	684	0	correct_rejection	NA	0
2	Triplet	89	575	413	0	1	1	330428	683	1	hit	350	0
2	Triplet	90	576	414	7	0	0	331145	683	0	correct_rejection	NA	0
2	Triplet	91	577	415	4	0	0	331861	684	0	correct_rejection	NA	0
2	Triplet	92	578	416	5	0	0	332578	683	0	correct_rejection	NA	0
2	Triplet	93	579	417	6	0	0	333295	683	0	correct_rejection	NA	0
2	Triplet	94	580	418	9	0	0	334011	684	0	correct_rejection	NA	0
2	Triplet	95	581	419	8	0	0	334728	683	0	correct_rejection	NA	0
2	Triplet	96	582	420	7	0	0	335445	683	0	correct_rejection	NA	0
2	Triplet	97	583	421	9	0	0	336161	684	0	correct_rejection	NA	0
2	Triplet	98	584	422	8	0	0	336878	683	0	correct_rejection	NA	0
2	Triplet	99	585	423	0	1	1	337595	683	1	hit	431	0
2	Triplet	100	586	424	7	0	0	338311	684	0	correct_rejection	NA	0
2	Triplet	101	587	425	6	0	0	339028	683	0	correct_rejection	NA	0
2	Triplet	102	588	426	5	0	0	339745	683	0	correct_rejection	NA	0
2	Triplet	103	589	427	4	0	0	340461	684	0	correct_rejection	NA	0
2	Triplet	104	590	428	9	0	0	341178	683	0	correct_rejection	NA	0
2	Triplet	105	591	429	8	0	0	341895	683	0	correct_rejection	NA	0
2	Triplet	106	592	430	7	0	0	342611	684	0	correct_rejection	NA	0
2	Triplet	107	593	431	7	0	0	343328	683	0	correct_rejection	NA	0
2	Triplet	108	594	432	8	0	0	344045	683	0	correct_rejection	NA	0
2	Triplet	109	595	433	9	0	0	344761	684	0	correct_rejection	NA	0
2	Triplet	110	596	434	7	0	0	345478	683	0	correct_rejection	NA	0
2	Triplet	111	597	435	8	0	0	346194	684	0	correct_rejection	NA	0
2	Triplet	112	598	436	9	0	0	346911	683	0	correct_rejection	NA	0
2	Triplet	113	599	437	6	0	0	347628	683	0	correct_rejection	NA	0
2	Triplet	114	600	438	5	0	0	348344	684	0	correct_rejection	NA	0
2	Triplet	115	601	439	4	0	0	349061	683	0	correct_rejection	NA	0
2	Triplet	116	602	440	0	1	2	349778	683	1	hit	363	0
2	Triplet	117	603	441	9	0	0	350494	684	0	correct_rejection	NA	0
2	Triplet	118	604	442	8	0	0	351211	683	0	correct_rejection	NA	0
2	Triplet	119	605	443	7	0	0	351928	683	0	correct_rejection	NA	0
2	Triplet	120	606	444	6	0	0	352644	684	0	correct_rejection	NA	0
2	Triplet	121	607	445	5	0	0	353361	683	0	correct_rejection	NA	0
2	Triplet	122	608	446	4	0	0	354078	683	0	correct_rejection	NA	0
2	Triplet	123	609	447	7	0	0	354794	684	0	correct_rejection	NA	0
2	Triplet	124	610	448	8	0	0	355511	683	0	correct_rejection	NA	0
2	Triplet	125	611	449	9	0	0	356228	683	0	correct_rejection	NA	0
2	Triplet	126	612	450	7	0	0	356944	684	0	correct_rejection	NA	0
2	Triplet	127	613	451	8	0	0	357661	683	0	correct_rejection	NA	0
2	Triplet	128	614	452	9	0	0	358378	683	0	correct_rejection	NA	0
2	Triplet	129	615	453	4	0	0	359094	684	0	correct_rejection	NA	0
2	Triplet	130	616	454	5	0	0	359811	683	0	correct_rejection	NA	0
2	Triplet	131	617	455	6	0	0	360528	683	0	correct_rejection	NA	0
2	Triplet	132	618	456	6	0	0	361244	684	0	correct_rejection	NA	0
2	Triplet	133	619	457	5	0	0	361961	683	0	correct_rejection	NA	0
2	Triplet	134	620	458	4	0	0	362678	683	0	correct_rejection	NA	0
2	Triplet	135	621	459	4	0	0	363394	684	0	correct_rejection	NA	0
2	Triplet	136	622	460	5	0	0	364111	683	0	correct_rejection	NA	0
2	Triplet	137	623	461	6	0	0	364828	683	0	correct_rejection	NA	0
2	Triplet	138	624	462	7	0	0	365544	684	0	correct_rejection	NA	0
2	Triplet	139	625	463	8	0	0	366261	683	0	correct_rejection	NA	0
2	Triplet	140	626	464	9	0	0	366978	683	0	correct_rejection	NA	0
2	Triplet	141	627	465	9	0	0	367694	684	0	correct_rejection	NA	0
2	Triplet	142	628	466	8	0	0	368411	683	0	correct_rejection	NA	0
2	Triplet	143	629	467	7	0	0	369127	684	0	correct_rejection	NA	0
2	Triplet	144	630	468	0	1	2	369844	683	1	hit	307	0
2	Triplet	145	631	469	9	0	0	370561	683	0	correct_rejection	NA	0
2	Triplet	146	632	470	8	0	0	371277	684	0	correct_rejection	NA	0
2	Triplet	147	633	471	7	0	0	371994	683	0	correct_rejection	NA	0
2	Triplet	148	634	472	4	0	0	372711	683	0	correct_rejection	NA	0
2	Triplet	149	635	473	5	0	0	373427	684	0	correct_rejection	NA	0
2	Triplet	150	636	474	6	0	0	374144	683	0	correct_rejection	NA	0
2	Triplet	151	637	475	4	0	0	374861	683	0	correct_rejection	NA	0
2	Triplet	152	638	476	5	0	0	375577	684	0	correct_rejection	NA	0
2	Triplet	153	639	477	6	0	0	376294	683	0	correct_rejection	NA	0
2	Triplet	154	640	478	9	0	0	377011	683	0	correct_rejection	NA	0
2	Triplet	155	641	479	8	0	0	377727	684	0	correct_rejection	NA	0
2	Triplet	156	642	480	7	0	0	378444	683	0	correct_rejection	NA	0
2	Triplet	157	643	481	7	0	0	379161	683	0	correct_rejection	NA	0
2	Triplet	158	644	482	8	0	0	379877	684	0	correct_rejection	NA	0
2	Triplet	159	645	483	9	0	0	380594	683	0	correct_rejection	NA	0
2	Triplet	160	646	484	6	0	0	381311	683	0	correct_rejection	NA	0
2	Triplet	161	647	485	5	0	0	382027	684	0	correct_rejection	NA	0
2	Triplet	162	648	486	4	0	0	382744	683	0	correct_rejection	NA	0
2	Single	1	163	487	8	0	0	389711	683	0	correct_rejection	NA	6210
2	Single	2	164	488	6	0	0	390427	684	0	correct_rejection	NA	0
2	Single	3	165	489	7	0	0	391144	683	0	correct_rejection	NA	0
2	Single	4	166	490	5	0	0	391860	684	0	correct_rejection	NA	0
2	Single	5	167	491	0	1	1	392577	683	1	hit	378	0
2	Single	6	168	492	5	0	0	393294	683	0	correct_rejection	NA	0
2	Single	7	169	493	7	0	0	394010	684	0	correct_rejection	NA	0
2	Single	8	170	494	6	0	0	394727	683	0	correct_rejection	NA	0
2	Single	9	171	495	0	1	1	395444	683	1	hit	400	0
2	Single	10	172	496	8	0	0	396160	684	0	correct_rejection	NA	0
2	Single	11	173	497	7	0	0	396877	683	0	correct_rejection	NA	0
2	Single	12	174	498	7	0	0	397594	683	0	correct_rejection	NA	0
2	Single	13	175	499	8	0	0	398310	684	0	correct_rejection	NA	0
2	Single	14	176	500	8	0	0	399027	683	0	correct_rejection	NA	0
2	Single	15	177	501	4	0	0	399744	683	0	correct_rejection	NA	0
2	Single	16	178	502	7	0	0	400460	684	0	correct_rejection	NA	0
2	Single	17	179	503	0	1	1	401177	683	1	hit	386	0
2	Single	18	180	504	9	0	0	401894	683	0	correct_rejection	NA	0
2	Single	19	181	505	6	0	0	402610	684	0	correct_rejection	NA	0
2	Single	20	182	506	5	0	0	403327	683	0	correct_rejection	NA	0
2	Single	21	183	507	9	0	0	404044	683	0	correct_rejection	NA	0
2	Single	22	184	508	7	0	0	404760	684	0	correct_rejection	NA	0
2	Single	23	185	509	4	0	0	405477	683	0	correct_rejection	NA	0
2	Single	24	186	510	4	0	0	406194	683	0	correct_rejection	NA	0
2	Single	25	187	511	0	1	1	406910	684	1	hit	337	0
2	Single	26	188	512	6	0	0	407627	683	0	correct_rejection	NA	0
2	Single	27	189	513	9	0	0	408344	683	0	correct_rejection	NA	0
2	Single	28	190	514	9	0	0	409060	684	0	correct_rejection	NA	0
2	Single	29	191	515	5	0	0	409777	683	0	correct_rejection	NA	0
2	Single	30	192	516	6	0	0	410494	683	0	correct_rejection	NA	0
2	Single	31	193	517	6	0	0	411210	684	0	correct_rejection	NA	0
2	Single	32	194	518	0	1	1	411927	683	1	hit	374	0
2	Single	33	195	519	4	0	0	412644	683	0	correct_rejection	NA	0
2	Single	34	196	520	8	0	0	413360	684	0	correct_rejection	NA	0
2	Single	35	197	521	5	0	0	414077	683	0	correct_rejection	NA	0
2	Single	36	198	522	4	0	0	414793	684	0	correct_rejection	NA	0
2	Single	37	199	523	9	0	0	415510	684	0	correct_rejection	NA	0
2	Single	38	200	524	4	0	0	416227	683	0	correct_rejection	NA	0
2	Single	39	201	525	5	0	0	416943	684	0	correct_rejection	NA	0
2	Single	40	202	526	8	0	0	417660	683	0	correct_rejection	NA	0
2	Single	41	203	527	9	0	0	418377	683	0	correct_rejection	NA	0
2	Single	42	204	528	9	0	0	419093	684	0	correct_rejection	NA	0
2	Single	43	205	529	7	0	0	419810	683	0	correct_rejection	NA	0
2	Single	44	206	530	6	0	0	420527	683	0	correct_rejection	NA	0
2	Single	45	207	531	9	0	0	421243	684	0	correct_rejection	NA	0
2	Single	46	208	532	6	0	0	421960	683	0	correct_rejection	NA	0
2	Single	47	209	533	8	0	0	422677	683	0	correct_rejection	NA	0
2	Single	48	210	534	0	1	1	423393	684	1	hit	307	0
2	Single	49	211	535	4	0	0	424110	683	0	correct_rejection	NA	0
2	Single	50	212	536	8	0	0	424827	683	0	correct_rejection	NA	0
2	Single	51	213	537	8	0	0	425543	684	0	correct_rejection	NA	0
2	Single	52	214	538	0	1	1	426260	683	1	hit	411	0
2	Single	53	215	539	5	0	0	426977	683	0	correct_rejection	NA	0
2	Single	54	216	540	7	0	0	427693	684	0	correct_rejection	NA	0
2	Single	55	217	541	7	0	0	428410	683	0	correct_rejection	NA	0
2	Single	56	218	542	5	0	0	429127	683	0	correct_rejection	NA	0
2	Single	57	219	543	6	0	0	429843	684	0	correct_rejection	NA	0
2	Single	58	220	544	4	0	0	430560	683	0	correct_rejection	NA	0
2	Single	59	221	545	7	0	0	431277	683	0	correct_rejection	NA	0
2	Single	60	222	546	0	1	1	431993	684	1	hit	385	0
2	Single	61	223	547	4	0	0	432710	683	0	correct_rejection	NA	0
2	Single	62	224	548	6	0	0	433427	683	0	correct_rejection	NA	0
2	Single	63	225	549	5	0	0	434143	684	0	correct_rejection	NA	0
2	Single	64	226	550	5	0	0	434860	683	0	correct_rejection	NA	0
2	Single	65	227	551	8	0	0	435577	683	0	correct_rejection	NA	0
2	Single	66	228	552	0	1	1	436293	684	1	hit	396	0
2	Single	67	229	553	7	0	0	437010	683	0	correct_rejection	NA	0
2	Single	68	230	554	8	0	0	437726	684	0	correct_rejection	NA	0
2	Single	69	231	555	9	0	0	438443	684	0	correct_rejection	NA	0
2	Single	70	232	556	0	1	1	439160	683	1	hit	364	0
2	Single	71	233	557	4	0	0	439876	684	0	correct_rejection	NA	0
2	Single	72	234	558	9	0	0	440593	683	0	correct_rejection	NA	0
2	Single	73	235	559	5	0	0	441310	683	0	correct_rejection	NA	0
2	Single	74	236	560	4	0	0	442026	684	0	correct_rejection	NA	0
2	Single	75	237	561	4	0	0	442743	683	0	correct_rejection	NA	0
2	Single	76	238	562	5	0	0	443460	683	0	correct_rejection	NA	0
2	Single	77	239	563	0	1	1	444176	684	1	hit	348	0
2	Single	78	240	564	9	0	0	444893	683	0	correct_rejection	NA	0
2	Single	79	241	565	9	0	0	445610	683	0	correct_rejection	NA	0
2	Single	80	242	566	8	0	0	446326	684	0	correct_rejection	NA	0
2	Single	81	243	567	6	0	0	447043	683	0	correct_rejection	NA	0
2	Single	82	244	568	6	0	0	447760	683	0	correct_rejection	NA	0
2	Single	83	245	569	7	0	0	448476	684	0	correct_rejection	NA	0
2	Single	84	246	570	7	0	0	449193	683	0	correct_rejection	NA	0
2	Single	85	247	571	5	0	0	449910	683	0	correct_rejection	NA	0
2	Single	86	248	572	7	0	0	450626	684	0	correct_rejection	NA	0
2	Single	87	249	573	9	0	0	451343	683	0	correct_rejection	NA	0
2	Single	88	250	574	9	0	0	452060	683	0	correct_rejection	NA	0
2	Single	89	251	575	7	0	0	452776	684	0	correct_rejection	NA	0
2	Single	90	252	576	7	0	0	453493	683	0	correct_rejection	NA	0
2	Single	91	253	577	4	0	0	454210	683	0	correct_rejection	NA	0
2	Single	92	254	578	8	0	0	454926	684	0	correct_rejection	NA	0
2	Single	93	255	579	7	0	0	455643	683	0	correct_rejection	NA	0
2	Single	94	256	580	6	0	0	456360	683	0	correct_rejection	NA	0
2	Single	95	257	581	5	0	0	457076	684	0	correct_rejection	NA	0
2	Single	96	258	582	6	0	0	457793	683	0	correct_rejection	NA	0
2	Single	97	259	583	7	0	0	458510	683	0	correct_rejection	NA	0
2	Single	98	260	584	8	0	0	459226	684	0	correct_rejection	NA	0
2	Single	99	261	585	5	0	0	459943	683	0	correct_rejection	NA	0
2	Single	100	262	586	9	0	0	460659	684	0	correct_rejection	NA	0
2	Single	101	263	587	4	0	0	461376	684	0	correct_rejection	NA	0
2	Single	102	264	588	4	0	0	462093	683	0	correct_rejection	NA	0
2	Single	103	265	589	9	0	0	462809	684	0	correct_rejection	NA	0
2	Single	104	266	590	0	1	1	463526	683	1	hit	378	0
2	Single	105	267	591	8	0	0	464243	683	0	correct_rejection	NA	0
2	Single	106	268	592	9	0	0	464959	684	0	correct_rejection	NA	0
2	Single	107	269	593	6	0	0	465676	683	0	correct_rejection	NA	0
2	Single	108	270	594	9	0	0	466393	683	0	correct_rejection	NA	0
2	Single	109	271	595	0	1	1	467109	684	1	hit	393	0
2	Single	110	272	596	5	0	0	467826	683	0	correct_rejection	NA	0
2	Single	111	273	597	8	0	0	468543	683	0	correct_rejection	NA	0
2	Single	112	274	598	4	0	0	469259	684	0	correct_rejection	NA	0
2	Single	113	275	599	5	0	0	469976	683	0	correct_rejection	NA	0
2	Single	114	276	600	5	0	0	470693	683	0	correct_rejection	NA	0
2	Single	115	277	601	4	0	0	471409	684	0	correct_rejection	NA	0
2	Single	116	278	602	6	0	0	472126	683	0	correct_rejection	NA	0
2	Single	117	279	603	6	0	0	472843	683	0	correct_rejection	NA	0
2	Single	118	280	604	8	0	0	473559	684	0	correct_rejection	NA	0
2	Single	119	281	605	8	0	0	474276	683	0	correct_rejection	NA	0
2	Single	120	282	606	6	0	0	474993	683	0	correct_rejection	NA	0
2	Single	121	283	607	4	0	0	475709	684	0	correct_rejection	NA	0
2	Single	122	284	608	8	0	0	476426	683	0	correct_rejection	NA	0
2	Single	123	285	609	4	0	0	477143	683	0	correct_rejection	NA	0
2	Single	124	286	610	6	0	0	477859	684	0	correct_rejection	NA	0
2	Single	125	287	611	0	1	1	478576	683	1	hit	436	0
2	Single	126	288	612	9	0	0	479293	683	0	correct_rejection	NA	0
2	Single	127	289	613	8	0	0	480009	684	0	correct_rejection	NA	0
2	Single	128	290	614	8	0	0	480726	683	0	correct_rejection	NA	0
2	Single	129	291	615	0	1	1	481443	683	1	hit	387	0
2	Single	130	292	616	9	0	0	482159	684	0	correct_rejection	NA	0
2	Single	131	293	617	5	0	0	482876	683	0	correct_rejection	NA	0
2	Single	132	294	618	9	0	0	483592	684	0	correct_rejection	NA	0
2	Single	133	295	619	7	0	0	484309	684	0	correct_rejection	NA	0
2	Single	134	296	620	5	0	0	485026	683	0	correct_rejection	NA	0
2	Single	135	297	621	8	0	0	485742	684	0	correct_rejection	NA	0
2	Single	136	298	622	5	0	0	486459	683	0	correct_rejection	NA	0
2	Single	137	299	623	5	0	0	487176	683	0	correct_rejection	NA	0
2	Single	138	300	624	6	0	0	487892	684	0	correct_rejection	NA	0
2	Single	139	301	625	8	0	0	488609	683	0	correct_rejection	NA	0
2	Single	140	302	626	0	1	1	489326	683	1	hit	400	0
2	Single	141	303	627	6	0	0	490042	684	0	correct_rejection	NA	0
2	Single	142	304	628	7	0	0	490759	683	0	correct_rejection	NA	0
2	Single	143	305	629	9	0	0	491476	683	0	correct_rejection	NA	0
2	Single	144	306	630	6	0	0	492192	684	0	correct_rejection	NA	0
2	Single	145	307	631	0	1	1	492909	683	1	hit	491	0
2	Single	146	308	632	5	0	0	493626	683	0	correct_rejection	NA	0
2	Single	147	309	633	4	0	0	494342	684	0	correct_rejection	NA	0
2	Single	148	310	634	0	1	1	495059	683	1	hit	425	0
2	Single	149	311	635	5	0	0	495776	683	0	correct_rejection	NA	0
2	Single	150	312	636	7	0	0	496492	684	0	correct_rejection	NA	0
2	Single	151	313	637	8	0	0	497209	683	0	correct_rejection	NA	0
2	Single	152	314	638	7	0	0	497926	683	0	correct_rejection	NA	0
2	Single	153	315	639	4	0	0	498642	684	0	correct_rejection	NA	0
2	Single	154	316	640	4	0	0	499359	683	0	correct_rejection	NA	0
2	Single	155	317	641	7	0	0	500076	683	0	correct_rejection	NA	0
2	Single	156	318	642	7	0	0	500792	684	0	correct_rejection	NA	0
2	Single	157	319	643	6	0	0	501509	683	0	correct_rejection	NA	0
2	Single	158	320	644	6	0	0	502226	683	0	correct_rejection	NA	0
2	Single	159	321	645	4	0	0	502942	684	0	correct_rejection	NA	0
2	Single	160	322	646	9	0	0	503659	683	0	correct_rejection	NA	0
2	Single	161	323	647	9	0	0	504376	683	0	correct_rejection	NA	0
2	Single	162	324	648	4	0	0	505092	684	0	correct_rejection	NA	0
2	Nonet	1	1	649	9	0	0	515092	683	0	correct_rejection	NA	9234
2	Nonet	2	2	650	8	0	0	515809	683	0	correct_rejection	NA	0
2	Nonet	3	3	651	7	0	0	516525	684	0	correct_rejection	NA	0
2	Nonet	4	4	652	9	0	0	517242	683	0	correct_rejection	NA	0
2	Nonet	5	5	653	8	0	0	517959	683	0	correct_rejection	NA	0
2	Nonet	6	6	654	7	0	0	518675	684	0	correct_rejection	NA	0
2	Nonet	7	7	655	9	0	0	519392	683	0	correct_rejection	NA	0
2	Nonet	8	8	656	8	0	0	520109	683	0	correct_rejection	NA	0
2	Nonet	9	9	657	7	0	0	520825	684	0	correct_rejection	NA	0
2	Nonet	10	10	658	6	0	0	521542	683	0	correct_rejection	NA	0
2	Nonet	11	11	659	5	0	0	522259	683	0	correct_rejection	NA	0
2	Nonet	12	12	660	4	0	0	522975	684	0	correct_rejection	NA	0
2	Nonet	13	13	661	6	0	0	523692	683	0	correct_rejection	NA	0
2	Nonet	14	14	662	5	0	0	524409	683	0	correct_rejection	NA	0
2	Nonet	15	15	663	4	0	0	525125	684	0	correct_rejection	NA	0
2	Nonet	16	16	664	6	0	0	525842	683	0	correct_rejection	NA	0
2	Nonet	17	17	665	0	1	1	526559	683	1	hit	380	0
2	Nonet	18	18	666	5	0	0	527275	684	0	correct_rejection	NA	0
2	Nonet	19	19	667	4	0	0	527992	683	0	correct_rejection	NA	0
2	Nonet	20	20	668	6	0	0	528709	683	0	correct_rejection	NA	0
2	Nonet	21	21	669	5	0	0	529425	684	0	correct_rejection	NA	0
2	Nonet	22	22	670	0	1	1	530142	683	1	hit	416	0
2	Nonet	23	23	671	4	0	0	530858	684	0	correct_rejection	NA	0
2	Nonet	24	24	672	6	0	0	531575	684	0	correct_rejection	NA	0
2	Nonet	25	25	673	5	0	0	532292	683	0	correct_rejection	NA	0
2	Nonet	26	26	674	4	0	0	533008	684	0	correct_rejection	NA	0
2	Nonet	27	27	675	6	0	0	533725	683	0	correct_rejection	NA	0
2	Nonet	28	28	676	5	0	0	534442	683	0	correct_rejection	NA	0
2	Nonet	29	29	677	4	0	0	535158	684	0	correct_rejection	NA	0
2	Nonet	30	30	678	9	0	0	535875	683	0	correct_rejection	NA	0
2	Nonet	31	31	679	8	0	0	536592	683	0	correct_rejection	NA	0
2	Nonet	32	32	680	0	1	1	537308	684	1	hit	369	0
2	Nonet	33	33	681	7	0	0	538025	683	0	correct_rejection	NA	0
2	Nonet	34	34	682	9	0	0	538742	683	0	correct_rejection	NA	0
2	Nonet	35	35	683	8	0	0	539458	684	0	correct_rejection	NA	0
2	Nonet	36	36	684	7	0	0	540175	683	0	correct_rejection	NA	0
2	Nonet	37	37	685	9	0	0	540892	683	0	correct_rejection	NA	0
2	Nonet	38	38	686	8	0	0	541608	684	0	correct_rejection	NA	0
2	Nonet	39	39	687	7	0	0	542325	683	0	correct_rejection	NA	0
2	Nonet	40	40	688	4	0	0	543042	683	0	correct_rejection	NA	0
2	Nonet	41	41	689	5	0	0	543758	684	0	correct_rejection	NA	0
2	Nonet	42	42	690	6	0	0	544475	683	0	correct_rejection	NA	0
2	Nonet	43	43	691	0	1	2	545192	683	1	hit	414	0
2	Nonet	44	44	692	4	0	0	545908	684	0	correct_rejection	NA	0
2	Nonet	45	45	693	5	0	0	546625	683	0	correct_rejection	NA	0
2	Nonet	46	46	694	6	0	0	547342	683	0	correct_rejection	NA	0
2	Nonet	47	47	695	0	1	2	548058	684	1	hit	494	0
2	Nonet	48	48	696	4	0	0	548775	683	0	correct_rejection	NA	0
2	Nonet	49	49	697	5	0	0	549492	683	0	correct_rejection	NA	0
2	Nonet	50	50	698	6	0	0	550208	684	0	correct_rejection	NA	0
2	Nonet	51	51	699	4	0	0	550925	683	0	correct_rejection	NA	0
2	Nonet	52	52	700	5	0	0	551642	683	0	correct_rejection	NA	0
2	Nonet	53	53	701	0	1	1	552358	684	1	hit	351	0
2	Nonet	54	54	702	6	0	0	553075	683	0	correct_rejection	NA	0
2	Nonet	55	55	703	4	0	0	553791	684	0	correct_rejection	NA	0
2	Nonet	56	56	704	5	0	0	554508	683	0	correct_rejection	NA	0
2	Nonet	57	57	705	6	0	0	555225	683	0	correct_rejection	NA	0
2	Nonet	58	58	706	4	0	0	555941	684	0	correct_rejection	NA	0
2	Nonet	59	59	707	5	0	0	556658	683	0	correct_rejection	NA	0
2	Nonet	60	60	708	6	0	0	557375	683	0	correct_rejection	NA	0
2	Nonet	61	61	709	7	0	0	558091	684	0	correct_rejection	NA	0
2	Nonet	62	62	710	8	0	0	558808	683	0	correct_rejection	NA	0
2	Nonet	63	63	711	9	0	0	559525	683	0	correct_rejection	NA	0
2	Nonet	64	64	712	7	0	0	560241	684	0	correct_rejection	NA	0
2	Nonet	65	65	713	8	0	0	560958	683	0	correct_rejection	NA	0
2	Nonet	66	66	714	0	1	1	561675	683	1	hit	385	0
2	Nonet	67	67	715	9	0	0	562391	684	0	correct_rejection	NA	0
2	Nonet	68	68	716	7	0	0	563108	683	0	correct_rejection	NA	0
2	Nonet	69	69	717	8	0	0	563825	683	0	correct_rejection	NA	0
2	Nonet	70	70	718	9	0	0	564541	684	0	correct_rejection	NA	0
2	Nonet	71	71	719	4	0	0	565258	683	0	correct_rejection	NA	0
2	Nonet	72	72	720	5	0	0	565975	683	0	correct_rejection	NA	0
2	Nonet	73	73	721	6	0	0	566691	684	0	correct_rejection	NA	0
2	Nonet	74	74	722	4	0	0	567408	683	0	correct_rejection	NA	0
2	Nonet	75	75	723	5	0	0	568125	683	0	correct_rejection	NA	0
2	Nonet	76	76	724	6	0	0	568841	684	0	correct_rejection	NA	0
2	Nonet	77	77	725	4	0	0	569558	683	0	correct_rejection	NA	0
2	Nonet	78	78	726	5	0	0	570275	683	0	correct_rejection	NA	0
2	Nonet	79	79	727	6	0	0	570991	684	0	correct_rejection	NA	0
2	Nonet	80	80	728	9	0	0	571708	683	0	correct_rejection	NA	0
2	Nonet	81	81	729	8	0	0	572425	683	0	correct_rejection	NA	0
2	Nonet	82	82	730	0	1	1	573141	684	1	hit	394	0
2	Nonet	83	83	731	7	0	0	573858	683	0	correct_rejection	NA	0
2	Nonet	84	84	732	9	0	0	574575	683	0	correct_rejection	NA	0
2	Nonet	85	85	733	8	0	0	575291	684	0	correct_rejection	NA	0
2	Nonet	86	86	734	0	1	1	576008	683	1	hit	435	0
2	Nonet	87	87	735	7	0	0	576724	684	0	correct_rejection	NA	0
2	Nonet	88	88	736	9	0	0	577441	684	0	correct_rejection	NA	0
2	Nonet	89	89	737	8	0	0	578158	683	0	correct_rejection	NA	0
2	Nonet	90	90	738	7	0	0	578874	684	0	correct_rejection	NA	0
2	Nonet	91	91	739	0	1	3	579591	683	1	hit	387	0
2	Nonet	92	92	740	9	0	0	580308	683	0	correct_rejection	NA	0
2	Nonet	93	93	741	8	0	0	581024	684	0	correct_rejection	NA	0
2	Nonet	94	94	742	7	0	0	581741	683	0	correct_rejection	NA	0
2	Nonet	95	95	743	9	0	0	582458	683	0	correct_rejection	NA	0
2	Nonet	96	96	744	8	0	0	583174	684	0	correct_rejection	NA	0
2	Nonet	97	97	745	7	0	0	583891	683	0	correct_rejection	NA	0
2	Nonet	98	98	746	9	0	0	584608	683	0	correct_rejection	NA	0
2	Nonet	99	99	747	8	0	0	585324	684	0	correct_rejection	NA	0
2	Nonet	100	100	748	7	0	0	586041	683	0	correct_rejection	NA	0
2	Nonet	101	101	749	7	0	0	586758	683	0	correct_rejection	NA	0
2	Nonet	102	102	750	0	1	1	587474	684	1	hit	420	0
2	Nonet	103	103	751	8	0	0	588191	683	0	correct_rejection	NA	0
2	Nonet	104	104	752	9	0	0	588908	683	0	correct_rejection	NA	0
2	Nonet	105	105	753	7	0	0	589624	684	0	correct_rejection	NA	0
2	Nonet	106	106	754	8	0	0	590341	683	0	correct_rejection	NA	0
2	Nonet	107	107	755	9	0	0	591058	683	0	correct_rejection	NA	0
2	Nonet	108	108	756	7	0	0	591774	684	0	correct_rejection	NA	0
2	Nonet	109	109	757	8	0	0	592491	683	0	correct_rejection	NA	0
2	Nonet	110	110	758	9	0	0	593208	683	0	correct_rejection	NA	0
2	Nonet	111	111	759	6	0	0	593924	684	0	correct_rejection	NA	0
2	Nonet	112	112	760	5	0	0	594641	683	0	correct_rejection	NA	0
2	Nonet	113	113	761	0	1	1	595358	683	1	hit	395	0
2	Nonet	114	114	762	4	0	0	596074	684	0	correct_rejection	NA	0
2	Nonet	115	115	763	6	0	0	596791	683	0	correct_rejection	NA	0
2	Nonet	116	116	764	5	0	0	597508	683	0	correct_rejection	NA	0
2	Nonet	117	117	765	4	0	0	598224	684	0	correct_rejection	NA	0
2	Nonet	118	118	766	0	1	2	598941	683	1	hit	396	0
2	Nonet	119	119	767	6	0	0	599657	684	0	correct_rejection	NA	0
2	Nonet	120	120	768	5	0	0	600374	684	0	correct_rejection	NA	0
2	Nonet	121	121	769	4	0	0	601091	683	0	correct_rejection	NA	0
2	Nonet	122	122	770	4	0	0	601807	684	0	correct_rejection	NA	0
2	Nonet	123	123	771	5	0	0	602524	683	0	correct_rejection	NA	0
2	Nonet	124	124	772	6	0	0	603241	683	0	correct_rejection	NA	0
2	Nonet	125	125	773	4	0	0	603957	684	0	correct_rejection	NA	0
2	Nonet	126	126	774	5	0	0	604674	683	0	correct_rejection	NA	0
2	Nonet	127	127	775	0	1	1	605391	683	1	hit	396	0
2	Nonet	128	128	776	6	0	0	606107	684	0	correct_rejection	NA	0
2	Nonet	129	129	777	4	0	0	606824	683	0	correct_rejection	NA	0
2	Nonet	130	130	778	0	1	1	607541	683	1	hit	396	0
2	Nonet	131	131	779	5	0	0	608257	684	0	correct_rejection	NA	0
2	Nonet	132	132	780	6	0	0	608974	683	0	correct_rejection	NA	0
2	Nonet	133	133	781	6	0	0	609691	683	0	correct_rejection	NA	0
2	Nonet	134	134	782	5	0	0	610407	684	0	correct_rejection	NA	0
2	Nonet	135	135	783	4	0	0	611124	683	0	correct_rejection	NA	0
2	Nonet	136	136	784	6	0	0	611841	683	0	correct_rejection	NA	0
2	Nonet	137	137	785	5	0	0	612557	684	0	correct_rejection	NA	0
2	Nonet	138	138	786	4	0	0	613274	683	0	correct_rejection	NA	0
2	Nonet	139	139	787	6	0	0	613991	683	0	correct_rejection	NA	0
2	Nonet	140	140	788	5	0	0	614707	684	0	correct_rejection	NA	0
2	Nonet	141	141	789	4	0	0	615424	683	0	correct_rejection	NA	0
2	Nonet	142	142	790	7	0	0	616141	683	0	correct_rejection	NA	0
2	Nonet	143	143	791	8	0	0	616857	684	0	correct_rejection	NA	0
2	Nonet	144	144	792	0	1	1	617574	683	1	hit	367	0
2	Nonet	145	145	793	9	0	0	618291	683	0	correct_rejection	NA	0
2	Nonet	146	146	794	7	0	0	619007	684	0	correct_rejection	NA	0
2	Nonet	147	147	795	8	0	0	619724	683	0	correct_rejection	NA	0
2	Nonet	148	148	796	9	0	0	620441	683	0	correct_rejection	NA	0
2	Nonet	149	149	797	0	1	2	621157	684	1	hit	417	0
2	Nonet	150	150	798	7	0	0	621874	683	0	correct_rejection	NA	0
2	Nonet	151	151	799	8	0	0	622590	684	0	correct_rejection	NA	0
2	Nonet	152	152	800	9	0	0	623307	684	0	correct_rejection	NA	0
2	Nonet	153	153	801	7	0	0	624024	683	0	correct_rejection	NA	0
2	Nonet	154	154	802	8	0	0	624740	684	0	correct_rejection	NA	0
2	Nonet	155	155	803	9	0	0	625457	683	0	correct_rejection	NA	0
2	Nonet	156	156	804	7	0	0	626174	683	0	correct_rejection	NA	0
2	Nonet	157	157	805	8	0	0	626890	684	0	correct_rejection	NA	0
2	Nonet	158	158	806	9	0	0	627607	683	0	correct_rejection	NA	0
2	Nonet	159	159	807	0	1	2	628324	683	1	hit	411	0
2	Nonet	160	160	808	7	0	0	629040	684	0	correct_rejection	NA	0
2	Nonet	161	161	809	8	0	0	629757	683	0	correct_rejection	NA	0
2	Nonet	162	162	810	9	0	0	630474	683	0	correct_rejection	NA	0
trigger nr 620 at 630352
trigger nr 632 at 713610
2	Single	1	1	811	9	0	0	719922	684	0	correct_rejection	NA	6234
2	Single	2	2	812	5	0	0	720639	683	0	correct_rejection	NA	0
2	Single	3	3	813	4	0	0	721356	683	0	correct_rejection	NA	0
2	Single	4	4	814	7	0	0	722072	684	0	correct_rejection	NA	0
2	Single	5	5	815	9	0	0	722789	683	0	correct_rejection	NA	0
2	Single	6	6	816	4	0	0	723506	683	0	correct_rejection	NA	0
2	Single	7	7	817	4	0	0	724222	684	0	correct_rejection	NA	0
2	Single	8	8	818	5	0	0	724939	683	0	correct_rejection	NA	0
2	Single	9	9	819	0	1	1	725656	683	1	hit	322	0
2	Single	10	10	820	8	0	0	726372	684	0	correct_rejection	NA	0
2	Single	11	11	821	7	0	0	727089	683	0	correct_rejection	NA	0
2	Single	12	12	822	5	0	0	727806	683	0	correct_rejection	NA	0
2	Single	13	13	823	7	0	0	728522	684	0	correct_rejection	NA	0
2	Single	14	14	824	0	1	1	729239	683	1	hit	373	0
2	Single	15	15	825	7	0	0	729956	683	0	correct_rejection	NA	0
2	Single	16	16	826	8	0	0	730672	684	0	correct_rejection	NA	0
2	Single	17	17	827	9	0	0	731389	683	0	correct_rejection	NA	0
2	Single	18	18	828	8	0	0	732106	683	0	correct_rejection	NA	0
2	Single	19	19	829	6	0	0	732822	684	0	correct_rejection	NA	0
2	Single	20	20	830	4	0	0	733539	683	0	correct_rejection	NA	0
2	Single	21	21	831	0	1	1	734256	683	1	hit	350	0
2	Single	22	22	832	9	0	0	734972	684	0	correct_rejection	NA	0
2	Single	23	23	833	9	0	0	735689	683	0	correct_rejection	NA	0
2	Single	24	24	834	7	0	0	736406	683	0	correct_rejection	NA	0
2	Single	25	25	835	0	1	1	737122	684	1	hit	364	0
2	Single	26	26	836	6	0	0	737839	683	0	correct_rejection	NA	0
2	Single	27	27	837	6	0	0	738555	684	0	correct_rejection	NA	0
2	Single	28	28	838	8	0	0	739272	683	0	correct_rejection	NA	0
2	Single	29	29	839	5	0	0	739989	683	0	correct_rejection	NA	0
2	Single	30	30	840	6	0	0	740705	684	0	correct_rejection	NA	0
2	Single	31	31	841	0	1	1	741422	683	1	hit	356	0
2	Single	32	32	842	7	0	0	742139	683	0	correct_rejection	NA	0
2	Single	33	33	843	4	0	0	742855	684	0	correct_rejection	NA	0
2	Single	34	34	844	8	0	0	743572	683	0	correct_rejection	NA	0
2	Single	35	35	845	8	0	0	744289	683	0	correct_rejection	NA	0
2	Single	36	36	846	4	0	0	745005	684	0	correct_rejection	NA	0
2	Single	37	37	847	6	0	0	745722	683	0	correct_rejection	NA	0
2	Single	38	38	848	5	0	0	746439	683	0	correct_rejection	NA	0
2	Single	39	39	849	5	0	0	747155	684	0	correct_rejection	NA	0
2	Single	40	40	850	9	0	0	747872	683	0	correct_rejection	NA	0
2	Single	41	41	851	6	0	0	748589	683	0	correct_rejection	NA	0
2	Single	42	42	852	4	0	0	749305	684	0	correct_rejection	NA	0
2	Single	43	43	853	9	0	0	750022	683	0	correct_rejection	NA	0
2	Single	44	44	854	8	0	0	750739	683	0	correct_rejection	NA	0
2	Single	45	45	855	8	0	0	751455	684	0	correct_rejection	NA	0
2	Single	46	46	856	6	0	0	752172	683	0	correct_rejection	NA	0
2	Single	47	47	857	9	0	0	752889	683	0	correct_rejection	NA	0
2	Single	48	48	858	6	0	0	753605	684	0	correct_rejection	NA	0
2	Single	49	49	859	6	0	0	754322	683	0	correct_rejection	NA	0
2	Single	50	50	860	7	0	0	755039	683	0	correct_rejection	NA	0
2	Single	51	51	861	5	0	0	755755	684	0	correct_rejection	NA	0
2	Single	52	52	862	6	0	0	756472	683	0	correct_rejection	NA	0
2	Single	53	53	863	5	0	0	757189	683	0	correct_rejection	NA	0
2	Single	54	54	864	8	0	0	757905	684	0	correct_rejection	NA	0
2	Single	55	55	865	4	0	0	758622	683	0	correct_rejection	NA	0
2	Single	56	56	866	5	0	0	759339	683	0	correct_rejection	NA	0
2	Single	57	57	867	4	0	0	760055	684	0	correct_rejection	NA	0
2	Single	58	58	868	8	0	0	760772	683	0	correct_rejection	NA	0
2	Single	59	59	869	7	0	0	761488	684	0	correct_rejection	NA	0
2	Single	60	60	870	7	0	0	762205	684	0	correct_rejection	NA	0
2	Single	61	61	871	6	0	0	762922	683	0	correct_rejection	NA	0
2	Single	62	62	872	8	0	0	763638	684	0	correct_rejection	NA	0
2	Single	63	63	873	9	0	0	764355	683	0	correct_rejection	NA	0
2	Single	64	64	874	7	0	0	765072	683	0	correct_rejection	NA	0
2	Single	65	65	875	9	0	0	765788	684	0	correct_rejection	NA	0
2	Single	66	66	876	5	0	0	766505	683	0	correct_rejection	NA	0
2	Single	67	67	877	5	0	0	767222	683	0	correct_rejection	NA	0
2	Single	68	68	878	7	0	0	767938	684	0	correct_rejection	NA	0
2	Single	69	69	879	4	0	0	768655	683	0	correct_rejection	NA	0
2	Single	70	70	880	6	0	0	769372	683	0	correct_rejection	NA	0
2	Single	71	71	881	4	0	0	770088	684	0	correct_rejection	NA	0
2	Single	72	72	882	0	1	1	770805	683	1	hit	415	0
2	Single	73	73	883	4	0	0	771522	683	0	correct_rejection	NA	0
2	Single	74	74	884	7	0	0	772238	684	0	correct_rejection	NA	0
2	Single	75	75	885	0	1	1	772955	683	1	hit	441	0
2	Single	76	76	886	8	0	0	773672	683	0	correct_rejection	NA	0
2	Single	77	77	887	5	0	0	774388	684	0	correct_rejection	NA	0
2	Single	78	78	888	9	0	0	775105	683	0	correct_rejection	NA	0
2	Single	79	79	889	9	0	0	775822	683	0	correct_rejection	NA	0
2	Single	80	80	890	4	0	0	776538	684	0	correct_rejection	NA	0
2	Single	81	81	891	9	0	0	777255	683	0	correct_rejection	NA	0
2	Single	82	82	892	0	1	1	777972	683	1	hit	378	0
2	Single	83	83	893	6	0	0	778688	684	0	correct_rejection	NA	0
2	Single	84	84	894	4	0	0	779405	683	0	correct_rejection	NA	0
2	Single	85	85	895	6	0	0	780122	683	0	correct_rejection	NA	0
2	Single	86	86	896	8	0	0	780838	684	0	correct_rejection	NA	0
2	Single	87	87	897	0	1	1	781555	683	1	hit	366	0
2	Single	88	88	898	8	0	0	782272	683	0	correct_rejection	NA	0
2	Single	89	89	899	5	0	0	782988	684	0	correct_rejection	NA	0
2	Single	90	90	900	7	0	0	783705	683	0	correct_rejection	NA	0
2	Single	91	91	901	8	0	0	784421	684	0	correct_rejection	NA	0
2	Single	92	92	902	6	0	0	785138	684	0	correct_rejection	NA	0
2	Single	93	93	903	7	0	0	785855	683	0	correct_rejection	NA	0
2	Single	94	94	904	9	0	0	786571	684	0	correct_rejection	NA	0
2	Single	95	95	905	8	0	0	787288	683	0	correct_rejection	NA	0
2	Single	96	96	906	7	0	0	788005	683	0	correct_rejection	NA	0
2	Single	97	97	907	6	0	0	788721	684	0	correct_rejection	NA	0
2	Single	98	98	908	9	0	0	789438	683	0	correct_rejection	NA	0
2	Single	99	99	909	0	1	1	790155	683	1	hit	393	0
2	Single	100	100	910	7	0	0	790871	684	0	correct_rejection	NA	0
2	Single	101	101	911	7	0	0	791588	683	0	correct_rejection	NA	0
2	Single	102	102	912	4	0	0	792305	683	0	correct_rejection	NA	0
2	Single	103	103	913	5	0	0	793021	684	0	correct_rejection	NA	0
2	Single	104	104	914	5	0	0	793738	683	0	correct_rejection	NA	0
2	Single	105	105	915	8	0	0	794455	683	0	correct_rejection	NA	0
2	Single	106	106	916	9	0	0	795171	684	0	correct_rejection	NA	0
2	Single	107	107	917	0	1	1	795888	683	1	hit	420	0
2	Single	108	108	918	9	0	0	796605	683	0	correct_rejection	NA	0
2	Single	109	109	919	4	0	0	797321	684	0	correct_rejection	NA	0
2	Single	110	110	920	0	1	1	798038	683	1	hit	424	0
2	Single	111	111	921	8	0	0	798755	683	0	correct_rejection	NA	0
2	Single	112	112	922	4	0	0	799471	684	0	correct_rejection	NA	0
2	Single	113	113	923	0	1	1	800188	683	1	hit	461	0
2	Single	114	114	924	7	0	0	800905	683	0	correct_rejection	NA	0
2	Single	115	115	925	5	0	0	801621	684	0	correct_rejection	NA	0
2	Single	116	116	926	9	0	0	802338	683	0	correct_rejection	NA	0
2	Single	117	117	927	5	0	0	803055	683	0	correct_rejection	NA	0
2	Single	118	118	928	6	0	0	803771	684	0	correct_rejection	NA	0
2	Single	119	119	929	6	0	0	804488	683	0	correct_rejection	NA	0
2	Single	120	120	930	5	0	0	805205	683	0	correct_rejection	NA	0
2	Single	121	121	931	0	1	1	805921	684	1	hit	438	0
2	Single	122	122	932	4	0	0	806638	683	0	correct_rejection	NA	0
2	Single	123	123	933	9	0	0	807354	684	0	correct_rejection	NA	0
2	Single	124	124	934	7	0	0	808071	684	0	correct_rejection	NA	0
2	Single	125	125	935	6	0	0	808788	683	0	correct_rejection	NA	0
2	Single	126	126	936	4	0	0	809504	684	0	correct_rejection	NA	0
2	Single	127	127	937	9	0	0	810221	683	0	correct_rejection	NA	0
2	Single	128	128	938	4	0	0	810938	683	0	correct_rejection	NA	0
2	Single	129	129	939	4	0	0	811654	684	0	correct_rejection	NA	0
2	Single	130	130	940	8	0	0	812371	683	0	correct_rejection	NA	0
2	Single	131	131	941	5	0	0	813088	683	0	correct_rejection	NA	0
2	Single	132	132	942	8	0	0	813804	684	0	correct_rejection	NA	0
2	Single	133	133	943	6	0	0	814521	683	0	correct_rejection	NA	0
2	Single	134	134	944	8	0	0	815238	683	0	correct_rejection	NA	0
2	Single	135	135	945	4	0	0	815954	684	0	correct_rejection	NA	0
2	Single	136	136	946	6	0	0	816671	683	0	correct_rejection	NA	0
2	Single	137	137	947	0	1	1	817388	683	1	hit	359	0
2	Single	138	138	948	6	0	0	818104	684	0	correct_rejection	NA	0
2	Single	139	139	949	9	0	0	818821	683	0	correct_rejection	NA	0
2	Single	140	140	950	5	0	0	819538	683	0	correct_rejection	NA	0
2	Single	141	141	951	4	0	0	820254	684	0	correct_rejection	NA	0
2	Single	142	142	952	5	0	0	820971	683	0	correct_rejection	NA	0
2	Single	143	143	953	0	1	1	821688	683	1	hit	358	0
2	Single	144	144	954	6	0	0	822404	684	0	correct_rejection	NA	0
2	Single	145	145	955	7	0	0	823121	683	0	correct_rejection	NA	0
2	Single	146	146	956	8	0	0	823838	683	0	correct_rejection	NA	0
2	Single	147	147	957	8	0	0	824554	684	0	correct_rejection	NA	0
2	Single	148	148	958	7	0	0	825271	683	0	correct_rejection	NA	0
2	Single	149	149	959	4	0	0	825988	683	0	correct_rejection	NA	0
2	Single	150	150	960	7	0	0	826704	684	0	correct_rejection	NA	0
2	Single	151	151	961	9	0	0	827421	683	0	correct_rejection	NA	0
2	Single	152	152	962	6	0	0	828138	683	0	correct_rejection	NA	0
2	Single	153	153	963	5	0	0	828854	684	0	correct_rejection	NA	0
2	Single	154	154	964	0	1	1	829571	683	1	hit	374	0
2	Single	155	155	965	7	0	0	830287	684	0	correct_rejection	NA	0
2	Single	156	156	966	7	0	0	831004	684	0	correct_rejection	NA	0
2	Single	157	157	967	0	1	1	831721	683	1	hit	403	0
2	Single	158	158	968	5	0	0	832437	684	0	correct_rejection	NA	0
2	Single	159	159	969	5	0	0	833154	683	0	correct_rejection	NA	0
2	Single	160	160	970	9	0	0	833871	683	0	correct_rejection	NA	0
2	Single	161	161	971	8	0	0	834587	684	0	correct_rejection	NA	0
2	Single	162	162	972	9	0	0	835304	683	0	correct_rejection	NA	0
2	Correct	1	325	973	4	0	0	845271	683	0	correct_rejection	NA	9210
2	Correct	2	326	974	5	0	0	845987	684	0	correct_rejection	NA	0
2	Correct	3	327	975	6	0	0	846704	683	0	correct_rejection	NA	0
2	Correct	4	328	976	4	0	0	847421	683	0	correct_rejection	NA	0
2	Correct	5	329	977	5	0	0	848137	684	0	correct_rejection	NA	0
2	Correct	6	330	978	6	0	0	848854	683	0	correct_rejection	NA	0
2	Correct	7	331	979	4	0	0	849571	683	0	correct_rejection	NA	0
2	Correct	8	332	980	5	0	0	850287	684	0	correct_rejection	NA	0
2	Correct	9	333	981	6	0	0	851004	683	0	correct_rejection	NA	0
2	Correct	10	334	982	0	1	3	851721	683	1	hit	332	0
2	Correct	11	335	983	6	0	0	852437	684	0	correct_rejection	NA	0
2	Correct	12	336	984	5	0	0	853154	683	0	correct_rejection	NA	0
2	Correct	13	337	985	4	0	0	853870	684	0	correct_rejection	NA	0
2	Correct	14	338	986	6	0	0	854587	684	0	correct_rejection	NA	0
2	Correct	15	339	987	5	0	0	855304	683	0	correct_rejection	NA	0
2	Correct	16	340	988	4	0	0	856020	684	0	correct_rejection	NA	0
2	Correct	17	341	989	6	0	0	856737	683	0	correct_rejection	NA	0
2	Correct	18	342	990	0	1	1	857454	683	1	hit	364	0
2	Correct	19	343	991	5	0	0	858170	684	0	correct_rejection	NA	0
2	Correct	20	344	992	4	0	0	858887	683	0	correct_rejection	NA	0
2	Correct	21	345	993	9	0	0	859604	683	0	correct_rejection	NA	0
2	Correct	22	346	994	8	0	0	860320	684	0	correct_rejection	NA	0
2	Correct	23	347	995	7	0	0	861037	683	0	correct_rejection	NA	0
2	Correct	24	348	996	0	1	2	861754	683	1	hit	362	0
2	Correct	25	349	997	9	0	0	862470	684	0	correct_rejection	NA	0
2	Correct	26	350	998	8	0	0	863187	683	0	correct_rejection	NA	0
2	Correct	27	351	999	7	0	0	863904	683	0	correct_rejection	NA	0
2	Correct	28	352	1000	9	0	0	864620	684	0	correct_rejection	NA	0
2	Correct	29	353	1001	8	0	0	865337	683	0	correct_rejection	NA	0
2	Correct	30	354	1002	7	0	0	866054	683	0	correct_rejection	NA	0
2	Correct	31	355	1003	7	0	0	866770	684	0	correct_rejection	NA	0
2	Correct	32	356	1004	8	0	0	867487	683	0	correct_rejection	NA	0
2	Correct	33	357	1005	9	0	0	868204	683	0	correct_rejection	NA	0
2	Correct	34	358	1006	7	0	0	868920	684	0	correct_rejection	NA	0
2	Correct	35	359	1007	8	0	0	869637	683	0	correct_rejection	NA	0
2	Correct	36	360	1008	9	0	0	870354	683	0	correct_rejection	NA	0
2	Correct	37	361	1009	7	0	0	871070	684	0	correct_rejection	NA	0
2	Correct	38	362	1010	0	1	1	871787	683	1	hit	370	0
2	Correct	39	363	1011	8	0	0	872504	683	0	correct_rejection	NA	0
2	Correct	40	364	1012	9	0	0	873220	684	0	correct_rejection	NA	0
2	Correct	41	365	1013	4	0	0	873937	683	0	correct_rejection	NA	0
2	Correct	42	366	1014	5	0	0	874654	683	0	correct_rejection	NA	0
2	Correct	43	367	1015	6	0	0	875370	684	0	correct_rejection	NA	0
2	Correct	44	368	1016	4	0	0	876087	683	0	correct_rejection	NA	0
2	Correct	45	369	1017	5	0	0	876803	684	0	correct_rejection	NA	0
2	Correct	46	370	1018	6	0	0	877520	684	0	correct_rejection	NA	0
2	Correct	47	371	1019	4	0	0	878237	683	0	correct_rejection	NA	0
2	Correct	48	372	1020	0	1	1	878953	684	1	hit	342	0
2	Correct	49	373	1021	5	0	0	879670	683	0	correct_rejection	NA	0
2	Correct	50	374	1022	6	0	0	880387	683	0	correct_rejection	NA	0
2	Correct	51	375	1023	6	0	0	881103	684	0	correct_rejection	NA	0
2	Correct	52	376	1024	5	0	0	881820	683	0	correct_rejection	NA	0
2	Correct	53	377	1025	4	0	0	882537	683	0	correct_rejection	NA	0
2	Correct	54	378	1026	6	0	0	883253	684	0	correct_rejection	NA	0
2	Correct	55	379	1027	5	0	0	883970	683	0	correct_rejection	NA	0
2	Correct	56	380	1028	4	0	0	884687	683	0	correct_rejection	NA	0
2	Correct	57	381	1029	6	0	0	885403	684	0	correct_rejection	NA	0
2	Correct	58	382	1030	5	0	0	886120	683	0	correct_rejection	NA	0
2	Correct	59	383	1031	4	0	0	886837	683	0	correct_rejection	NA	0
2	Correct	60	384	1032	9	0	0	887553	684	0	correct_rejection	NA	0
2	Correct	61	385	1033	8	0	0	888270	683	0	correct_rejection	NA	0
2	Correct	62	386	1034	7	0	0	888987	683	0	correct_rejection	NA	0
2	Correct	63	387	1035	9	0	0	889703	684	0	correct_rejection	NA	0
2	Correct	64	388	1036	8	0	0	890420	683	0	correct_rejection	NA	0
2	Correct	65	389	1037	0	1	1	891137	683	1	hit	373	0
2	Correct	66	390	1038	7	0	0	891853	684	0	correct_rejection	NA	0
2	Correct	67	391	1039	9	0	0	892570	683	0	correct_rejection	NA	0
2	Correct	68	392	1040	8	0	0	893287	683	0	correct_rejection	NA	0
2	Correct	69	393	1041	7	0	0	894003	684	0	correct_rejection	NA	0
2	Correct	70	394	1042	7	0	0	894720	683	0	correct_rejection	NA	0
2	Correct	71	395	1043	8	0	0	895437	683	0	correct_rejection	NA	0
2	Correct	72	396	1044	9	0	0	896153	684	0	correct_rejection	NA	0
2	Correct	73	397	1045	0	1	2	896870	683	1	hit	377	0
2	Correct	74	398	1046	7	0	0	897587	683	0	correct_rejection	NA	0
2	Correct	75	399	1047	8	0	0	898303	684	0	correct_rejection	NA	0
2	Correct	76	400	1048	0	1	1	899020	683	1	hit	508	0
2	Correct	77	401	1049	9	0	0	899736	684	0	correct_rejection	NA	0
2	Correct	78	402	1050	7	0	0	900453	684	0	correct_rejection	NA	0
2	Correct	79	403	1051	8	0	0	901170	683	0	correct_rejection	NA	0
2	Correct	80	404	1052	0	1	1	901886	684	1	hit	418	0
2	Correct	81	405	1053	9	0	0	902603	683	0	correct_rejection	NA	0
2	Correct	82	406	1054	4	0	0	903320	683	0	correct_rejection	NA	0
2	Correct	83	407	1055	5	0	0	904036	684	0	correct_rejection	NA	0
2	Correct	84	408	1056	0	1	1	904753	683	1	hit	423	0
2	Correct	85	409	1057	6	0	0	905470	683	0	correct_rejection	NA	0
2	Correct	86	410	1058	4	0	0	906186	684	0	correct_rejection	NA	0
2	Correct	87	411	1059	5	0	0	906903	683	0	correct_rejection	NA	0
2	Correct	88	412	1060	6	0	0	907620	683	0	correct_rejection	NA	0
2	Correct	89	413	1061	4	0	0	908336	684	0	correct_rejection	NA	0
2	Correct	90	414	1062	5	0	0	909053	683	0	correct_rejection	NA	0
2	Correct	91	415	1063	6	0	0	909770	683	0	correct_rejection	NA	0
2	Correct	92	416	1064	6	0	0	910486	684	0	correct_rejection	NA	0
2	Correct	93	417	1065	5	0	0	911203	683	0	correct_rejection	NA	0
2	Correct	94	418	1066	4	0	0	911920	683	0	correct_rejection	NA	0
2	Correct	95	419	1067	6	0	0	912636	684	0	correct_rejection	NA	0
2	Correct	96	420	1068	5	0	0	913353	683	0	correct_rejection	NA	0
2	Correct	97	421	1069	4	0	0	914070	683	0	correct_rejection	NA	0
2	Correct	98	422	1070	6	0	0	914786	684	0	correct_rejection	NA	0
2	Correct	99	423	1071	5	0	0	915503	683	0	correct_rejection	NA	0
2	Correct	100	424	1072	4	0	0	916220	683	0	correct_rejection	NA	0
2	Correct	101	425	1073	9	0	0	916936	684	0	correct_rejection	NA	0
2	Correct	102	426	1074	8	0	0	917653	683	0	correct_rejection	NA	0
2	Correct	103	427	1075	7	0	0	918370	683	0	correct_rejection	NA	0
2	Correct	104	428	1076	0	1	2	919086	684	1	hit	369	0
2	Correct	105	429	1077	9	0	0	919803	683	0	correct_rejection	NA	0
2	Correct	106	430	1078	8	0	0	920520	683	0	correct_rejection	NA	0
2	Correct	107	431	1079	7	0	0	921236	684	0	correct_rejection	NA	0
2	Correct	108	432	1080	9	0	0	921953	683	0	correct_rejection	NA	0
2	Correct	109	433	1081	8	0	0	922669	684	0	correct_rejection	NA	0
2	Correct	110	434	1082	7	0	0	923386	684	0	correct_rejection	NA	0
2	Correct	111	435	1083	0	1	3	924103	683	1	hit	409	0
2	Correct	112	436	1084	7	0	0	924819	684	0	correct_rejection	NA	0
2	Correct	113	437	1085	8	0	0	925536	683	0	correct_rejection	NA	0
2	Correct	114	438	1086	9	0	0	926253	683	0	correct_rejection	NA	0
2	Correct	115	439	1087	7	0	0	926969	684	0	correct_rejection	NA	0
2	Correct	116	440	1088	0	1	1	927686	683	1	hit	419	0
2	Correct	117	441	1089	8	0	0	928403	683	0	correct_rejection	NA	0
2	Correct	118	442	1090	9	0	0	929119	684	0	correct_rejection	NA	0
2	Correct	119	443	1091	7	0	0	929836	683	0	correct_rejection	NA	0
2	Correct	120	444	1092	0	1	1	930553	683	1	hit	372	0
2	Correct	121	445	1093	8	0	0	931269	684	0	correct_rejection	NA	0
2	Correct	122	446	1094	9	0	0	931986	683	0	correct_rejection	NA	0
2	Correct	123	447	1095	4	0	0	932703	683	0	correct_rejection	NA	0
2	Correct	124	448	1096	5	0	0	933419	684	0	correct_rejection	NA	0
2	Correct	125	449	1097	6	0	0	934136	683	0	correct_rejection	NA	0
2	Correct	126	450	1098	4	0	0	934853	683	0	correct_rejection	NA	0
2	Correct	127	451	1099	0	1	1	935569	684	1	hit	378	0
2	Correct	128	452	1100	5	0	0	936286	683	0	correct_rejection	NA	0
2	Correct	129	453	1101	6	0	0	937003	683	0	correct_rejection	NA	0
2	Correct	130	454	1102	4	0	0	937719	684	0	correct_rejection	NA	0
2	Correct	131	455	1103	5	0	0	938436	683	0	correct_rejection	NA	0
2	Correct	132	456	1104	6	0	0	939153	683	0	correct_rejection	NA	0
2	Correct	133	457	1105	6	0	0	939869	684	0	correct_rejection	NA	0
2	Correct	134	458	1106	5	0	0	940586	683	0	correct_rejection	NA	0
2	Correct	135	459	1107	0	1	1	941303	683	1	hit	376	0
2	Correct	136	460	1108	4	0	0	942019	684	0	correct_rejection	NA	0
2	Correct	137	461	1109	6	0	0	942736	683	0	correct_rejection	NA	0
2	Correct	138	462	1110	5	0	0	943453	683	0	correct_rejection	NA	0
2	Correct	139	463	1111	4	0	0	944169	684	0	correct_rejection	NA	0
2	Correct	140	464	1112	6	0	0	944886	683	0	correct_rejection	NA	0
2	Correct	141	465	1113	5	0	0	945603	683	0	correct_rejection	NA	0
2	Correct	142	466	1114	4	0	0	946319	684	0	correct_rejection	NA	0
2	Correct	143	467	1115	9	0	0	947036	683	0	correct_rejection	NA	0
2	Correct	144	468	1116	8	0	0	947752	684	0	correct_rejection	NA	0
2	Correct	145	469	1117	7	0	0	948469	683	0	correct_rejection	NA	0
2	Correct	146	470	1118	9	0	0	949186	683	0	correct_rejection	NA	0
2	Correct	147	471	1119	0	1	1	949902	684	1	hit	393	0
2	Correct	148	472	1120	8	0	0	950619	683	0	correct_rejection	NA	0
2	Correct	149	473	1121	7	0	0	951336	683	0	correct_rejection	NA	0
2	Correct	150	474	1122	9	0	0	952052	684	0	correct_rejection	NA	0
2	Correct	151	475	1123	8	0	0	952769	683	0	correct_rejection	NA	0
2	Correct	152	476	1124	7	0	0	953486	683	0	correct_rejection	NA	0
2	Correct	153	477	1125	7	0	0	954202	684	0	correct_rejection	NA	0
2	Correct	154	478	1126	8	0	0	954919	683	0	correct_rejection	NA	0
2	Correct	155	479	1127	9	0	0	955636	683	0	correct_rejection	NA	0
2	Correct	156	480	1128	0	1	2	956352	684	1	hit	362	0
2	Correct	157	481	1129	7	0	0	957069	683	0	correct_rejection	NA	0
2	Correct	158	482	1130	8	0	0	957786	683	0	correct_rejection	NA	0
2	Correct	159	483	1131	9	0	0	958502	684	0	correct_rejection	NA	0
2	Correct	160	484	1132	7	0	0	959219	683	0	correct_rejection	NA	0
2	Correct	161	485	1133	8	0	0	959936	683	0	correct_rejection	NA	0
2	Correct	162	486	1134	9	0	0	960652	684	0	correct_rejection	NA	0
2	Nonet	1	325	1135	4	0	0	969052	684	0	correct_rejection	NA	7642
2	Nonet	2	326	1136	5	0	0	969769	683	0	correct_rejection	NA	0
2	Nonet	3	327	1137	6	0	0	970485	684	0	correct_rejection	NA	0
2	Nonet	4	328	1138	4	0	0	971202	683	0	correct_rejection	NA	0
2	Nonet	5	329	1139	5	0	0	971919	683	0	correct_rejection	NA	0
2	Nonet	6	330	1140	6	0	0	972635	684	0	correct_rejection	NA	0
2	Nonet	7	331	1141	0	1	2	973352	683	1	hit	362	0
2	Nonet	8	332	1142	4	0	0	974069	683	0	correct_rejection	NA	0
2	Nonet	9	333	1143	5	0	0	974785	684	0	correct_rejection	NA	0
2	Nonet	10	334	1144	6	0	0	975502	683	0	correct_rejection	NA	0
2	Nonet	11	335	1145	6	0	0	976219	683	0	correct_rejection	NA	0
2	Nonet	12	336	1146	0	1	1	976935	684	1	hit	400	0
2	Nonet	13	337	1147	5	0	0	977652	683	0	correct_rejection	NA	0
2	Nonet	14	338	1148	4	0	0	978369	683	0	correct_rejection	NA	0
2	Nonet	15	339	1149	6	0	0	979085	684	0	correct_rejection	NA	0
2	Nonet	16	340	1150	5	0	0	979802	683	0	correct_rejection	NA	0
2	Nonet	17	341	1151	4	0	0	980519	683	0	correct_rejection	NA	0
2	Nonet	18	342	1152	6	0	0	981235	684	0	correct_rejection	NA	0
2	Nonet	19	343	1153	5	0	0	981952	683	0	correct_rejection	NA	0
2	Nonet	20	344	1154	4	0	0	982669	683	0	correct_rejection	NA	0
2	Nonet	21	345	1155	4	0	0	983385	684	0	correct_rejection	NA	0
2	Nonet	22	346	1156	5	0	0	984102	683	0	correct_rejection	NA	0
2	Nonet	23	347	1157	6	0	0	984819	683	0	correct_rejection	NA	0
2	Nonet	24	348	1158	4	0	0	985535	684	0	correct_rejection	NA	0
2	Nonet	25	349	1159	0	1	1	986252	683	1	hit	341	0
2	Nonet	26	350	1160	5	0	0	986969	683	0	correct_rejection	NA	0
2	Nonet	27	351	1161	6	0	0	987685	684	0	correct_rejection	NA	0
2	Nonet	28	352	1162	4	0	0	988402	683	0	correct_rejection	NA	0
2	Nonet	29	353	1163	5	0	0	989119	683	0	correct_rejection	NA	0
2	Nonet	30	354	1164	6	0	0	989835	684	0	correct_rejection	NA	0
2	Nonet	31	355	1165	9	0	0	990552	683	0	correct_rejection	NA	0
2	Nonet	32	356	1166	8	0	0	991269	683	0	correct_rejection	NA	0
2	Nonet	33	357	1167	7	0	0	991985	684	0	correct_rejection	NA	0
2	Nonet	34	358	1168	9	0	0	992702	683	0	correct_rejection	NA	0
2	Nonet	35	359	1169	8	0	0	993418	684	0	correct_rejection	NA	0
2	Nonet	36	360	1170	7	0	0	994135	683	0	correct_rejection	NA	0
2	Nonet	37	361	1171	9	0	0	994852	683	0	correct_rejection	NA	0
2	Nonet	38	362	1172	8	0	0	995568	684	0	correct_rejection	NA	0
2	Nonet	39	363	1173	7	0	0	996285	683	0	correct_rejection	NA	0
2	Nonet	40	364	1174	4	0	0	997002	683	0	correct_rejection	NA	0
2	Nonet	41	365	1175	5	0	0	997718	684	0	correct_rejection	NA	0
2	Nonet	42	366	1176	6	0	0	998435	683	0	correct_rejection	NA	0
2	Nonet	43	367	1177	4	0	0	999152	683	0	correct_rejection	NA	0
2	Nonet	44	368	1178	5	0	0	999868	684	0	correct_rejection	NA	0
2	Nonet	45	369	1179	0	1	1	1000585	683	1	hit	396	0
2	Nonet	46	370	1180	6	0	0	1001302	683	0	correct_rejection	NA	0
2	Nonet	47	371	1181	4	0	0	1002018	684	0	correct_rejection	NA	0
2	Nonet	48	372	1182	5	0	0	1002735	683	0	correct_rejection	NA	0
2	Nonet	49	373	1183	6	0	0	1003452	683	0	correct_rejection	NA	0
2	Nonet	50	374	1184	7	0	0	1004168	684	0	correct_rejection	NA	0
2	Nonet	51	375	1185	0	1	1	1004885	683	1	hit	384	0
2	Nonet	52	376	1186	8	0	0	1005602	683	0	correct_rejection	NA	0
2	Nonet	53	377	1187	9	0	0	1006318	684	0	correct_rejection	NA	0
2	Nonet	54	378	1188	7	0	0	1007035	683	0	correct_rejection	NA	0
2	Nonet	55	379	1189	8	0	0	1007752	683	0	correct_rejection	NA	0
2	Nonet	56	380	1190	9	0	0	1008468	684	0	correct_rejection	NA	0
2	Nonet	57	381	1191	7	0	0	1009185	683	0	correct_rejection	NA	0
2	Nonet	58	382	1192	8	0	0	1009902	683	0	correct_rejection	NA	0
2	Nonet	59	383	1193	9	0	0	1010618	684	0	correct_rejection	NA	0
2	Nonet	60	384	1194	9	0	0	1011335	683	0	correct_rejection	NA	0
2	Nonet	61	385	1195	8	0	0	1012052	683	0	correct_rejection	NA	0
2	Nonet	62	386	1196	7	0	0	1012768	684	0	correct_rejection	NA	0
2	Nonet	63	387	1197	9	0	0	1013485	683	0	correct_rejection	NA	0
2	Nonet	64	388	1198	8	0	0	1014202	683	0	correct_rejection	NA	0
2	Nonet	65	389	1199	0	1	1	1014918	684	1	hit	352	0
2	Nonet	66	390	1200	7	0	0	1015635	683	0	correct_rejection	NA	0
2	Nonet	67	391	1201	9	0	0	1016351	684	0	correct_rejection	NA	0
2	Nonet	68	392	1202	8	0	0	1017068	683	0	correct_rejection	NA	0
2	Nonet	69	393	1203	7	0	0	1017785	683	0	correct_rejection	NA	0
2	Nonet	70	394	1204	0	1	3	1018501	684	1	hit	381	0
2	Nonet	71	395	1205	9	0	0	1019218	683	0	correct_rejection	NA	0
2	Nonet	72	396	1206	8	0	0	1019935	683	0	correct_rejection	NA	0
2	Nonet	73	397	1207	7	0	0	1020651	684	0	correct_rejection	NA	0
2	Nonet	74	398	1208	9	0	0	1021368	683	0	correct_rejection	NA	0
2	Nonet	75	399	1209	8	0	0	1022085	683	0	correct_rejection	NA	0
2	Nonet	76	400	1210	7	0	0	1022801	684	0	correct_rejection	NA	0
2	Nonet	77	401	1211	9	0	0	1023518	683	0	correct_rejection	NA	0
2	Nonet	78	402	1212	0	1	1	1024235	683	1	hit	385	0
2	Nonet	79	403	1213	8	0	0	1024951	684	0	correct_rejection	NA	0
2	Nonet	80	404	1214	7	0	0	1025668	683	0	correct_rejection	NA	0
2	Nonet	81	405	1215	6	0	0	1026385	683	0	correct_rejection	NA	0
2	Nonet	82	406	1216	5	0	0	1027101	684	0	correct_rejection	NA	0
2	Nonet	83	407	1217	4	0	0	1027818	683	0	correct_rejection	NA	0
2	Nonet	84	408	1218	0	1	2	1028535	683	1	hit	446	0
2	Nonet	85	409	1219	6	0	0	1029251	684	0	correct_rejection	NA	0
2	Nonet	86	410	1220	5	0	0	1029968	683	0	correct_rejection	NA	0
2	Nonet	87	411	1221	4	0	0	1030685	683	0	correct_rejection	NA	0
2	Nonet	88	412	1222	6	0	0	1031401	684	0	correct_rejection	NA	0
2	Nonet	89	413	1223	5	0	0	1032118	683	0	correct_rejection	NA	0
2	Nonet	90	414	1224	4	0	0	1032835	683	0	correct_rejection	NA	0
2	Nonet	91	415	1225	7	0	0	1033551	684	0	correct_rejection	NA	0
2	Nonet	92	416	1226	8	0	0	1034268	683	0	correct_rejection	NA	0
2	Nonet	93	417	1227	9	0	0	1034985	683	0	correct_rejection	NA	0
2	Nonet	94	418	1228	7	0	0	1035701	684	0	correct_rejection	NA	0
2	Nonet	95	419	1229	8	0	0	1036418	683	0	correct_rejection	NA	0
2	Nonet	96	420	1230	9	0	0	1037135	683	0	correct_rejection	NA	0
2	Nonet	97	421	1231	7	0	0	1037851	684	0	correct_rejection	NA	0
2	Nonet	98	422	1232	8	0	0	1038568	683	0	correct_rejection	NA	0
2	Nonet	99	423	1233	9	0	0	1039284	684	0	correct_rejection	NA	0
2	Nonet	100	424	1234	6	0	0	1040001	683	0	correct_rejection	NA	0
2	Nonet	101	425	1235	0	1	1	1040718	683	1	hit	371	0
2	Nonet	102	426	1236	5	0	0	1041434	684	0	correct_rejection	NA	0
2	Nonet	103	427	1237	4	0	0	1042151	683	0	correct_rejection	NA	0
2	Nonet	104	428	1238	6	0	0	1042868	683	0	correct_rejection	NA	0
2	Nonet	105	429	1239	5	0	0	1043584	684	0	correct_rejection	NA	0
2	Nonet	106	430	1240	4	0	0	1044301	683	0	correct_rejection	NA	0
2	Nonet	107	431	1241	6	0	0	1045018	683	0	correct_rejection	NA	0
2	Nonet	108	432	1242	5	0	0	1045734	684	0	correct_rejection	NA	0
2	Nonet	109	433	1243	4	0	0	1046451	683	0	correct_rejection	NA	0
2	Nonet	110	434	1244	0	1	3	1047168	683	1	hit	362	0
2	Nonet	111	435	1245	6	0	0	1047884	684	0	correct_rejection	NA	0
2	Nonet	112	436	1246	5	0	0	1048601	683	0	correct_rejection	NA	0
2	Nonet	113	437	1247	0	1	1	1049318	683	1	hit	429	0
2	Nonet	114	438	1248	4	0	0	1050034	684	0	correct_rejection	NA	0
2	Nonet	115	439	1249	6	0	0	1050751	683	0	correct_rejection	NA	0
2	Nonet	116	440	1250	5	0	0	1051468	683	0	correct_rejection	NA	0
2	Nonet	117	441	1251	4	0	0	1052184	684	0	correct_rejection	NA	0
2	Nonet	118	442	1252	6	0	0	1052901	683	0	correct_rejection	NA	0
2	Nonet	119	443	1253	5	0	0	1053618	683	0	correct_rejection	NA	0
2	Nonet	120	444	1254	4	0	0	1054334	684	0	correct_rejection	NA	0
2	Nonet	121	445	1255	9	0	0	1055051	683	0	correct_rejection	NA	0
2	Nonet	122	446	1256	8	0	0	1055768	683	0	correct_rejection	NA	0
2	Nonet	123	447	1257	0	1	1	1056484	684	1	hit	360	0
2	Nonet	124	448	1258	7	0	0	1057201	683	0	correct_rejection	NA	0
2	Nonet	125	449	1259	9	0	0	1057918	683	0	correct_rejection	NA	0
2	Nonet	126	450	1260	8	0	0	1058634	684	0	correct_rejection	NA	0
2	Nonet	127	451	1261	7	0	0	1059351	683	0	correct_rejection	NA	0
2	Nonet	128	452	1262	9	0	0	1060068	683	0	correct_rejection	NA	0
2	Nonet	129	453	1263	8	0	0	1060784	684	0	correct_rejection	NA	0
2	Nonet	130	454	1264	7	0	0	1061501	683	0	correct_rejection	NA	0
2	Nonet	131	455	1265	0	1	3	1062217	684	1	hit	355	0
2	Nonet	132	456	1266	7	0	0	1062934	684	0	correct_rejection	NA	0
2	Nonet	133	457	1267	8	0	0	1063651	683	0	correct_rejection	NA	0
2	Nonet	134	458	1268	9	0	0	1064367	684	0	correct_rejection	NA	0
2	Nonet	135	459	1269	7	0	0	1065084	683	0	correct_rejection	NA	0
2	Nonet	136	460	1270	8	0	0	1065801	683	0	correct_rejection	NA	0
2	Nonet	137	461	1271	0	1	1	1066517	684	1	hit	437	0
2	Nonet	138	462	1272	9	0	0	1067234	683	0	correct_rejection	NA	0
2	Nonet	139	463	1273	7	0	0	1067951	683	0	correct_rejection	NA	0
2	Nonet	140	464	1274	8	0	0	1068667	684	0	correct_rejection	NA	0
2	Nonet	141	465	1275	9	0	0	1069384	683	0	correct_rejection	NA	0
2	Nonet	142	466	1276	0	1	3	1070101	683	1	hit	443	0
2	Nonet	143	467	1277	7	0	0	1070817	684	0	correct_rejection	NA	0
2	Nonet	144	468	1278	8	0	0	1071534	683	0	correct_rejection	NA	0
2	Nonet	145	469	1279	9	0	0	1072251	683	0	correct_rejection	NA	0
2	Nonet	146	470	1280	7	0	0	1072967	684	0	correct_rejection	NA	0
2	Nonet	147	471	1281	8	0	0	1073684	683	0	correct_rejection	NA	0
2	Nonet	148	472	1282	9	0	0	1074401	683	0	correct_rejection	NA	0
2	Nonet	149	473	1283	7	0	0	1075117	684	0	correct_rejection	NA	0
2	Nonet	150	474	1284	8	0	0	1075834	683	0	correct_rejection	NA	0
2	Nonet	151	475	1285	9	0	0	1076551	683	0	correct_rejection	NA	0
2	Nonet	152	476	1286	4	0	0	1077267	684	0	correct_rejection	NA	0
2	Nonet	153	477	1287	5	0	0	1077984	683	0	correct_rejection	NA	0
2	Nonet	154	478	1288	0	1	1	1078701	683	1	hit	371	0
2	Nonet	155	479	1289	6	0	0	1079417	684	0	correct_rejection	NA	0
2	Nonet	156	480	1290	4	0	0	1080134	683	0	correct_rejection	NA	0
2	Nonet	157	481	1291	0	1	1	1080851	683	1	hit	523	0
2	Nonet	158	482	1292	5	0	0	1081567	684	0	correct_rejection	NA	0
2	Nonet	159	483	1293	6	0	0	1082284	683	0	correct_rejection	NA	0
2	Nonet	160	484	1294	4	0	0	1083001	683	0	correct_rejection	NA	0
2	Nonet	161	485	1295	5	0	0	1083717	684	0	correct_rejection	NA	0
2	Nonet	162	486	1296	6	0	0	1084434	683	0	correct_rejection	NA	0
2	Triplet	1	325	1297	6	0	0	1093217	683	0	correct_rejection	NA	8028
2	Triplet	2	326	1298	5	0	0	1093934	683	0	correct_rejection	NA	0
2	Triplet	3	327	1299	4	0	0	1094650	684	0	correct_rejection	NA	0
2	Triplet	4	328	1300	6	0	0	1095367	683	0	correct_rejection	NA	0
2	Triplet	5	329	1301	5	0	0	1096084	683	0	correct_rejection	NA	0
2	Triplet	6	330	1302	4	0	0	1096800	684	0	correct_rejection	NA	0
2	Triplet	7	331	1303	9	0	0	1097517	683	0	correct_rejection	NA	0
2	Triplet	8	332	1304	8	0	0	1098234	683	0	correct_rejection	NA	0
2	Triplet	9	333	1305	7	0	0	1098950	684	0	correct_rejection	NA	0
2	Triplet	10	334	1306	9	0	0	1099667	683	0	correct_rejection	NA	0
2	Triplet	11	335	1307	8	0	0	1100384	683	0	correct_rejection	NA	0
2	Triplet	12	336	1308	7	0	0	1101100	684	0	correct_rejection	NA	0
2	Triplet	13	337	1309	7	0	0	1101817	683	0	correct_rejection	NA	0
2	Triplet	14	338	1310	0	1	1	1102534	683	1	hit	446	0
2	Triplet	15	339	1311	8	0	0	1103250	684	0	correct_rejection	NA	0
2	Triplet	16	340	1312	9	0	0	1103967	683	0	correct_rejection	NA	0
2	Triplet	17	341	1313	9	0	0	1104684	683	0	correct_rejection	NA	0
2	Triplet	18	342	1314	8	0	0	1105400	684	0	correct_rejection	NA	0
2	Triplet	19	343	1315	7	0	0	1106117	683	0	correct_rejection	NA	0
2	Triplet	20	344	1316	6	0	0	1106834	683	0	correct_rejection	NA	0
2	Triplet	21	345	1317	5	0	0	1107550	684	0	correct_rejection	NA	0
2	Triplet	22	346	1318	4	0	0	1108267	683	0	correct_rejection	NA	0
2	Triplet	23	347	1319	7	0	0	1108983	684	0	correct_rejection	NA	0
2	Triplet	24	348	1320	8	0	0	1109700	683	0	correct_rejection	NA	0
2	Triplet	25	349	1321	9	0	0	1110417	683	0	correct_rejection	NA	0
2	Triplet	26	350	1322	4	0	0	1111133	684	0	correct_rejection	NA	0
2	Triplet	27	351	1323	5	0	0	1111850	683	0	correct_rejection	NA	0
2	Triplet	28	352	1324	6	0	0	1112567	683	0	correct_rejection	NA	0
2	Triplet	29	353	1325	6	0	0	1113283	684	0	correct_rejection	NA	0
2	Triplet	30	354	1326	0	1	1	1114000	683	1	hit	378	0
2	Triplet	31	355	1327	5	0	0	1114717	683	0	correct_rejection	NA	0
2	Triplet	32	356	1328	4	0	0	1115433	684	0	correct_rejection	NA	0
2	Triplet	33	357	1329	4	0	0	1116150	683	0	correct_rejection	NA	0
2	Triplet	34	358	1330	5	0	0	1116867	683	0	correct_rejection	NA	0
2	Triplet	35	359	1331	6	0	0	1117583	684	0	correct_rejection	NA	0
2	Triplet	36	360	1332	9	0	0	1118300	683	0	correct_rejection	NA	0
2	Triplet	37	361	1333	8	0	0	1119017	683	0	correct_rejection	NA	0
2	Triplet	38	362	1334	7	0	0	1119733	684	0	correct_rejection	NA	0
2	Triplet	39	363	1335	4	0	0	1120450	683	0	correct_rejection	NA	0
2	Triplet	40	364	1336	5	0	0	1121167	683	0	correct_rejection	NA	0
2	Triplet	41	365	1337	6	0	0	1121883	684	0	correct_rejection	NA	0
2	Triplet	42	366	1338	4	0	0	1122600	683	0	correct_rejection	NA	0
2	Triplet	43	367	1339	0	1	1	1123317	683	1	hit	384	0
2	Triplet	44	368	1340	5	0	0	1124033	684	0	correct_rejection	NA	0
2	Triplet	45	369	1341	6	0	0	1124750	683	0	correct_rejection	NA	0
2	Triplet	46	370	1342	7	0	0	1125467	683	0	correct_rejection	NA	0
2	Triplet	47	371	1343	8	0	0	1126183	684	0	correct_rejection	NA	0
2	Triplet	48	372	1344	9	0	0	1126900	683	0	correct_rejection	NA	0
2	Triplet	49	373	1345	7	0	0	1127617	683	0	correct_rejection	NA	0
2	Triplet	50	374	1346	8	0	0	1128333	684	0	correct_rejection	NA	0
2	Triplet	51	375	1347	9	0	0	1129050	683	0	correct_rejection	NA	0
2	Triplet	52	376	1348	0	1	2	1129767	683	1	hit	407	0
2	Triplet	53	377	1349	6	0	0	1130483	684	0	correct_rejection	NA	0
2	Triplet	54	378	1350	5	0	0	1131200	683	0	correct_rejection	NA	0
2	Triplet	55	379	1351	4	0	0	1131916	684	0	correct_rejection	NA	0
2	Triplet	56	380	1352	0	1	2	1132633	684	1	hit	394	0
2	Triplet	57	381	1353	7	0	0	1133350	683	0	correct_rejection	NA	0
2	Triplet	58	382	1354	8	0	0	1134066	684	0	correct_rejection	NA	0
2	Triplet	59	383	1355	9	0	0	1134783	683	0	correct_rejection	NA	0
2	Triplet	60	384	1356	9	0	0	1135500	683	0	correct_rejection	NA	0
2	Triplet	61	385	1357	8	0	0	1136216	684	0	correct_rejection	NA	0
2	Triplet	62	386	1358	7	0	0	1136933	683	0	correct_rejection	NA	0
2	Triplet	63	387	1359	4	0	0	1137650	683	0	correct_rejection	NA	0
2	Triplet	64	388	1360	5	0	0	1138366	684	0	correct_rejection	NA	0
2	Triplet	65	389	1361	6	0	0	1139083	683	0	correct_rejection	NA	0
2	Triplet	66	390	1362	7	0	0	1139800	683	0	correct_rejection	NA	0
2	Triplet	67	391	1363	8	0	0	1140516	684	0	correct_rejection	NA	0
2	Triplet	68	392	1364	0	1	1	1141233	683	1	hit	353	0
2	Triplet	69	393	1365	9	0	0	1141950	683	0	correct_rejection	NA	0
2	Triplet	70	394	1366	4	0	0	1142666	684	0	correct_rejection	NA	0
2	Triplet	71	395	1367	5	0	0	1143383	683	0	correct_rejection	NA	0
2	Triplet	72	396	1368	0	1	1	1144100	683	1	hit	476	0
2	Triplet	73	397	1369	6	0	0	1144816	684	0	correct_rejection	NA	0
2	Triplet	74	398	1370	4	0	0	1145533	683	0	correct_rejection	NA	0
2	Triplet	75	399	1371	0	1	1	1146250	683	1	hit	373	0
2	Triplet	76	400	1372	5	0	0	1146966	684	0	correct_rejection	NA	0
2	Triplet	77	401	1373	6	0	0	1147683	683	0	correct_rejection	NA	0
2	Triplet	78	402	1374	9	0	0	1148400	683	0	correct_rejection	NA	0
2	Triplet	79	403	1375	0	1	1	1149116	684	1	hit	377	0
2	Triplet	80	404	1376	8	0	0	1149833	683	0	correct_rejection	NA	0
2	Triplet	81	405	1377	7	0	0	1150550	683	0	correct_rejection	NA	0
2	Triplet	82	406	1378	9	0	0	1151266	684	0	correct_rejection	NA	0
2	Triplet	83	407	1379	8	0	0	1151983	683	0	correct_rejection	NA	0
2	Triplet	84	408	1380	7	0	0	1152700	683	0	correct_rejection	NA	0
2	Triplet	85	409	1381	6	0	0	1153416	684	0	correct_rejection	NA	0
2	Triplet	86	410	1382	5	0	0	1154133	683	0	correct_rejection	NA	0
2	Triplet	87	411	1383	4	0	0	1154849	684	0	correct_rejection	NA	0
2	Triplet	88	412	1384	4	0	0	1155566	684	0	correct_rejection	NA	0
2	Triplet	89	413	1385	5	0	0	1156283	683	0	correct_rejection	NA	0
2	Triplet	90	414	1386	6	0	0	1156999	684	0	correct_rejection	NA	0
2	Triplet	91	415	1387	6	0	0	1157716	683	0	correct_rejection	NA	0
2	Triplet	92	416	1388	5	0	0	1158433	683	0	correct_rejection	NA	0
2	Triplet	93	417	1389	4	0	0	1159149	684	0	correct_rejection	NA	0
2	Triplet	94	418	1390	9	0	0	1159866	683	0	correct_rejection	NA	0
2	Triplet	95	419	1391	8	0	0	1160583	683	0	correct_rejection	NA	0
2	Triplet	96	420	1392	7	0	0	1161299	684	0	correct_rejection	NA	0
2	Triplet	97	421	1393	0	1	2	1162016	683	1	hit	398	0
2	Triplet	98	422	1394	7	0	0	1162733	683	0	correct_rejection	NA	0
2	Triplet	99	423	1395	8	0	0	1163449	684	0	correct_rejection	NA	0
2	Triplet	100	424	1396	9	0	0	1164166	683	0	correct_rejection	NA	0
2	Triplet	101	425	1397	7	0	0	1164883	683	0	correct_rejection	NA	0
2	Triplet	102	426	1398	8	0	0	1165599	684	0	correct_rejection	NA	0
2	Triplet	103	427	1399	9	0	0	1166316	683	0	correct_rejection	NA	0
2	Triplet	104	428	1400	6	0	0	1167033	683	0	correct_rejection	NA	0
2	Triplet	105	429	1401	5	0	0	1167749	684	0	correct_rejection	NA	0
2	Triplet	106	430	1402	4	0	0	1168466	683	0	correct_rejection	NA	0
2	Triplet	107	431	1403	0	1	2	1169183	683	1	hit	354	0
2	Triplet	108	432	1404	6	0	0	1169899	684	0	correct_rejection	NA	0
2	Triplet	109	433	1405	5	0	0	1170616	683	0	correct_rejection	NA	0
2	Triplet	110	434	1406	0	1	1	1171333	683	1	hit	424	0
2	Triplet	111	435	1407	4	0	0	1172049	684	0	correct_rejection	NA	0
2	Triplet	112	436	1408	9	0	0	1172766	683	0	correct_rejection	NA	0
2	Triplet	113	437	1409	8	0	0	1173483	683	0	correct_rejection	NA	0
2	Triplet	114	438	1410	7	0	0	1174199	684	0	correct_rejection	NA	0
2	Triplet	115	439	1411	4	0	0	1174916	683	0	correct_rejection	NA	0
2	Triplet	116	440	1412	5	0	0	1175633	683	0	correct_rejection	NA	0
2	Triplet	117	441	1413	6	0	0	1176349	684	0	correct_rejection	NA	0
2	Triplet	118	442	1414	9	0	0	1177066	683	0	correct_rejection	NA	0
2	Triplet	119	443	1415	8	0	0	1177782	684	0	correct_rejection	NA	0
2	Triplet	120	444	1416	7	0	0	1178499	684	0	correct_rejection	NA	0
2	Triplet	121	445	1417	7	0	0	1179216	683	0	correct_rejection	NA	0
2	Triplet	122	446	1418	8	0	0	1179932	684	0	correct_rejection	NA	0
2	Triplet	123	447	1419	9	0	0	1180649	683	0	correct_rejection	NA	0
2	Triplet	124	448	1420	6	0	0	1181366	683	0	correct_rejection	NA	0
2	Triplet	125	449	1421	5	0	0	1182082	684	0	correct_rejection	NA	0
2	Triplet	126	450	1422	4	0	0	1182799	683	0	correct_rejection	NA	0
2	Triplet	127	451	1423	4	0	0	1183516	683	0	correct_rejection	NA	0
2	Triplet	128	452	1424	0	1	1	1184232	684	1	hit	390	0
2	Triplet	129	453	1425	5	0	0	1184949	683	0	correct_rejection	NA	0
2	Triplet	130	454	1426	6	0	0	1185666	683	0	correct_rejection	NA	0
2	Triplet	131	455	1427	0	1	2	1186382	684	1	hit	451	0
2	Triplet	132	456	1428	4	0	0	1187099	683	0	correct_rejection	NA	0
2	Triplet	133	457	1429	5	0	0	1187816	683	0	correct_rejection	NA	0
2	Triplet	134	458	1430	6	0	0	1188532	684	0	correct_rejection	NA	0
2	Triplet	135	459	1431	6	0	0	1189249	683	0	correct_rejection	NA	0
2	Triplet	136	460	1432	5	0	0	1189966	683	0	correct_rejection	NA	0
2	Triplet	137	461	1433	4	0	0	1190682	684	0	correct_rejection	NA	0
2	Triplet	138	462	1434	6	0	0	1191399	683	0	correct_rejection	NA	0
2	Triplet	139	463	1435	5	0	0	1192116	683	0	correct_rejection	NA	0
2	Triplet	140	464	1436	0	1	1	1192832	684	1	hit	359	0
2	Triplet	141	465	1437	4	0	0	1193549	683	0	correct_rejection	NA	0
2	Triplet	142	466	1438	7	0	0	1194266	683	0	correct_rejection	NA	0
2	Triplet	143	467	1439	8	0	0	1194982	684	0	correct_rejection	NA	0
2	Triplet	144	468	1440	9	0	0	1195699	683	0	correct_rejection	NA	0
2	Triplet	145	469	1441	7	0	0	1196416	683	0	correct_rejection	NA	0
2	Triplet	146	470	1442	8	0	0	1197132	684	0	correct_rejection	NA	0
2	Triplet	147	471	1443	9	0	0	1197849	683	0	correct_rejection	NA	0
2	Triplet	148	472	1444	4	0	0	1198566	683	0	correct_rejection	NA	0
2	Triplet	149	473	1445	5	0	0	1199282	684	0	correct_rejection	NA	0
2	Triplet	150	474	1446	6	0	0	1199999	683	0	correct_rejection	NA	0
2	Triplet	151	475	1447	0	1	2	1200715	684	1	hit	398	0
2	Triplet	152	476	1448	7	0	0	1201432	684	0	correct_rejection	NA	0
2	Triplet	153	477	1449	8	0	0	1202149	683	0	correct_rejection	NA	0
2	Triplet	154	478	1450	0	1	1	1202865	684	1	hit	419	0
2	Triplet	155	479	1451	9	0	0	1203582	683	0	correct_rejection	NA	0
2	Triplet	156	480	1452	9	0	0	1204299	683	0	correct_rejection	NA	0
2	Triplet	157	481	1453	8	0	0	1205015	684	0	correct_rejection	NA	0
2	Triplet	158	482	1454	7	0	0	1205732	683	0	correct_rejection	NA	0
2	Triplet	159	483	1455	9	0	0	1206449	683	0	correct_rejection	NA	0
2	Triplet	160	484	1456	0	1	1	1207165	684	1	hit	381	0
2	Triplet	161	485	1457	8	0	0	1207882	683	0	correct_rejection	NA	0
2	Triplet	162	486	1458	7	0	0	1208599	683	0	correct_rejection	NA	0
2	Single	1	325	1459	9	0	0	1215332	683	0	correct_rejection	NA	5970
2	Single	2	326	1460	5	0	0	1216049	683	0	correct_rejection	NA	0
2	Single	3	327	1461	7	0	0	1216765	684	0	correct_rejection	NA	0
2	Single	4	328	1462	6	0	0	1217482	683	0	correct_rejection	NA	0
2	Single	5	329	1463	0	1	1	1218199	683	1	hit	395	0
2	Single	6	330	1464	9	0	0	1218915	684	0	correct_rejection	NA	0
2	Single	7	331	1465	4	0	0	1219632	683	0	correct_rejection	NA	0
2	Single	8	332	1466	4	0	0	1220349	683	0	correct_rejection	NA	0
2	Single	9	333	1467	7	0	0	1221065	684	0	correct_rejection	NA	0
2	Single	10	334	1468	8	0	0	1221782	683	0	correct_rejection	NA	0
2	Single	11	335	1469	5	0	0	1222499	683	0	correct_rejection	NA	0
2	Single	12	336	1470	9	0	0	1223215	684	0	correct_rejection	NA	0
2	Single	13	337	1471	0	1	1	1223932	683	1	hit	330	0
2	Single	14	338	1472	8	0	0	1224648	684	0	correct_rejection	NA	0
2	Single	15	339	1473	6	0	0	1225365	683	0	correct_rejection	NA	0
2	Single	16	340	1474	7	0	0	1226082	683	0	correct_rejection	NA	0
2	Single	17	341	1475	4	0	0	1226798	684	0	correct_rejection	NA	0
2	Single	18	342	1476	0	1	1	1227515	683	1	hit	338	0
2	Single	19	343	1477	5	0	0	1228232	683	0	correct_rejection	NA	0
2	Single	20	344	1478	8	0	0	1228948	684	0	correct_rejection	NA	0
2	Single	21	345	1479	8	0	0	1229665	683	0	correct_rejection	NA	0
2	Single	22	346	1480	9	0	0	1230382	683	0	correct_rejection	NA	0
2	Single	23	347	1481	7	0	0	1231098	684	0	correct_rejection	NA	0
2	Single	24	348	1482	5	0	0	1231815	683	0	correct_rejection	NA	0
2	Single	25	349	1483	5	0	0	1232532	683	0	correct_rejection	NA	0
2	Single	26	350	1484	4	0	0	1233248	684	0	correct_rejection	NA	0
2	Single	27	351	1485	9	0	0	1233965	683	0	correct_rejection	NA	0
2	Single	28	352	1486	9	0	0	1234682	683	0	correct_rejection	NA	0
2	Single	29	353	1487	6	0	0	1235398	684	0	correct_rejection	NA	0
2	Single	30	354	1488	8	0	0	1236115	683	0	correct_rejection	NA	0
2	Single	31	355	1489	4	0	0	1236832	683	0	correct_rejection	NA	0
2	Single	32	356	1490	6	0	0	1237548	684	0	correct_rejection	NA	0
2	Single	33	357	1491	0	1	1	1238265	683	1	hit	376	0
2	Single	34	358	1492	6	0	0	1238982	683	0	correct_rejection	NA	0
2	Single	35	359	1493	5	0	0	1239698	684	0	correct_rejection	NA	0
2	Single	36	360	1494	6	0	0	1240415	683	0	correct_rejection	NA	0
2	Single	37	361	1495	4	0	0	1241132	683	0	correct_rejection	NA	0
2	Single	38	362	1496	8	0	0	1241848	684	0	correct_rejection	NA	0
2	Single	39	363	1497	7	0	0	1242565	683	0	correct_rejection	NA	0
2	Single	40	364	1498	7	0	0	1243282	683	0	correct_rejection	NA	0
2	Single	41	365	1499	5	0	0	1243998	684	0	correct_rejection	NA	0
2	Single	42	366	1500	8	0	0	1244715	683	0	correct_rejection	NA	0
2	Single	43	367	1501	4	0	0	1245432	683	0	correct_rejection	NA	0
2	Single	44	368	1502	5	0	0	1246148	684	0	correct_rejection	NA	0
2	Single	45	369	1503	6	0	0	1246865	683	0	correct_rejection	NA	0
2	Single	46	370	1504	8	0	0	1247581	684	0	correct_rejection	NA	0
2	Single	47	371	1505	6	0	0	1248298	683	0	correct_rejection	NA	0
2	Single	48	372	1506	6	0	0	1249015	683	0	correct_rejection	NA	0
2	Single	49	373	1507	0	1	1	1249731	684	1	hit	392	0
2	Single	50	374	1508	4	0	0	1250448	683	0	correct_rejection	NA	0
2	Single	51	375	1509	7	0	0	1251165	683	0	correct_rejection	NA	0
2	Single	52	376	1510	9	0	0	1251881	684	0	correct_rejection	NA	0
2	Single	53	377	1511	0	1	1	1252598	683	1	hit	493	0
2	Single	54	378	1512	7	0	0	1253315	683	0	correct_rejection	NA	0
2	Single	55	379	1513	7	0	0	1254031	684	0	correct_rejection	NA	0
2	Single	56	380	1514	8	0	0	1254748	683	0	correct_rejection	NA	0
2	Single	57	381	1515	0	1	1	1255465	683	1	hit	445	0
2	Single	58	382	1516	7	0	0	1256181	684	0	correct_rejection	NA	0
2	Single	59	383	1517	4	0	0	1256898	683	0	correct_rejection	NA	0
2	Single	60	384	1518	0	1	1	1257615	683	1	hit	357	0
2	Single	61	385	1519	9	0	0	1258331	684	0	correct_rejection	NA	0
2	Single	62	386	1520	8	0	0	1259048	683	0	correct_rejection	NA	0
2	Single	63	387	1521	9	0	0	1259765	683	0	correct_rejection	NA	0
2	Single	64	388	1522	5	0	0	1260481	684	0	correct_rejection	NA	0
2	Single	65	389	1523	5	0	0	1261198	683	0	correct_rejection	NA	0
2	Single	66	390	1524	7	0	0	1261915	683	0	correct_rejection	NA	0
2	Single	67	391	1525	5	0	0	1262631	684	0	correct_rejection	NA	0
2	Single	68	392	1526	9	0	0	1263348	683	0	correct_rejection	NA	0
2	Single	69	393	1527	6	0	0	1264065	683	0	correct_rejection	NA	0
2	Single	70	394	1528	9	0	0	1264781	684	0	correct_rejection	NA	0
2	Single	71	395	1529	9	0	0	1265498	683	0	correct_rejection	NA	0
2	Single	72	396	1530	4	0	0	1266215	683	0	correct_rejection	NA	0
2	Single	73	397	1531	6	0	0	1266931	684	0	correct_rejection	NA	0
2	Single	74	398	1532	7	0	0	1267648	683	0	correct_rejection	NA	0
2	Single	75	399	1533	6	0	0	1268365	683	0	correct_rejection	NA	0
2	Single	76	400	1534	5	0	0	1269081	684	0	correct_rejection	NA	0
2	Single	77	401	1535	0	1	1	1269798	683	1	hit	422	0
2	Single	78	402	1536	4	0	0	1270514	684	0	correct_rejection	NA	0
2	Single	79	403	1537	4	0	0	1271231	684	0	correct_rejection	NA	0
2	Single	80	404	1538	8	0	0	1271948	683	0	correct_rejection	NA	0
2	Single	81	405	1539	8	0	0	1272664	684	0	correct_rejection	NA	0
2	Single	82	406	1540	0	1	1	1273381	683	1	hit	421	0
2	Single	83	407	1541	8	0	0	1274098	683	0	correct_rejection	NA	0
2	Single	84	408	1542	4	0	0	1274814	684	0	correct_rejection	NA	0
2	Single	85	409	1543	9	0	0	1275531	683	0	correct_rejection	NA	0
2	Single	86	410	1544	7	0	0	1276248	683	0	correct_rejection	NA	0
2	Single	87	411	1545	4	0	0	1276964	684	0	correct_rejection	NA	0
2	Single	88	412	1546	8	0	0	1277681	683	0	correct_rejection	NA	0
2	Single	89	413	1547	9	0	0	1278398	683	0	correct_rejection	NA	0
2	Single	90	414	1548	4	0	0	1279114	684	0	correct_rejection	NA	0
2	Single	91	415	1549	7	0	0	1279831	683	0	correct_rejection	NA	0
2	Single	92	416	1550	6	0	0	1280548	683	0	correct_rejection	NA	0
2	Single	93	417	1551	6	0	0	1281264	684	0	correct_rejection	NA	0
2	Single	94	418	1552	0	1	1	1281981	683	1	hit	392	0
2	Single	95	419	1553	8	0	0	1282698	683	0	correct_rejection	NA	0
2	Single	96	420	1554	8	0	0	1283414	684	0	correct_rejection	NA	0
2	Single	97	421	1555	5	0	0	1284131	683	0	correct_rejection	NA	0
2	Single	98	422	1556	5	0	0	1284848	683	0	correct_rejection	NA	0
2	Single	99	423	1557	6	0	0	1285564	684	0	correct_rejection	NA	0
2	Single	100	424	1558	0	1	1	1286281	683	1	hit	401	0
2	Single	101	425	1559	7	0	0	1286998	683	0	correct_rejection	NA	0
2	Single	102	426	1560	9	0	0	1287714	684	0	correct_rejection	NA	0
2	Single	103	427	1561	6	0	0	1288431	683	0	correct_rejection	NA	0
2	Single	104	428	1562	4	0	0	1289148	683	0	correct_rejection	NA	0
2	Single	105	429	1563	4	0	0	1289864	684	0	correct_rejection	NA	0
2	Single	106	430	1564	6	0	0	1290581	683	0	correct_rejection	NA	0
2	Single	107	431	1565	9	0	0	1291298	683	0	correct_rejection	NA	0
2	Single	108	432	1566	5	0	0	1292014	684	0	correct_rejection	NA	0
2	Single	109	433	1567	4	0	0	1292731	683	0	correct_rejection	NA	0
2	Single	110	434	1568	5	0	0	1293447	684	0	correct_rejection	NA	0
2	Single	111	435	1569	9	0	0	1294164	684	0	correct_rejection	NA	0
2	Single	112	436	1570	9	0	0	1294881	683	0	correct_rejection	NA	0
2	Single	113	437	1571	8	0	0	1295597	684	0	correct_rejection	NA	0
2	Single	114	438	1572	7	0	0	1296314	683	0	correct_rejection	NA	0
2	Single	115	439	1573	8	0	0	1297031	683	0	correct_rejection	NA	0
2	Single	116	440	1574	6	0	0	1297747	684	0	correct_rejection	NA	0
2	Single	117	441	1575	5	0	0	1298464	683	0	correct_rejection	NA	0
2	Single	118	442	1576	7	0	0	1299181	683	0	correct_rejection	NA	0
2	Single	119	443	1577	7	0	0	1299897	684	0	correct_rejection	NA	0
2	Single	120	444	1578	5	0	0	1300614	683	0	correct_rejection	NA	0
2	Single	121	445	1579	8	0	0	1301331	683	0	correct_rejection	NA	0
2	Single	122	446	1580	7	0	0	1302047	684	0	correct_rejection	NA	0
2	Single	123	447	1581	9	0	0	1302764	683	0	correct_rejection	NA	0
2	Single	124	448	1582	0	1	1	1303481	683	1	hit	403	0
2	Single	125	449	1583	9	0	0	1304197	684	0	correct_rejection	NA	0
2	Single	126	450	1584	6	0	0	1304914	683	0	correct_rejection	NA	0
2	Single	127	451	1585	0	1	1	1305631	683	1	hit	377	0
2	Single	128	452	1586	5	0	0	1306347	684	0	correct_rejection	NA	0
2	Single	129	453	1587	5	0	0	1307064	683	0	correct_rejection	NA	0
2	Single	130	454	1588	9	0	0	1307781	683	0	correct_rejection	NA	0
2	Single	131	455	1589	4	0	0	1308497	684	0	correct_rejection	NA	0
2	Single	132	456	1590	9	0	0	1309214	683	0	correct_rejection	NA	0
2	Single	133	457	1591	5	0	0	1309931	683	0	correct_rejection	NA	0
2	Single	134	458	1592	7	0	0	1310647	684	0	correct_rejection	NA	0
2	Single	135	459	1593	4	0	0	1311364	683	0	correct_rejection	NA	0
2	Single	136	460	1594	4	0	0	1312081	683	0	correct_rejection	NA	0
2	Single	137	461	1595	5	0	0	1312797	684	0	correct_rejection	NA	0
2	Single	138	462	1596	8	0	0	1313514	683	0	correct_rejection	NA	0
2	Single	139	463	1597	8	0	0	1314231	683	0	correct_rejection	NA	0
2	Single	140	464	1598	0	1	1	1314947	684	1	hit	402	0
2	Single	141	465	1599	9	0	0	1315664	683	0	correct_rejection	NA	0
2	Single	142	466	1600	7	0	0	1316380	684	0	correct_rejection	NA	0
2	Single	143	467	1601	8	0	0	1317097	683	0	correct_rejection	NA	0
2	Single	144	468	1602	4	0	0	1317814	683	0	correct_rejection	NA	0
2	Single	145	469	1603	8	0	0	1318530	684	0	correct_rejection	NA	0
2	Single	146	470	1604	6	0	0	1319247	683	0	correct_rejection	NA	0
2	Single	147	471	1605	9	0	0	1319964	683	0	correct_rejection	NA	0
2	Single	148	472	1606	8	0	0	1320680	684	0	correct_rejection	NA	0
2	Single	149	473	1607	0	1	1	1321397	683	1	hit	460	0
2	Single	150	474	1608	5	0	0	1322114	683	0	correct_rejection	NA	0
2	Single	151	475	1609	4	0	0	1322830	684	0	correct_rejection	NA	0
2	Single	152	476	1610	0	1	1	1323547	683	1	hit	398	0
2	Single	153	477	1611	7	0	0	1324264	683	0	correct_rejection	NA	0
2	Single	154	478	1612	5	0	0	1324980	684	0	correct_rejection	NA	0
2	Single	155	479	1613	0	1	1	1325697	683	1	hit	430	0
2	Single	156	480	1614	6	0	0	1326414	683	0	correct_rejection	NA	0
2	Single	157	481	1615	6	0	0	1327130	684	0	correct_rejection	NA	0
2	Single	158	482	1616	7	0	0	1327847	683	0	correct_rejection	NA	0
2	Single	159	483	1617	7	0	0	1328564	683	0	correct_rejection	NA	0
2	Single	160	484	1618	6	0	0	1329280	684	0	correct_rejection	NA	0
2	Single	161	485	1619	4	0	0	1329997	683	0	correct_rejection	NA	0
2	Single	162	486	1620	6	0	0	1330714	683	0	correct_rejection	NA	0
trigger nr 1249 at 1330595
trigger nr 1262 at 1427051
