ID	block	trial_block	trial_cat	trial_total	number	violation	level_violation	onset	duration	Response	Hit_Miss	RT	pre_trial_fixcross_ISI
first_trigger_at: 11397
trigger nr 11 at 21396
3	Nonet	1	163	1	4	0	0	28259	691	0	correct_rejection	NA	6026
3	Nonet	2	164	2	5	0	0	28967	692	0	correct_rejection	NA	0
3	Nonet	3	165	3	6	0	0	29676	692	0	correct_rejection	NA	0
3	Nonet	4	166	4	4	0	0	30384	692	0	correct_rejection	NA	0
3	Nonet	5	167	5	5	0	0	31093	692	0	correct_rejection	NA	0
3	Nonet	6	168	6	6	0	0	31802	691	0	correct_rejection	NA	0
3	Nonet	7	169	7	4	0	0	32510	692	0	correct_rejection	NA	0
3	Nonet	8	170	8	5	0	0	33219	691	0	correct_rejection	NA	0
3	Nonet	9	171	9	0	1	1	33927	692	1	hit	395	0
3	Nonet	10	172	10	6	0	0	34636	692	0	correct_rejection	NA	0
3	Nonet	11	173	11	4	0	0	35344	692	0	correct_rejection	NA	0
3	Nonet	12	174	12	5	0	0	36053	692	0	correct_rejection	NA	0
3	Nonet	13	175	13	6	0	0	36762	691	0	correct_rejection	NA	0
3	Nonet	14	176	14	4	0	0	37470	692	0	correct_rejection	NA	0
3	Nonet	15	177	15	5	0	0	38179	691	0	correct_rejection	NA	0
3	Nonet	16	178	16	6	0	0	38887	692	0	correct_rejection	NA	0
3	Nonet	17	179	17	4	0	0	39596	692	0	correct_rejection	NA	0
3	Nonet	18	180	18	5	0	0	40304	692	0	correct_rejection	NA	0
3	Nonet	19	181	19	6	0	0	41013	692	0	correct_rejection	NA	0
3	Nonet	20	182	20	7	0	0	41722	691	0	correct_rejection	NA	0
3	Nonet	21	183	21	8	0	0	42430	692	0	correct_rejection	NA	0
3	Nonet	22	184	22	9	0	0	43139	691	0	correct_rejection	NA	0
3	Nonet	23	185	23	7	0	0	43847	692	0	correct_rejection	NA	0
3	Nonet	24	186	24	8	0	0	44556	691	0	correct_rejection	NA	0
3	Nonet	25	187	25	9	0	0	45264	692	0	correct_rejection	NA	0
3	Nonet	26	188	26	7	0	0	45973	692	0	correct_rejection	NA	0
3	Nonet	27	189	27	0	1	1	46681	692	1	hit	388	0
3	Nonet	28	190	28	8	0	0	47390	692	0	correct_rejection	NA	0
3	Nonet	29	191	29	9	0	0	48099	691	0	correct_rejection	NA	0
3	Nonet	30	192	30	0	1	3	48807	692	1	hit	403	0
3	Nonet	31	193	31	7	0	0	49516	691	0	correct_rejection	NA	0
3	Nonet	32	194	32	8	0	0	50224	692	0	correct_rejection	NA	0
3	Nonet	33	195	33	9	0	0	50933	692	0	correct_rejection	NA	0
3	Nonet	34	196	34	7	0	0	51641	692	0	correct_rejection	NA	0
3	Nonet	35	197	35	0	1	1	52350	692	1	hit	289	0
3	Nonet	36	198	36	8	0	0	53059	691	0	correct_rejection	NA	0
3	Nonet	37	199	37	9	0	0	53767	692	0	correct_rejection	NA	0
3	Nonet	38	200	38	7	0	0	54476	691	0	correct_rejection	NA	0
3	Nonet	39	201	39	8	0	0	55184	692	0	correct_rejection	NA	0
3	Nonet	40	202	40	9	0	0	55893	692	0	correct_rejection	NA	0
3	Nonet	41	203	41	6	0	0	56601	692	0	correct_rejection	NA	0
3	Nonet	42	204	42	5	0	0	57310	692	0	correct_rejection	NA	0
3	Nonet	43	205	43	4	0	0	58019	691	0	correct_rejection	NA	0
3	Nonet	44	206	44	6	0	0	58727	692	0	correct_rejection	NA	0
3	Nonet	45	207	45	5	0	0	59436	691	0	correct_rejection	NA	0
3	Nonet	46	208	46	4	0	0	60144	692	0	correct_rejection	NA	0
3	Nonet	47	209	47	6	0	0	60853	691	0	correct_rejection	NA	0
3	Nonet	48	210	48	5	0	0	61561	692	0	correct_rejection	NA	0
3	Nonet	49	211	49	0	1	1	62270	692	1	hit	347	0
3	Nonet	50	212	50	4	0	0	62979	691	0	correct_rejection	NA	0
3	Nonet	51	213	51	6	0	0	63687	692	0	correct_rejection	NA	0
3	Nonet	52	214	52	5	0	0	64396	691	0	correct_rejection	NA	0
3	Nonet	53	215	53	4	0	0	65104	692	0	correct_rejection	NA	0
3	Nonet	54	216	54	6	0	0	65813	691	0	correct_rejection	NA	0
3	Nonet	55	217	55	0	1	1	66521	692	1	hit	482	0
3	Nonet	56	218	56	5	0	0	67230	692	0	correct_rejection	NA	0
3	Nonet	57	219	57	4	0	0	67938	692	0	correct_rejection	NA	0
3	Nonet	58	220	58	6	0	0	68647	692	0	correct_rejection	NA	0
3	Nonet	59	221	59	5	0	0	69356	691	0	correct_rejection	NA	0
3	Nonet	60	222	60	4	0	0	70064	692	0	correct_rejection	NA	0
3	Nonet	61	223	61	4	0	0	70773	691	0	correct_rejection	NA	0
3	Nonet	62	224	62	0	1	1	71481	692	1	hit	297	0
3	Nonet	63	225	63	5	0	0	72190	692	0	correct_rejection	NA	0
3	Nonet	64	226	64	6	0	0	72898	692	0	correct_rejection	NA	0
3	Nonet	65	227	65	4	0	0	73607	692	0	correct_rejection	NA	0
3	Nonet	66	228	66	5	0	0	74316	691	0	correct_rejection	NA	0
3	Nonet	67	229	67	6	0	0	75024	692	0	correct_rejection	NA	0
3	Nonet	68	230	68	4	0	0	75733	691	0	correct_rejection	NA	0
3	Nonet	69	231	69	5	0	0	76441	692	0	correct_rejection	NA	0
3	Nonet	70	232	70	6	0	0	77150	692	0	correct_rejection	NA	0
3	Nonet	71	233	71	6	0	0	77858	692	0	correct_rejection	NA	0
3	Nonet	72	234	72	5	0	0	78567	692	0	correct_rejection	NA	0
3	Nonet	73	235	73	4	0	0	79276	691	0	correct_rejection	NA	0
3	Nonet	74	236	74	6	0	0	79984	692	0	correct_rejection	NA	0
3	Nonet	75	237	75	0	1	1	80693	691	1	hit	315	0
3	Nonet	76	238	76	5	0	0	81401	692	0	correct_rejection	NA	0
3	Nonet	77	239	77	4	0	0	82110	691	0	correct_rejection	NA	0
3	Nonet	78	240	78	0	1	2	82818	692	1	hit	356	0
3	Nonet	79	241	79	6	0	0	83527	692	0	correct_rejection	NA	0
3	Nonet	80	242	80	5	0	0	84235	692	0	correct_rejection	NA	0
3	Nonet	81	243	81	4	0	0	84944	692	0	correct_rejection	NA	0
3	Nonet	82	244	82	9	0	0	85653	691	0	correct_rejection	NA	0
3	Nonet	83	245	83	0	1	1	86361	692	1	hit	327	0
3	Nonet	84	246	84	8	0	0	87070	691	0	correct_rejection	NA	0
3	Nonet	85	247	85	7	0	0	87778	692	0	correct_rejection	NA	0
3	Nonet	86	248	86	9	0	0	88487	692	0	correct_rejection	NA	0
3	Nonet	87	249	87	8	0	0	89195	692	0	correct_rejection	NA	0
3	Nonet	88	250	88	7	0	0	89904	692	0	correct_rejection	NA	0
3	Nonet	89	251	89	9	0	0	90613	691	0	correct_rejection	NA	0
3	Nonet	90	252	90	8	0	0	91321	692	0	correct_rejection	NA	0
3	Nonet	91	253	91	7	0	0	92030	691	0	correct_rejection	NA	0
3	Nonet	92	254	92	4	0	0	92738	692	0	correct_rejection	NA	0
3	Nonet	93	255	93	5	0	0	93447	692	0	correct_rejection	NA	0
3	Nonet	94	256	94	6	0	0	94155	692	0	correct_rejection	NA	0
3	Nonet	95	257	95	0	1	2	94864	692	1	hit	356	0
3	Nonet	96	258	96	4	0	0	95573	691	0	correct_rejection	NA	0
3	Nonet	97	259	97	5	0	0	96281	692	0	correct_rejection	NA	0
3	Nonet	98	260	98	6	0	0	96990	691	0	correct_rejection	NA	0
3	Nonet	99	261	99	4	0	0	97698	692	0	correct_rejection	NA	0
3	Nonet	100	262	100	0	1	1	98407	692	1	hit	376	0
3	Nonet	101	263	101	5	0	0	99115	692	0	correct_rejection	NA	0
3	Nonet	102	264	102	6	0	0	99824	692	0	correct_rejection	NA	0
3	Nonet	103	265	103	9	0	0	100533	691	0	correct_rejection	NA	0
3	Nonet	104	266	104	0	1	1	101241	692	1	hit	354	0
3	Nonet	105	267	105	8	0	0	101950	691	0	correct_rejection	NA	0
3	Nonet	106	268	106	7	0	0	102658	692	0	correct_rejection	NA	0
3	Nonet	107	269	107	9	0	0	103367	691	0	correct_rejection	NA	0
3	Nonet	108	270	108	0	1	1	104075	692	1	hit	346	0
3	Nonet	109	271	109	8	0	0	104784	692	0	correct_rejection	NA	0
3	Nonet	110	272	110	7	0	0	105492	692	0	correct_rejection	NA	0
3	Nonet	111	273	111	9	0	0	106201	692	0	correct_rejection	NA	0
3	Nonet	112	274	112	8	0	0	106910	691	0	correct_rejection	NA	0
3	Nonet	113	275	113	7	0	0	107618	692	0	correct_rejection	NA	0
3	Nonet	114	276	114	0	1	3	108327	691	1	hit	332	0
3	Nonet	115	277	115	7	0	0	109035	692	0	correct_rejection	NA	0
3	Nonet	116	278	116	8	0	0	109744	692	0	correct_rejection	NA	0
3	Nonet	117	279	117	9	0	0	110452	692	0	correct_rejection	NA	0
3	Nonet	118	280	118	7	0	0	111161	692	0	correct_rejection	NA	0
3	Nonet	119	281	119	8	0	0	111870	691	0	correct_rejection	NA	0
3	Nonet	120	282	120	9	0	0	112578	692	0	correct_rejection	NA	0
3	Nonet	121	283	121	7	0	0	113287	691	0	correct_rejection	NA	0
3	Nonet	122	284	122	8	0	0	113995	692	0	correct_rejection	NA	0
3	Nonet	123	285	123	9	0	0	114704	692	0	correct_rejection	NA	0
3	Nonet	124	286	124	9	0	0	115412	692	0	correct_rejection	NA	0
3	Nonet	125	287	125	8	0	0	116121	692	0	correct_rejection	NA	0
3	Nonet	126	288	126	7	0	0	116830	691	0	correct_rejection	NA	0
3	Nonet	127	289	127	9	0	0	117538	692	0	correct_rejection	NA	0
3	Nonet	128	290	128	8	0	0	118247	691	0	correct_rejection	NA	0
3	Nonet	129	291	129	7	0	0	118955	692	0	correct_rejection	NA	0
3	Nonet	130	292	130	9	0	0	119664	691	0	correct_rejection	NA	0
3	Nonet	131	293	131	8	0	0	120372	692	0	correct_rejection	NA	0
3	Nonet	132	294	132	7	0	0	121081	692	0	correct_rejection	NA	0
3	Nonet	133	295	133	0	1	3	121790	691	1	hit	321	0
3	Nonet	134	296	134	9	0	0	122498	692	0	correct_rejection	NA	0
3	Nonet	135	297	135	8	0	0	123207	691	0	correct_rejection	NA	0
3	Nonet	136	298	136	7	0	0	123915	692	0	correct_rejection	NA	0
3	Nonet	137	299	137	9	0	0	124624	691	0	correct_rejection	NA	0
3	Nonet	138	300	138	8	0	0	125332	692	0	correct_rejection	NA	0
3	Nonet	139	301	139	7	0	0	126041	692	0	correct_rejection	NA	0
3	Nonet	140	302	140	9	0	0	126749	692	0	correct_rejection	NA	0
3	Nonet	141	303	141	8	0	0	127458	692	0	correct_rejection	NA	0
3	Nonet	142	304	142	7	0	0	128167	691	0	correct_rejection	NA	0
3	Nonet	143	305	143	6	0	0	128875	692	0	correct_rejection	NA	0
3	Nonet	144	306	144	5	0	0	129584	691	0	correct_rejection	NA	0
3	Nonet	145	307	145	4	0	0	130292	692	0	correct_rejection	NA	0
3	Nonet	146	308	146	0	1	2	131001	692	1	hit	280	0
3	Nonet	147	309	147	6	0	0	131709	692	0	correct_rejection	NA	0
3	Nonet	148	310	148	5	0	0	132418	692	0	correct_rejection	NA	0
3	Nonet	149	311	149	4	0	0	133127	691	0	correct_rejection	NA	0
3	Nonet	150	312	150	6	0	0	133835	692	0	correct_rejection	NA	0
3	Nonet	151	313	151	5	0	0	134544	691	0	correct_rejection	NA	0
3	Nonet	152	314	152	4	0	0	135252	692	0	correct_rejection	NA	0
3	Nonet	153	315	153	7	0	0	135961	692	0	correct_rejection	NA	0
3	Nonet	154	316	154	8	0	0	136669	692	0	correct_rejection	NA	0
3	Nonet	155	317	155	0	1	1	137378	692	1	hit	397	0
3	Nonet	156	318	156	9	0	0	138087	691	0	correct_rejection	NA	0
3	Nonet	157	319	157	7	0	0	138795	692	0	correct_rejection	NA	0
3	Nonet	158	320	158	8	0	0	139504	691	0	correct_rejection	NA	0
3	Nonet	159	321	159	9	0	0	140212	692	0	correct_rejection	NA	0
3	Nonet	160	322	160	7	0	0	140921	691	0	correct_rejection	NA	0
3	Nonet	161	323	161	8	0	0	141629	692	0	correct_rejection	NA	0
3	Nonet	162	324	162	9	0	0	142338	692	0	correct_rejection	NA	0
3	Correct	1	325	163	4	0	0	149274	691	0	correct_rejection	NA	6203
3	Correct	2	326	164	5	0	0	149982	692	0	correct_rejection	NA	0
3	Correct	3	327	165	6	0	0	150691	691	0	correct_rejection	NA	0
3	Correct	4	328	166	4	0	0	151399	692	0	correct_rejection	NA	0
3	Correct	5	329	167	5	0	0	152108	691	0	correct_rejection	NA	0
3	Correct	6	330	168	6	0	0	152816	692	0	correct_rejection	NA	0
3	Correct	7	331	169	4	0	0	153525	692	0	correct_rejection	NA	0
3	Correct	8	332	170	5	0	0	154233	692	0	correct_rejection	NA	0
3	Correct	9	333	171	6	0	0	154942	692	0	correct_rejection	NA	0
3	Correct	10	334	172	0	1	3	155651	691	1	hit	348	0
3	Correct	11	335	173	6	0	0	156359	692	0	correct_rejection	NA	0
3	Correct	12	336	174	5	0	0	157068	691	0	correct_rejection	NA	0
3	Correct	13	337	175	4	0	0	157776	692	0	correct_rejection	NA	0
3	Correct	14	338	176	6	0	0	158485	692	0	correct_rejection	NA	0
3	Correct	15	339	177	5	0	0	159193	692	0	correct_rejection	NA	0
3	Correct	16	340	178	4	0	0	159902	692	0	correct_rejection	NA	0
3	Correct	17	341	179	6	0	0	160611	691	0	correct_rejection	NA	0
3	Correct	18	342	180	0	1	1	161319	692	1	hit	412	0
3	Correct	19	343	181	5	0	0	162028	691	0	correct_rejection	NA	0
3	Correct	20	344	182	4	0	0	162736	692	0	correct_rejection	NA	0
3	Correct	21	345	183	9	0	0	163445	692	0	correct_rejection	NA	0
3	Correct	22	346	184	8	0	0	164153	692	0	correct_rejection	NA	0
3	Correct	23	347	185	7	0	0	164862	692	0	correct_rejection	NA	0
3	Correct	24	348	186	0	1	2	165571	691	1	hit	364	0
3	Correct	25	349	187	9	0	0	166279	692	0	correct_rejection	NA	0
3	Correct	26	350	188	8	0	0	166988	691	0	correct_rejection	NA	0
3	Correct	27	351	189	7	0	0	167696	692	0	correct_rejection	NA	0
3	Correct	28	352	190	9	0	0	168405	692	0	correct_rejection	NA	0
3	Correct	29	353	191	8	0	0	169113	692	0	correct_rejection	NA	0
3	Correct	30	354	192	7	0	0	169822	692	0	correct_rejection	NA	0
3	Correct	31	355	193	7	0	0	170531	691	0	correct_rejection	NA	0
3	Correct	32	356	194	8	0	0	171239	692	0	correct_rejection	NA	0
3	Correct	33	357	195	9	0	0	171948	691	0	correct_rejection	NA	0
3	Correct	34	358	196	7	0	0	172656	692	0	correct_rejection	NA	0
3	Correct	35	359	197	8	0	0	173365	691	0	correct_rejection	NA	0
3	Correct	36	360	198	9	0	0	174073	692	0	correct_rejection	NA	0
3	Correct	37	361	199	7	0	0	174782	692	0	correct_rejection	NA	0
3	Correct	38	362	200	0	1	1	175490	692	1	hit	363	0
3	Correct	39	363	201	8	0	0	176199	692	0	correct_rejection	NA	0
3	Correct	40	364	202	9	0	0	176908	691	0	correct_rejection	NA	0
3	Correct	41	365	203	4	0	0	177616	692	0	correct_rejection	NA	0
3	Correct	42	366	204	5	0	0	178325	691	0	correct_rejection	NA	0
3	Correct	43	367	205	6	0	0	179033	692	0	correct_rejection	NA	0
3	Correct	44	368	206	4	0	0	179742	692	0	correct_rejection	NA	0
3	Correct	45	369	207	5	0	0	180450	692	0	correct_rejection	NA	0
3	Correct	46	370	208	6	0	0	181159	692	0	correct_rejection	NA	0
3	Correct	47	371	209	4	0	0	181868	691	0	correct_rejection	NA	0
3	Correct	48	372	210	0	1	1	182576	692	1	hit	332	0
3	Correct	49	373	211	5	0	0	183285	691	0	correct_rejection	NA	0
3	Correct	50	374	212	6	0	0	183993	692	0	correct_rejection	NA	0
3	Correct	51	375	213	6	0	0	184702	692	0	correct_rejection	NA	0
3	Correct	52	376	214	5	0	0	185410	692	0	correct_rejection	NA	0
3	Correct	53	377	215	4	0	0	186119	692	0	correct_rejection	NA	0
3	Correct	54	378	216	6	0	0	186828	691	0	correct_rejection	NA	0
3	Correct	55	379	217	5	0	0	187536	692	0	correct_rejection	NA	0
3	Correct	56	380	218	4	0	0	188245	691	0	correct_rejection	NA	0
3	Correct	57	381	219	6	0	0	188953	692	0	correct_rejection	NA	0
3	Correct	58	382	220	5	0	0	189662	692	0	correct_rejection	NA	0
3	Correct	59	383	221	4	0	0	190370	692	0	correct_rejection	NA	0
3	Correct	60	384	222	9	0	0	191079	692	0	correct_rejection	NA	0
3	Correct	61	385	223	8	0	0	191788	691	0	correct_rejection	NA	0
3	Correct	62	386	224	7	0	0	192496	692	0	correct_rejection	NA	0
3	Correct	63	387	225	9	0	0	193205	691	0	correct_rejection	NA	0
3	Correct	64	388	226	8	0	0	193913	692	0	correct_rejection	NA	0
3	Correct	65	389	227	0	1	1	194622	691	1	hit	408	0
3	Correct	66	390	228	7	0	0	195330	692	0	correct_rejection	NA	0
3	Correct	67	391	229	9	0	0	196039	692	0	correct_rejection	NA	0
3	Correct	68	392	230	8	0	0	196747	692	0	correct_rejection	NA	0
3	Correct	69	393	231	7	0	0	197456	692	0	correct_rejection	NA	0
3	Correct	70	394	232	7	0	0	198165	691	0	correct_rejection	NA	0
3	Correct	71	395	233	8	0	0	198873	692	0	correct_rejection	NA	0
3	Correct	72	396	234	9	0	0	199582	691	0	correct_rejection	NA	0
3	Correct	73	397	235	0	1	2	200290	692	1	hit	327	0
3	Correct	74	398	236	7	0	0	200999	692	0	correct_rejection	NA	0
3	Correct	75	399	237	8	0	0	201707	692	0	correct_rejection	NA	0
3	Correct	76	400	238	0	1	1	202416	692	1	hit	405	0
3	Correct	77	401	239	9	0	0	203125	691	0	correct_rejection	NA	0
3	Correct	78	402	240	7	0	0	203833	692	0	correct_rejection	NA	0
3	Correct	79	403	241	8	0	0	204542	691	0	correct_rejection	NA	0
3	Correct	80	404	242	0	1	1	205250	692	1	hit	361	0
3	Correct	81	405	243	9	0	0	205959	692	0	correct_rejection	NA	0
3	Correct	82	406	244	4	0	0	206667	692	0	correct_rejection	NA	0
3	Correct	83	407	245	5	0	0	207376	692	0	correct_rejection	NA	0
3	Correct	84	408	246	0	1	1	208085	691	1	hit	356	0
3	Correct	85	409	247	6	0	0	208793	692	0	correct_rejection	NA	0
3	Correct	86	410	248	4	0	0	209502	691	0	correct_rejection	NA	0
3	Correct	87	411	249	5	0	0	210210	692	0	correct_rejection	NA	0
3	Correct	88	412	250	6	0	0	210919	691	0	correct_rejection	NA	0
3	Correct	89	413	251	4	0	0	211627	692	0	correct_rejection	NA	0
3	Correct	90	414	252	5	0	0	212336	692	0	correct_rejection	NA	0
3	Correct	91	415	253	6	0	0	213044	692	0	correct_rejection	NA	0
3	Correct	92	416	254	6	0	0	213753	692	0	correct_rejection	NA	0
3	Correct	93	417	255	5	0	0	214462	691	0	correct_rejection	NA	0
3	Correct	94	418	256	4	0	0	215170	692	0	correct_rejection	NA	0
3	Correct	95	419	257	6	0	0	215879	691	0	correct_rejection	NA	0
3	Correct	96	420	258	5	0	0	216587	692	0	correct_rejection	NA	0
3	Correct	97	421	259	4	0	0	217296	692	0	correct_rejection	NA	0
3	Correct	98	422	260	6	0	0	218004	692	0	correct_rejection	NA	0
3	Correct	99	423	261	5	0	0	218713	692	0	correct_rejection	NA	0
3	Correct	100	424	262	4	0	0	219422	691	0	correct_rejection	NA	0
3	Correct	101	425	263	9	0	0	220130	692	0	correct_rejection	NA	0
3	Correct	102	426	264	8	0	0	220839	691	0	correct_rejection	NA	0
3	Correct	103	427	265	7	0	0	221547	692	0	correct_rejection	NA	0
3	Correct	104	428	266	0	1	2	222256	692	1	hit	406	0
3	Correct	105	429	267	9	0	0	222964	692	0	correct_rejection	NA	0
3	Correct	106	430	268	8	0	0	223673	692	0	correct_rejection	NA	0
3	Correct	107	431	269	7	0	0	224382	691	0	correct_rejection	NA	0
3	Correct	108	432	270	9	0	0	225090	692	0	correct_rejection	NA	0
3	Correct	109	433	271	8	0	0	225799	691	0	correct_rejection	NA	0
3	Correct	110	434	272	7	0	0	226507	692	0	correct_rejection	NA	0
3	Correct	111	435	273	0	1	3	227216	692	1	hit	405	0
3	Correct	112	436	274	7	0	0	227924	692	0	correct_rejection	NA	0
3	Correct	113	437	275	8	0	0	228633	692	0	correct_rejection	NA	0
3	Correct	114	438	276	9	0	0	229342	691	0	correct_rejection	NA	0
3	Correct	115	439	277	7	0	0	230050	692	0	correct_rejection	NA	0
3	Correct	116	440	278	0	1	1	230759	691	1	hit	362	0
3	Correct	117	441	279	8	0	0	231467	692	0	correct_rejection	NA	0
3	Correct	118	442	280	9	0	0	232176	691	0	correct_rejection	NA	0
3	Correct	119	443	281	7	0	0	232884	692	0	correct_rejection	NA	0
3	Correct	120	444	282	0	1	1	233593	692	1	hit	471	0
3	Correct	121	445	283	8	0	0	234301	692	0	correct_rejection	NA	0
3	Correct	122	446	284	9	0	0	235010	692	0	correct_rejection	NA	0
3	Correct	123	447	285	4	0	0	235719	691	0	correct_rejection	NA	0
3	Correct	124	448	286	5	0	0	236427	692	0	correct_rejection	NA	0
3	Correct	125	449	287	6	0	0	237136	691	0	correct_rejection	NA	0
3	Correct	126	450	288	4	0	0	237844	692	0	correct_rejection	NA	0
3	Correct	127	451	289	0	1	1	238553	692	1	hit	337	0
3	Correct	128	452	290	5	0	0	239261	692	0	correct_rejection	NA	0
3	Correct	129	453	291	6	0	0	239970	692	0	correct_rejection	NA	0
3	Correct	130	454	292	4	0	0	240679	691	0	correct_rejection	NA	0
3	Correct	131	455	293	5	0	0	241387	692	0	correct_rejection	NA	0
3	Correct	132	456	294	6	0	0	242096	691	0	correct_rejection	NA	0
3	Correct	133	457	295	6	0	0	242804	692	0	correct_rejection	NA	0
3	Correct	134	458	296	5	0	0	243513	692	0	correct_rejection	NA	0
3	Correct	135	459	297	0	1	1	244221	692	1	hit	312	0
3	Correct	136	460	298	4	0	0	244930	692	0	correct_rejection	NA	0
3	Correct	137	461	299	6	0	0	245639	691	0	correct_rejection	NA	0
3	Correct	138	462	300	5	0	0	246347	692	0	correct_rejection	NA	0
3	Correct	139	463	301	4	0	0	247056	691	0	correct_rejection	NA	0
3	Correct	140	464	302	6	0	0	247764	692	0	correct_rejection	NA	0
3	Correct	141	465	303	5	0	0	248473	692	0	correct_rejection	NA	0
3	Correct	142	466	304	4	0	0	249181	692	0	correct_rejection	NA	0
3	Correct	143	467	305	9	0	0	249890	692	0	correct_rejection	NA	0
3	Correct	144	468	306	8	0	0	250599	691	0	correct_rejection	NA	0
3	Correct	145	469	307	7	0	0	251307	692	0	correct_rejection	NA	0
3	Correct	146	470	308	9	0	0	252016	691	0	correct_rejection	NA	0
3	Correct	147	471	309	0	1	1	252724	692	1	hit	251	0
3	Correct	148	472	310	8	0	0	253433	691	0	correct_rejection	NA	0
3	Correct	149	473	311	7	0	0	254141	692	0	correct_rejection	NA	0
3	Correct	150	474	312	9	0	0	254850	692	0	correct_rejection	NA	0
3	Correct	151	475	313	8	0	0	255558	692	0	correct_rejection	NA	0
3	Correct	152	476	314	7	0	0	256267	692	0	correct_rejection	NA	0
3	Correct	153	477	315	7	0	0	256976	691	0	correct_rejection	NA	0
3	Correct	154	478	316	8	0	0	257684	692	0	correct_rejection	NA	0
3	Correct	155	479	317	9	0	0	258393	691	0	correct_rejection	NA	0
3	Correct	156	480	318	0	1	2	259101	692	1	hit	378	0
3	Correct	157	481	319	7	0	0	259810	692	0	correct_rejection	NA	0
3	Correct	158	482	320	8	0	0	260518	692	0	correct_rejection	NA	0
3	Correct	159	483	321	9	0	0	261227	692	0	correct_rejection	NA	0
3	Correct	160	484	322	7	0	0	261936	691	0	correct_rejection	NA	0
3	Correct	161	485	323	8	0	0	262644	692	0	correct_rejection	NA	0
3	Correct	162	486	324	9	0	0	263353	691	0	correct_rejection	NA	0
3	Single	1	487	325	7	0	0	273314	692	0	correct_rejection	NA	9233
3	Single	2	488	326	4	0	0	274023	692	0	correct_rejection	NA	0
3	Single	3	489	327	5	0	0	274731	692	0	correct_rejection	NA	0
3	Single	4	490	328	0	1	1	275440	692	1	hit	310	0
3	Single	5	491	329	5	0	0	276149	691	0	correct_rejection	NA	0
3	Single	6	492	330	7	0	0	276857	692	0	correct_rejection	NA	0
3	Single	7	493	331	6	0	0	277566	691	0	correct_rejection	NA	0
3	Single	8	494	332	4	0	0	278274	692	0	correct_rejection	NA	0
3	Single	9	495	333	9	0	0	278983	692	0	correct_rejection	NA	0
3	Single	10	496	334	0	1	1	279691	692	1	hit	336	0
3	Single	11	497	335	5	0	0	280400	692	0	correct_rejection	NA	0
3	Single	12	498	336	9	0	0	281109	691	0	correct_rejection	NA	0
3	Single	13	499	337	0	1	1	281817	692	1	hit	371	0
3	Single	14	500	338	4	0	0	282526	691	0	correct_rejection	NA	0
3	Single	15	501	339	8	0	0	283234	692	0	correct_rejection	NA	0
3	Single	16	502	340	5	0	0	283943	691	0	correct_rejection	NA	0
3	Single	17	503	341	8	0	0	284651	692	0	correct_rejection	NA	0
3	Single	18	504	342	4	0	0	285360	692	0	correct_rejection	NA	0
3	Single	19	505	343	7	0	0	286068	692	0	correct_rejection	NA	0
3	Single	20	506	344	8	0	0	286777	692	0	correct_rejection	NA	0
3	Single	21	507	345	6	0	0	287486	691	0	correct_rejection	NA	0
3	Single	22	508	346	8	0	0	288194	692	0	correct_rejection	NA	0
3	Single	23	509	347	9	0	0	288903	691	0	correct_rejection	NA	0
3	Single	24	510	348	7	0	0	289611	692	0	correct_rejection	NA	0
3	Single	25	511	349	0	1	1	290320	692	1	hit	338	0
3	Single	26	512	350	5	0	0	291028	692	0	correct_rejection	NA	0
3	Single	27	513	351	6	0	0	291737	692	0	correct_rejection	NA	0
3	Single	28	514	352	9	0	0	292446	691	0	correct_rejection	NA	0
3	Single	29	515	353	6	0	0	293154	692	0	correct_rejection	NA	0
3	Single	30	516	354	6	0	0	293863	691	0	correct_rejection	NA	0
3	Single	31	517	355	5	0	0	294571	692	0	correct_rejection	NA	0
3	Single	32	518	356	4	0	0	295280	692	0	correct_rejection	NA	0
3	Single	33	519	357	4	0	0	295988	692	0	correct_rejection	NA	0
3	Single	34	520	358	0	1	1	296697	692	1	hit	386	0
3	Single	35	521	359	6	0	0	297406	691	0	correct_rejection	NA	0
3	Single	36	522	360	7	0	0	298114	692	0	correct_rejection	NA	0
3	Single	37	523	361	7	0	0	298823	691	0	correct_rejection	NA	0
3	Single	38	524	362	9	0	0	299531	692	0	correct_rejection	NA	0
3	Single	39	525	363	9	0	0	300240	692	0	correct_rejection	NA	0
3	Single	40	526	364	8	0	0	300948	692	0	correct_rejection	NA	0
3	Single	41	527	365	8	0	0	301657	692	0	correct_rejection	NA	0
3	Single	42	528	366	5	0	0	302366	691	0	correct_rejection	NA	0
3	Single	43	529	367	9	0	0	303074	692	0	correct_rejection	NA	0
3	Single	44	530	368	9	0	0	303783	691	0	correct_rejection	NA	0
3	Single	45	531	369	7	0	0	304491	692	0	correct_rejection	NA	0
3	Single	46	532	370	0	1	1	305200	691	1	hit	394	0
3	Single	47	533	371	9	0	0	305908	692	0	correct_rejection	NA	0
3	Single	48	534	372	5	0	0	306617	692	0	correct_rejection	NA	0
3	Single	49	535	373	5	0	0	307325	692	0	correct_rejection	NA	0
3	Single	50	536	374	0	1	1	308034	692	1	hit	380	0
3	Single	51	537	375	8	0	0	308743	691	0	correct_rejection	NA	0
3	Single	52	538	376	7	0	0	309451	692	0	correct_rejection	NA	0
3	Single	53	539	377	5	0	0	310160	691	0	correct_rejection	NA	0
3	Single	54	540	378	4	0	0	310868	692	0	correct_rejection	NA	0
3	Single	55	541	379	5	0	0	311577	692	0	correct_rejection	NA	0
3	Single	56	542	380	7	0	0	312285	692	0	correct_rejection	NA	0
3	Single	57	543	381	7	0	0	312994	692	0	correct_rejection	NA	0
3	Single	58	544	382	4	0	0	313703	691	0	correct_rejection	NA	0
3	Single	59	545	383	9	0	0	314411	692	0	correct_rejection	NA	0
3	Single	60	546	384	6	0	0	315120	691	0	correct_rejection	NA	0
3	Single	61	547	385	7	0	0	315828	692	0	correct_rejection	NA	0
3	Single	62	548	386	8	0	0	316537	692	0	correct_rejection	NA	0
3	Single	63	549	387	4	0	0	317245	692	0	correct_rejection	NA	0
3	Single	64	550	388	6	0	0	317954	692	0	correct_rejection	NA	0
3	Single	65	551	389	5	0	0	318663	691	0	correct_rejection	NA	0
3	Single	66	552	390	6	0	0	319371	692	0	correct_rejection	NA	0
3	Single	67	553	391	6	0	0	320080	691	0	correct_rejection	NA	0
3	Single	68	554	392	9	0	0	320788	692	0	correct_rejection	NA	0
3	Single	69	555	393	8	0	0	321497	691	0	correct_rejection	NA	0
3	Single	70	556	394	9	0	0	322205	692	0	correct_rejection	NA	0
3	Single	71	557	395	4	0	0	322914	692	0	correct_rejection	NA	0
3	Single	72	558	396	4	0	0	323622	692	0	correct_rejection	NA	0
3	Single	73	559	397	8	0	0	324331	692	0	correct_rejection	NA	0
3	Single	74	560	398	6	0	0	325040	691	0	correct_rejection	NA	0
3	Single	75	561	399	4	0	0	325748	692	0	correct_rejection	NA	0
3	Single	76	562	400	7	0	0	326457	691	0	correct_rejection	NA	0
3	Single	77	563	401	6	0	0	327165	692	0	correct_rejection	NA	0
3	Single	78	564	402	8	0	0	327874	692	0	correct_rejection	NA	0
3	Single	79	565	403	8	0	0	328582	692	0	correct_rejection	NA	0
3	Single	80	566	404	4	0	0	329291	692	0	correct_rejection	NA	0
3	Single	81	567	405	7	0	0	330000	691	0	correct_rejection	NA	0
3	Single	82	568	406	5	0	0	330708	692	0	correct_rejection	NA	0
3	Single	83	569	407	5	0	0	331417	691	0	correct_rejection	NA	0
3	Single	84	570	408	4	0	0	332125	692	0	correct_rejection	NA	0
3	Single	85	571	409	0	1	1	332834	692	1	hit	382	0
3	Single	86	572	410	8	0	0	333542	692	0	correct_rejection	NA	0
3	Single	87	573	411	9	0	0	334251	692	0	correct_rejection	NA	0
3	Single	88	574	412	0	1	1	334960	691	1	hit	393	0
3	Single	89	575	413	6	0	0	335668	692	0	correct_rejection	NA	0
3	Single	90	576	414	9	0	0	336377	691	0	correct_rejection	NA	0
3	Single	91	577	415	9	0	0	337085	692	0	correct_rejection	NA	0
3	Single	92	578	416	5	0	0	337794	692	0	correct_rejection	NA	0
3	Single	93	579	417	8	0	0	338502	692	0	correct_rejection	NA	0
3	Single	94	580	418	5	0	0	339211	692	0	correct_rejection	NA	0
3	Single	95	581	419	6	0	0	339920	691	0	correct_rejection	NA	0
3	Single	96	582	420	7	0	0	340628	692	0	correct_rejection	NA	0
3	Single	97	583	421	9	0	0	341337	691	0	correct_rejection	NA	0
3	Single	98	584	422	4	0	0	342045	692	0	correct_rejection	NA	0
3	Single	99	585	423	6	0	0	342754	691	0	correct_rejection	NA	0
3	Single	100	586	424	8	0	0	343462	692	0	correct_rejection	NA	0
3	Single	101	587	425	0	1	1	344171	692	1	hit	361	0
3	Single	102	588	426	4	0	0	344879	692	0	correct_rejection	NA	0
3	Single	103	589	427	5	0	0	345588	692	0	correct_rejection	NA	0
3	Single	104	590	428	9	0	0	346297	691	0	correct_rejection	NA	0
3	Single	105	591	429	8	0	0	347005	692	0	correct_rejection	NA	0
3	Single	106	592	430	7	0	0	347714	691	0	correct_rejection	NA	0
3	Single	107	593	431	0	1	1	348422	692	1	hit	468	0
3	Single	108	594	432	6	0	0	349131	692	0	correct_rejection	NA	0
3	Single	109	595	433	6	0	0	349839	692	0	correct_rejection	NA	0
3	Single	110	596	434	4	0	0	350548	692	0	correct_rejection	NA	0
3	Single	111	597	435	0	1	1	351257	691	1	hit	379	0
3	Single	112	598	436	4	0	0	351965	692	0	correct_rejection	NA	0
3	Single	113	599	437	9	0	0	352674	691	0	correct_rejection	NA	0
3	Single	114	600	438	7	0	0	353382	692	0	correct_rejection	NA	0
3	Single	115	601	439	7	0	0	354091	692	0	correct_rejection	NA	0
3	Single	116	602	440	0	1	1	354799	692	1	hit	329	0
3	Single	117	603	441	8	0	0	355508	692	0	correct_rejection	NA	0
3	Single	118	604	442	8	0	0	356217	691	0	correct_rejection	NA	0
3	Single	119	605	443	6	0	0	356925	692	0	correct_rejection	NA	0
3	Single	120	606	444	5	0	0	357634	691	0	correct_rejection	NA	0
3	Single	121	607	445	7	0	0	358342	692	0	correct_rejection	NA	0
3	Single	122	608	446	0	1	1	359051	692	1	hit	287	0
3	Single	123	609	447	7	0	0	359759	692	0	correct_rejection	NA	0
3	Single	124	610	448	8	0	0	360468	692	0	correct_rejection	NA	0
3	Single	125	611	449	5	0	0	361177	691	0	correct_rejection	NA	0
3	Single	126	612	450	0	1	1	361885	692	1	hit	337	0
3	Single	127	613	451	7	0	0	362594	691	0	correct_rejection	NA	0
3	Single	128	614	452	6	0	0	363302	692	0	correct_rejection	NA	0
3	Single	129	615	453	4	0	0	364011	691	0	correct_rejection	NA	0
3	Single	130	616	454	5	0	0	364719	692	0	correct_rejection	NA	0
3	Single	131	617	455	5	0	0	365428	692	0	correct_rejection	NA	0
3	Single	132	618	456	6	0	0	366136	692	0	correct_rejection	NA	0
3	Single	133	619	457	8	0	0	366845	692	0	correct_rejection	NA	0
3	Single	134	620	458	0	1	1	367554	691	1	hit	355	0
3	Single	135	621	459	6	0	0	368262	692	0	correct_rejection	NA	0
3	Single	136	622	460	9	0	0	368971	691	0	correct_rejection	NA	0
3	Single	137	623	461	4	0	0	369679	692	0	correct_rejection	NA	0
3	Single	138	624	462	8	0	0	370388	692	0	correct_rejection	NA	0
3	Single	139	625	463	7	0	0	371096	692	0	correct_rejection	NA	0
3	Single	140	626	464	0	1	1	371805	692	1	hit	360	0
3	Single	141	627	465	4	0	0	372514	691	0	correct_rejection	NA	0
3	Single	142	628	466	6	0	0	373222	692	0	correct_rejection	NA	0
3	Single	143	629	467	6	0	0	373931	691	0	correct_rejection	NA	0
3	Single	144	630	468	7	0	0	374639	692	0	correct_rejection	NA	0
3	Single	145	631	469	5	0	0	375348	692	0	correct_rejection	NA	0
3	Single	146	632	470	8	0	0	376056	692	0	correct_rejection	NA	0
3	Single	147	633	471	9	0	0	376765	692	0	correct_rejection	NA	0
3	Single	148	634	472	8	0	0	377474	691	0	correct_rejection	NA	0
3	Single	149	635	473	8	0	0	378182	692	0	correct_rejection	NA	0
3	Single	150	636	474	4	0	0	378891	691	0	correct_rejection	NA	0
3	Single	151	637	475	9	0	0	379599	692	0	correct_rejection	NA	0
3	Single	152	638	476	5	0	0	380308	691	0	correct_rejection	NA	0
3	Single	153	639	477	4	0	0	381016	692	0	correct_rejection	NA	0
3	Single	154	640	478	4	0	0	381725	692	0	correct_rejection	NA	0
3	Single	155	641	479	7	0	0	382433	692	0	correct_rejection	NA	0
3	Single	156	642	480	9	0	0	383142	692	0	correct_rejection	NA	0
3	Single	157	643	481	9	0	0	383851	691	0	correct_rejection	NA	0
3	Single	158	644	482	6	0	0	384559	692	0	correct_rejection	NA	0
3	Single	159	645	483	5	0	0	385268	691	0	correct_rejection	NA	0
3	Single	160	646	484	0	1	1	385976	692	1	hit	342	0
3	Single	161	647	485	9	0	0	386685	692	0	correct_rejection	NA	0
3	Single	162	648	486	7	0	0	387393	692	0	correct_rejection	NA	0
3	Nonet	1	1	487	9	0	0	395688	692	0	correct_rejection	NA	7562
3	Nonet	2	2	488	8	0	0	396396	692	0	correct_rejection	NA	0
3	Nonet	3	3	489	7	0	0	397105	692	0	correct_rejection	NA	0
3	Nonet	4	4	490	9	0	0	397814	691	0	correct_rejection	NA	0
3	Nonet	5	5	491	8	0	0	398522	692	0	correct_rejection	NA	0
3	Nonet	6	6	492	7	0	0	399231	691	0	correct_rejection	NA	0
3	Nonet	7	7	493	9	0	0	399939	692	0	correct_rejection	NA	0
3	Nonet	8	8	494	8	0	0	400648	692	0	correct_rejection	NA	0
3	Nonet	9	9	495	7	0	0	401356	692	0	correct_rejection	NA	0
3	Nonet	10	10	496	6	0	0	402065	692	0	correct_rejection	NA	0
3	Nonet	11	11	497	5	0	0	402774	691	0	correct_rejection	NA	0
3	Nonet	12	12	498	4	0	0	403482	692	0	correct_rejection	NA	0
3	Nonet	13	13	499	6	0	0	404191	691	0	correct_rejection	NA	0
3	Nonet	14	14	500	5	0	0	404899	692	0	correct_rejection	NA	0
3	Nonet	15	15	501	4	0	0	405608	691	0	correct_rejection	NA	0
3	Nonet	16	16	502	6	0	0	406316	692	0	correct_rejection	NA	0
3	Nonet	17	17	503	0	1	1	407025	692	1	hit	332	0
3	Nonet	18	18	504	5	0	0	407733	692	0	correct_rejection	NA	0
3	Nonet	19	19	505	4	0	0	408442	692	0	correct_rejection	NA	0
3	Nonet	20	20	506	6	0	0	409151	691	0	correct_rejection	NA	0
3	Nonet	21	21	507	5	0	0	409859	692	0	correct_rejection	NA	0
3	Nonet	22	22	508	0	1	1	410568	691	1	hit	380	0
3	Nonet	23	23	509	4	0	0	411276	692	0	correct_rejection	NA	0
3	Nonet	24	24	510	6	0	0	411985	692	0	correct_rejection	NA	0
3	Nonet	25	25	511	5	0	0	412693	692	0	correct_rejection	NA	0
3	Nonet	26	26	512	4	0	0	413402	692	0	correct_rejection	NA	0
3	Nonet	27	27	513	6	0	0	414111	691	0	correct_rejection	NA	0
3	Nonet	28	28	514	5	0	0	414819	692	0	correct_rejection	NA	0
3	Nonet	29	29	515	4	0	0	415528	691	0	correct_rejection	NA	0
3	Nonet	30	30	516	9	0	0	416236	692	0	correct_rejection	NA	0
3	Nonet	31	31	517	8	0	0	416945	692	0	correct_rejection	NA	0
3	Nonet	32	32	518	0	1	1	417653	692	1	hit	371	0
3	Nonet	33	33	519	7	0	0	418362	692	0	correct_rejection	NA	0
3	Nonet	34	34	520	9	0	0	419071	691	0	correct_rejection	NA	0
3	Nonet	35	35	521	8	0	0	419779	692	0	correct_rejection	NA	0
3	Nonet	36	36	522	7	0	0	420488	691	0	correct_rejection	NA	0
3	Nonet	37	37	523	9	0	0	421196	692	0	correct_rejection	NA	0
3	Nonet	38	38	524	8	0	0	421905	691	0	correct_rejection	NA	0
3	Nonet	39	39	525	7	0	0	422613	692	0	correct_rejection	NA	0
3	Nonet	40	40	526	4	0	0	423322	692	0	correct_rejection	NA	0
3	Nonet	41	41	527	5	0	0	424030	692	0	correct_rejection	NA	0
3	Nonet	42	42	528	6	0	0	424739	692	0	correct_rejection	NA	0
3	Nonet	43	43	529	0	1	2	425448	691	1	hit	376	0
3	Nonet	44	44	530	4	0	0	426156	692	0	correct_rejection	NA	0
3	Nonet	45	45	531	5	0	0	426865	691	0	correct_rejection	NA	0
3	Nonet	46	46	532	6	0	0	427573	692	0	correct_rejection	NA	0
3	Nonet	47	47	533	0	1	2	428282	692	1	hit	396	0
3	Nonet	48	48	534	4	0	0	428990	692	0	correct_rejection	NA	0
3	Nonet	49	49	535	5	0	0	429699	692	0	correct_rejection	NA	0
3	Nonet	50	50	536	6	0	0	430408	691	0	correct_rejection	NA	0
3	Nonet	51	51	537	4	0	0	431116	692	0	correct_rejection	NA	0
3	Nonet	52	52	538	5	0	0	431825	691	0	correct_rejection	NA	0
3	Nonet	53	53	539	0	1	1	432533	692	1	hit	447	0
3	Nonet	54	54	540	6	0	0	433242	692	0	correct_rejection	NA	0
3	Nonet	55	55	541	4	0	0	433950	692	0	correct_rejection	NA	0
3	Nonet	56	56	542	5	0	0	434659	692	0	correct_rejection	NA	0
3	Nonet	57	57	543	6	0	0	435368	691	0	correct_rejection	NA	0
3	Nonet	58	58	544	4	0	0	436076	692	0	correct_rejection	NA	0
3	Nonet	59	59	545	5	0	0	436785	691	0	correct_rejection	NA	0
3	Nonet	60	60	546	6	0	0	437493	692	0	correct_rejection	NA	0
3	Nonet	61	61	547	7	0	0	438202	692	0	correct_rejection	NA	0
3	Nonet	62	62	548	8	0	0	438910	692	0	correct_rejection	NA	0
3	Nonet	63	63	549	9	0	0	439619	692	0	correct_rejection	NA	0
3	Nonet	64	64	550	7	0	0	440328	691	0	correct_rejection	NA	0
3	Nonet	65	65	551	8	0	0	441036	692	0	correct_rejection	NA	0
3	Nonet	66	66	552	0	1	1	441745	691	1	hit	347	0
3	Nonet	67	67	553	9	0	0	442453	692	0	correct_rejection	NA	0
3	Nonet	68	68	554	7	0	0	443162	691	0	correct_rejection	NA	0
3	Nonet	69	69	555	8	0	0	443870	692	0	correct_rejection	NA	0
3	Nonet	70	70	556	9	0	0	444579	692	0	correct_rejection	NA	0
3	Nonet	71	71	557	4	0	0	445287	692	0	correct_rejection	NA	0
3	Nonet	72	72	558	5	0	0	445996	692	0	correct_rejection	NA	0
3	Nonet	73	73	559	6	0	0	446705	691	0	correct_rejection	NA	0
3	Nonet	74	74	560	4	0	0	447413	692	0	correct_rejection	NA	0
3	Nonet	75	75	561	5	0	0	448122	691	0	correct_rejection	NA	0
3	Nonet	76	76	562	6	0	0	448830	692	0	correct_rejection	NA	0
3	Nonet	77	77	563	4	0	0	449539	692	0	correct_rejection	NA	0
3	Nonet	78	78	564	5	0	0	450247	692	0	correct_rejection	NA	0
3	Nonet	79	79	565	6	0	0	450956	692	0	correct_rejection	NA	0
3	Nonet	80	80	566	9	0	0	451665	691	0	correct_rejection	NA	0
3	Nonet	81	81	567	8	0	0	452373	692	0	correct_rejection	NA	0
3	Nonet	82	82	568	0	1	1	453082	691	1	hit	388	0
3	Nonet	83	83	569	7	0	0	453790	692	0	correct_rejection	NA	0
3	Nonet	84	84	570	9	0	0	454499	692	0	correct_rejection	NA	0
3	Nonet	85	85	571	8	0	0	455207	692	0	correct_rejection	NA	0
3	Nonet	86	86	572	0	1	1	455916	692	0	miss	NA	0
3	Nonet	87	87	573	7	0	0	456625	691	0	correct_rejection	NA	0
3	Nonet	88	88	574	9	0	0	457333	692	0	correct_rejection	NA	0
3	Nonet	89	89	575	8	0	0	458042	691	0	correct_rejection	NA	0
3	Nonet	90	90	576	7	0	0	458750	692	0	correct_rejection	NA	0
3	Nonet	91	91	577	0	1	3	459459	691	1	hit	390	0
3	Nonet	92	92	578	9	0	0	460167	692	0	correct_rejection	NA	0
3	Nonet	93	93	579	8	0	0	460876	692	0	correct_rejection	NA	0
3	Nonet	94	94	580	7	0	0	461585	691	0	correct_rejection	NA	0
3	Nonet	95	95	581	9	0	0	462293	692	0	correct_rejection	NA	0
3	Nonet	96	96	582	8	0	0	463002	691	0	correct_rejection	NA	0
3	Nonet	97	97	583	7	0	0	463710	692	0	correct_rejection	NA	0
3	Nonet	98	98	584	9	0	0	464419	691	0	correct_rejection	NA	0
3	Nonet	99	99	585	8	0	0	465127	692	0	correct_rejection	NA	0
3	Nonet	100	100	586	7	0	0	465836	692	0	correct_rejection	NA	0
3	Nonet	101	101	587	7	0	0	466544	692	0	correct_rejection	NA	0
3	Nonet	102	102	588	0	1	1	467253	692	1	hit	398	0
3	Nonet	103	103	589	8	0	0	467962	691	0	correct_rejection	NA	0
3	Nonet	104	104	590	9	0	0	468670	692	0	correct_rejection	NA	0
3	Nonet	105	105	591	7	0	0	469379	691	0	correct_rejection	NA	0
3	Nonet	106	106	592	8	0	0	470087	692	0	correct_rejection	NA	0
3	Nonet	107	107	593	9	0	0	470796	692	0	correct_rejection	NA	0
3	Nonet	108	108	594	7	0	0	471504	692	0	correct_rejection	NA	0
3	Nonet	109	109	595	8	0	0	472213	692	0	correct_rejection	NA	0
3	Nonet	110	110	596	9	0	0	472922	691	0	correct_rejection	NA	0
3	Nonet	111	111	597	6	0	0	473630	692	0	correct_rejection	NA	0
3	Nonet	112	112	598	5	0	0	474339	691	0	correct_rejection	NA	0
3	Nonet	113	113	599	0	1	1	475047	692	1	hit	365	0
3	Nonet	114	114	600	4	0	0	475756	692	0	correct_rejection	NA	0
3	Nonet	115	115	601	6	0	0	476464	692	0	correct_rejection	NA	0
3	Nonet	116	116	602	5	0	0	477173	692	0	correct_rejection	NA	0
3	Nonet	117	117	603	4	0	0	477882	691	0	correct_rejection	NA	0
3	Nonet	118	118	604	0	1	2	478590	692	1	hit	454	0
3	Nonet	119	119	605	6	0	0	479299	691	0	correct_rejection	NA	0
3	Nonet	120	120	606	5	0	0	480007	692	0	correct_rejection	NA	0
3	Nonet	121	121	607	4	0	0	480716	691	0	correct_rejection	NA	0
3	Nonet	122	122	608	4	0	0	481424	692	0	correct_rejection	NA	0
3	Nonet	123	123	609	5	0	0	482133	692	0	correct_rejection	NA	0
3	Nonet	124	124	610	6	0	0	482841	692	0	correct_rejection	NA	0
3	Nonet	125	125	611	4	0	0	483550	692	0	correct_rejection	NA	0
3	Nonet	126	126	612	5	0	0	484259	691	0	correct_rejection	NA	0
3	Nonet	127	127	613	0	1	1	484967	692	1	hit	345	0
3	Nonet	128	128	614	6	0	0	485676	691	0	correct_rejection	NA	0
3	Nonet	129	129	615	4	0	0	486384	692	0	correct_rejection	NA	0
3	Nonet	130	130	616	0	1	1	487093	692	1	hit	386	0
3	Nonet	131	131	617	5	0	0	487801	692	0	correct_rejection	NA	0
3	Nonet	132	132	618	6	0	0	488510	692	0	correct_rejection	NA	0
3	Nonet	133	133	619	6	0	0	489219	691	0	correct_rejection	NA	0
3	Nonet	134	134	620	5	0	0	489927	692	0	correct_rejection	NA	0
3	Nonet	135	135	621	4	0	0	490636	691	0	correct_rejection	NA	0
3	Nonet	136	136	622	6	0	0	491344	692	0	correct_rejection	NA	0
3	Nonet	137	137	623	5	0	0	492053	692	0	correct_rejection	NA	0
3	Nonet	138	138	624	4	0	0	492761	692	0	correct_rejection	NA	0
3	Nonet	139	139	625	6	0	0	493470	692	0	correct_rejection	NA	0
3	Nonet	140	140	626	5	0	0	494179	691	0	correct_rejection	NA	0
3	Nonet	141	141	627	4	0	0	494887	692	0	correct_rejection	NA	0
3	Nonet	142	142	628	7	0	0	495596	691	0	correct_rejection	NA	0
3	Nonet	143	143	629	8	0	0	496304	692	0	correct_rejection	NA	0
3	Nonet	144	144	630	0	1	1	497013	692	1	hit	530	0
3	Nonet	145	145	631	9	0	0	497721	692	0	correct_rejection	NA	0
3	Nonet	146	146	632	7	0	0	498430	692	0	correct_rejection	NA	0
3	Nonet	147	147	633	8	0	0	499139	691	0	correct_rejection	NA	0
3	Nonet	148	148	634	9	0	0	499847	692	0	correct_rejection	NA	0
3	Nonet	149	149	635	0	1	2	500556	691	1	hit	345	0
3	Nonet	150	150	636	7	0	0	501264	692	0	correct_rejection	NA	0
3	Nonet	151	151	637	8	0	0	501973	691	0	correct_rejection	NA	0
3	Nonet	152	152	638	9	0	0	502681	692	0	correct_rejection	NA	0
3	Nonet	153	153	639	7	0	0	503390	692	0	correct_rejection	NA	0
3	Nonet	154	154	640	8	0	0	504098	692	0	correct_rejection	NA	0
3	Nonet	155	155	641	9	0	0	504807	692	0	correct_rejection	NA	0
3	Nonet	156	156	642	7	0	0	505516	691	0	correct_rejection	NA	0
3	Nonet	157	157	643	8	0	0	506224	692	0	correct_rejection	NA	0
3	Nonet	158	158	644	9	0	0	506933	691	0	correct_rejection	NA	0
3	Nonet	159	159	645	0	1	2	507641	692	1	hit	350	0
3	Nonet	160	160	646	7	0	0	508350	692	0	correct_rejection	NA	0
3	Nonet	161	161	647	8	0	0	509058	692	0	correct_rejection	NA	0
3	Nonet	162	162	648	9	0	0	509767	692	0	correct_rejection	NA	0
3	Triplet	1	163	649	6	0	0	518520	692	0	correct_rejection	NA	8020
3	Triplet	2	164	650	5	0	0	519228	692	0	correct_rejection	NA	0
3	Triplet	3	165	651	4	0	0	519937	692	0	correct_rejection	NA	0
3	Triplet	4	166	652	0	1	2	520646	691	1	hit	561	0
3	Triplet	5	167	653	6	0	0	521354	692	0	correct_rejection	NA	0
3	Triplet	6	168	654	5	0	0	522063	691	0	correct_rejection	NA	0
3	Triplet	7	169	655	0	1	1	522771	692	1	hit	364	0
3	Triplet	8	170	656	4	0	0	523480	692	0	correct_rejection	NA	0
3	Triplet	9	171	657	4	0	0	524188	692	0	correct_rejection	NA	0
3	Triplet	10	172	658	5	0	0	524897	692	0	correct_rejection	NA	0
3	Triplet	11	173	659	0	1	1	525606	691	1	hit	340	0
3	Triplet	12	174	660	6	0	0	526314	692	0	correct_rejection	NA	0
3	Triplet	13	175	661	9	0	0	527023	691	0	correct_rejection	NA	0
3	Triplet	14	176	662	8	0	0	527731	692	0	correct_rejection	NA	0
3	Triplet	15	177	663	7	0	0	528440	691	0	correct_rejection	NA	0
3	Triplet	16	178	664	6	0	0	529148	692	0	correct_rejection	NA	0
3	Triplet	17	179	665	0	1	1	529857	692	1	hit	331	0
3	Triplet	18	180	666	5	0	0	530566	691	0	correct_rejection	NA	0
3	Triplet	19	181	667	4	0	0	531274	692	0	correct_rejection	NA	0
3	Triplet	20	182	668	9	0	0	531983	691	0	correct_rejection	NA	0
3	Triplet	21	183	669	8	0	0	532691	692	0	correct_rejection	NA	0
3	Triplet	22	184	670	7	0	0	533400	691	0	correct_rejection	NA	0
3	Triplet	23	185	671	0	1	2	534108	692	1	hit	355	0
3	Triplet	24	186	672	7	0	0	534817	692	0	correct_rejection	NA	0
3	Triplet	25	187	673	8	0	0	535525	692	0	correct_rejection	NA	0
3	Triplet	26	188	674	9	0	0	536234	692	0	correct_rejection	NA	0
3	Triplet	27	189	675	6	0	0	536943	691	0	correct_rejection	NA	0
3	Triplet	28	190	676	5	0	0	537651	692	0	correct_rejection	NA	0
3	Triplet	29	191	677	0	1	1	538360	691	1	hit	316	0
3	Triplet	30	192	678	4	0	0	539068	692	0	correct_rejection	NA	0
3	Triplet	31	193	679	7	0	0	539777	692	0	correct_rejection	NA	0
3	Triplet	32	194	680	8	0	0	540485	692	0	correct_rejection	NA	0
3	Triplet	33	195	681	9	0	0	541194	692	0	correct_rejection	NA	0
3	Triplet	34	196	682	7	0	0	541903	691	0	correct_rejection	NA	0
3	Triplet	35	197	683	8	0	0	542611	692	0	correct_rejection	NA	0
3	Triplet	36	198	684	9	0	0	543320	691	0	correct_rejection	NA	0
3	Triplet	37	199	685	9	0	0	544028	692	0	correct_rejection	NA	0
3	Triplet	38	200	686	8	0	0	544737	692	0	correct_rejection	NA	0
3	Triplet	39	201	687	7	0	0	545445	692	0	correct_rejection	NA	0
3	Triplet	40	202	688	9	0	0	546154	692	0	correct_rejection	NA	0
3	Triplet	41	203	689	8	0	0	546863	691	0	correct_rejection	NA	0
3	Triplet	42	204	690	0	1	1	547571	692	1	hit	340	0
3	Triplet	43	205	691	7	0	0	548280	691	0	correct_rejection	NA	0
3	Triplet	44	206	692	4	0	0	548988	692	0	correct_rejection	NA	0
3	Triplet	45	207	693	5	0	0	549697	691	0	correct_rejection	NA	0
3	Triplet	46	208	694	6	0	0	550405	692	0	correct_rejection	NA	0
3	Triplet	47	209	695	4	0	0	551114	692	0	correct_rejection	NA	0
3	Triplet	48	210	696	5	0	0	551822	692	0	correct_rejection	NA	0
3	Triplet	49	211	697	6	0	0	552531	692	0	correct_rejection	NA	0
3	Triplet	50	212	698	7	0	0	553240	691	0	correct_rejection	NA	0
3	Triplet	51	213	699	8	0	0	553948	692	0	correct_rejection	NA	0
3	Triplet	52	214	700	9	0	0	554657	691	0	correct_rejection	NA	0
3	Triplet	53	215	701	4	0	0	555365	692	0	correct_rejection	NA	0
3	Triplet	54	216	702	5	0	0	556074	692	0	correct_rejection	NA	0
3	Triplet	55	217	703	6	0	0	556782	692	0	correct_rejection	NA	0
3	Triplet	56	218	704	7	0	0	557491	692	0	correct_rejection	NA	0
3	Triplet	57	219	705	0	1	1	558200	691	1	hit	354	0
3	Triplet	58	220	706	8	0	0	558908	692	0	correct_rejection	NA	0
3	Triplet	59	221	707	9	0	0	559617	691	0	correct_rejection	NA	0
3	Triplet	60	222	708	0	1	2	560325	692	1	hit	374	0
3	Triplet	61	223	709	6	0	0	561034	692	0	correct_rejection	NA	0
3	Triplet	62	224	710	5	0	0	561742	692	0	correct_rejection	NA	0
3	Triplet	63	225	711	4	0	0	562451	692	0	correct_rejection	NA	0
3	Triplet	64	226	712	6	0	0	563160	691	0	correct_rejection	NA	0
3	Triplet	65	227	713	5	0	0	563868	692	0	correct_rejection	NA	0
3	Triplet	66	228	714	4	0	0	564577	691	0	correct_rejection	NA	0
3	Triplet	67	229	715	9	0	0	565285	692	0	correct_rejection	NA	0
3	Triplet	68	230	716	8	0	0	565994	692	0	correct_rejection	NA	0
3	Triplet	69	231	717	7	0	0	566702	692	0	correct_rejection	NA	0
3	Triplet	70	232	718	4	0	0	567411	692	0	correct_rejection	NA	0
3	Triplet	71	233	719	0	1	1	568120	691	1	hit	315	0
3	Triplet	72	234	720	5	0	0	568828	692	0	correct_rejection	NA	0
3	Triplet	73	235	721	6	0	0	569537	691	0	correct_rejection	NA	0
3	Triplet	74	236	722	7	0	0	570245	692	0	correct_rejection	NA	0
3	Triplet	75	237	723	8	0	0	570954	691	0	correct_rejection	NA	0
3	Triplet	76	238	724	9	0	0	571662	692	0	correct_rejection	NA	0
3	Triplet	77	239	725	7	0	0	572371	692	0	correct_rejection	NA	0
3	Triplet	78	240	726	8	0	0	573079	692	0	correct_rejection	NA	0
3	Triplet	79	241	727	9	0	0	573788	692	0	correct_rejection	NA	0
3	Triplet	80	242	728	4	0	0	574497	691	0	correct_rejection	NA	0
3	Triplet	81	243	729	5	0	0	575205	692	0	correct_rejection	NA	0
3	Triplet	82	244	730	6	0	0	575914	691	0	correct_rejection	NA	0
3	Triplet	83	245	731	6	0	0	576622	692	0	correct_rejection	NA	0
3	Triplet	84	246	732	5	0	0	577331	692	0	correct_rejection	NA	0
3	Triplet	85	247	733	4	0	0	578039	692	0	correct_rejection	NA	0
3	Triplet	86	248	734	7	0	0	578748	692	0	correct_rejection	NA	0
3	Triplet	87	249	735	8	0	0	579457	691	0	correct_rejection	NA	0
3	Triplet	88	250	736	9	0	0	580165	692	0	correct_rejection	NA	0
3	Triplet	89	251	737	9	0	0	580874	691	0	correct_rejection	NA	0
3	Triplet	90	252	738	8	0	0	581582	692	0	correct_rejection	NA	0
3	Triplet	91	253	739	7	0	0	582291	692	0	correct_rejection	NA	0
3	Triplet	92	254	740	6	0	0	582999	692	0	correct_rejection	NA	0
3	Triplet	93	255	741	5	0	0	583708	692	0	correct_rejection	NA	0
3	Triplet	94	256	742	4	0	0	584417	691	0	correct_rejection	NA	0
3	Triplet	95	257	743	4	0	0	585125	692	0	correct_rejection	NA	0
3	Triplet	96	258	744	5	0	0	585834	691	0	correct_rejection	NA	0
3	Triplet	97	259	745	6	0	0	586542	692	0	correct_rejection	NA	0
3	Triplet	98	260	746	4	0	0	587251	691	0	correct_rejection	NA	0
3	Triplet	99	261	747	5	0	0	587959	692	0	correct_rejection	NA	0
3	Triplet	100	262	748	6	0	0	588668	692	0	correct_rejection	NA	0
3	Triplet	101	263	749	9	0	0	589377	691	0	correct_rejection	NA	0
3	Triplet	102	264	750	8	0	0	590085	692	0	correct_rejection	NA	0
3	Triplet	103	265	751	7	0	0	590794	691	0	correct_rejection	NA	0
3	Triplet	104	266	752	0	1	2	591502	692	1	hit	279	0
3	Triplet	105	267	753	9	0	0	592211	691	0	correct_rejection	NA	0
3	Triplet	106	268	754	8	0	0	592919	692	0	correct_rejection	NA	0
3	Triplet	107	269	755	7	0	0	593628	692	0	correct_rejection	NA	0
3	Triplet	108	270	756	4	0	0	594336	692	0	correct_rejection	NA	0
3	Triplet	109	271	757	5	0	0	595045	692	0	correct_rejection	NA	0
3	Triplet	110	272	758	6	0	0	595754	691	0	correct_rejection	NA	0
3	Triplet	111	273	759	4	0	0	596462	692	0	correct_rejection	NA	0
3	Triplet	112	274	760	5	0	0	597171	691	0	correct_rejection	NA	0
3	Triplet	113	275	761	6	0	0	597879	692	0	correct_rejection	NA	0
3	Triplet	114	276	762	6	0	0	598588	692	0	correct_rejection	NA	0
3	Triplet	115	277	763	0	1	1	599296	692	1	hit	383	0
3	Triplet	116	278	764	5	0	0	600005	692	0	correct_rejection	NA	0
3	Triplet	117	279	765	4	0	0	600714	691	0	correct_rejection	NA	0
3	Triplet	118	280	766	9	0	0	601422	692	0	correct_rejection	NA	0
3	Triplet	119	281	767	8	0	0	602131	691	0	correct_rejection	NA	0
3	Triplet	120	282	768	0	1	1	602839	692	1	hit	349	0
3	Triplet	121	283	769	7	0	0	603548	692	0	correct_rejection	NA	0
3	Triplet	122	284	770	9	0	0	604256	692	0	correct_rejection	NA	0
3	Triplet	123	285	771	0	1	1	604965	692	1	hit	501	0
3	Triplet	124	286	772	8	0	0	605674	691	0	correct_rejection	NA	0
3	Triplet	125	287	773	7	0	0	606382	692	0	correct_rejection	NA	0
3	Triplet	126	288	774	6	0	0	607091	691	0	correct_rejection	NA	0
3	Triplet	127	289	775	5	0	0	607799	692	0	correct_rejection	NA	0
3	Triplet	128	290	776	4	0	0	608508	691	0	correct_rejection	NA	0
3	Triplet	129	291	777	6	0	0	609216	692	0	correct_rejection	NA	0
3	Triplet	130	292	778	5	0	0	609925	692	0	correct_rejection	NA	0
3	Triplet	131	293	779	4	0	0	610633	692	0	correct_rejection	NA	0
3	Triplet	132	294	780	7	0	0	611342	692	0	correct_rejection	NA	0
3	Triplet	133	295	781	0	1	1	612051	691	1	hit	366	0
3	Triplet	134	296	782	8	0	0	612759	692	0	correct_rejection	NA	0
3	Triplet	135	297	783	9	0	0	613468	691	0	correct_rejection	NA	0
3	Triplet	136	298	784	4	0	0	614176	692	0	correct_rejection	NA	0
3	Triplet	137	299	785	5	0	0	614885	692	0	correct_rejection	NA	0
3	Triplet	138	300	786	6	0	0	615593	692	0	correct_rejection	NA	0
3	Triplet	139	301	787	7	0	0	616302	692	0	correct_rejection	NA	0
3	Triplet	140	302	788	8	0	0	617011	691	0	correct_rejection	NA	0
3	Triplet	141	303	789	0	1	1	617719	692	1	hit	335	0
3	Triplet	142	304	790	9	0	0	618428	691	0	correct_rejection	NA	0
3	Triplet	143	305	791	9	0	0	619136	692	0	correct_rejection	NA	0
3	Triplet	144	306	792	8	0	0	619845	692	0	correct_rejection	NA	0
3	Triplet	145	307	793	7	0	0	620553	692	0	correct_rejection	NA	0
3	Triplet	146	308	794	4	0	0	621262	692	0	correct_rejection	NA	0
3	Triplet	147	309	795	5	0	0	621971	691	0	correct_rejection	NA	0
3	Triplet	148	310	796	6	0	0	622679	692	0	correct_rejection	NA	0
3	Triplet	149	311	797	9	0	0	623388	691	0	correct_rejection	NA	0
3	Triplet	150	312	798	0	1	1	624096	692	1	hit	383	0
3	Triplet	151	313	799	8	0	0	624805	692	0	correct_rejection	NA	0
3	Triplet	152	314	800	7	0	0	625513	692	0	correct_rejection	NA	0
3	Triplet	153	315	801	7	0	0	626222	692	0	correct_rejection	NA	0
3	Triplet	154	316	802	8	0	0	626931	691	0	correct_rejection	NA	0
3	Triplet	155	317	803	9	0	0	627639	692	0	correct_rejection	NA	0
3	Triplet	156	318	804	7	0	0	628348	691	0	correct_rejection	NA	0
3	Triplet	157	319	805	0	1	1	629056	692	1	hit	347	0
3	Triplet	158	320	806	8	0	0	629765	691	0	correct_rejection	NA	0
3	Triplet	159	321	807	9	0	0	630473	692	0	correct_rejection	NA	0
3	Triplet	160	322	808	6	0	0	631182	692	0	correct_rejection	NA	0
3	Triplet	161	323	809	5	0	0	631890	692	0	correct_rejection	NA	0
3	Triplet	162	324	810	4	0	0	632599	692	0	correct_rejection	NA	0
trigger nr 622 at 632381
trigger nr 632 at 715674
3	Single	1	325	811	9	0	0	721678	692	0	correct_rejection	NA	5961
3	Single	2	326	812	5	0	0	722387	692	0	correct_rejection	NA	0
3	Single	3	327	813	7	0	0	723095	692	0	correct_rejection	NA	0
3	Single	4	328	814	6	0	0	723804	692	0	correct_rejection	NA	0
3	Single	5	329	815	0	1	1	724513	691	1	hit	372	0
3	Single	6	330	816	9	0	0	725221	692	0	correct_rejection	NA	0
3	Single	7	331	817	4	0	0	725930	691	0	correct_rejection	NA	0
3	Single	8	332	818	4	0	0	726638	692	0	correct_rejection	NA	0
3	Single	9	333	819	7	0	0	727347	692	0	correct_rejection	NA	0
3	Single	10	334	820	8	0	0	728055	692	0	correct_rejection	NA	0
3	Single	11	335	821	5	0	0	728764	692	0	correct_rejection	NA	0
3	Single	12	336	822	9	0	0	729473	691	0	correct_rejection	NA	0
3	Single	13	337	823	0	1	1	730181	692	1	hit	403	0
3	Single	14	338	824	8	0	0	730890	691	0	correct_rejection	NA	0
3	Single	15	339	825	6	0	0	731598	692	0	correct_rejection	NA	0
3	Single	16	340	826	7	0	0	732307	692	0	correct_rejection	NA	0
3	Single	17	341	827	4	0	0	733015	692	0	correct_rejection	NA	0
3	Single	18	342	828	0	1	1	733724	692	1	hit	362	0
3	Single	19	343	829	5	0	0	734433	691	0	correct_rejection	NA	0
3	Single	20	344	830	8	0	0	735141	692	0	correct_rejection	NA	0
3	Single	21	345	831	8	0	0	735850	691	0	correct_rejection	NA	0
3	Single	22	346	832	9	0	0	736558	692	0	correct_rejection	NA	0
3	Single	23	347	833	7	0	0	737267	691	0	correct_rejection	NA	0
3	Single	24	348	834	5	0	0	737975	692	0	correct_rejection	NA	0
3	Single	25	349	835	5	0	0	738684	692	0	correct_rejection	NA	0
3	Single	26	350	836	4	0	0	739392	692	0	correct_rejection	NA	0
3	Single	27	351	837	9	0	0	740101	692	0	correct_rejection	NA	0
3	Single	28	352	838	9	0	0	740810	691	0	correct_rejection	NA	0
3	Single	29	353	839	6	0	0	741518	692	0	correct_rejection	NA	0
3	Single	30	354	840	8	0	0	742227	691	0	correct_rejection	NA	0
3	Single	31	355	841	4	0	0	742935	692	0	correct_rejection	NA	0
3	Single	32	356	842	6	0	0	743644	692	0	correct_rejection	NA	0
3	Single	33	357	843	0	1	1	744352	692	1	hit	372	0
3	Single	34	358	844	6	0	0	745061	692	0	correct_rejection	NA	0
3	Single	35	359	845	5	0	0	745770	691	0	correct_rejection	NA	0
3	Single	36	360	846	6	0	0	746478	692	0	correct_rejection	NA	0
3	Single	37	361	847	4	0	0	747187	691	0	correct_rejection	NA	0
3	Single	38	362	848	8	0	0	747895	692	0	correct_rejection	NA	0
3	Single	39	363	849	7	0	0	748604	692	0	correct_rejection	NA	0
3	Single	40	364	850	7	0	0	749312	692	0	correct_rejection	NA	0
3	Single	41	365	851	5	0	0	750021	692	0	correct_rejection	NA	0
3	Single	42	366	852	8	0	0	750730	691	0	correct_rejection	NA	0
3	Single	43	367	853	4	0	0	751438	692	0	correct_rejection	NA	0
3	Single	44	368	854	5	0	0	752147	691	0	correct_rejection	NA	0
3	Single	45	369	855	6	0	0	752855	692	0	correct_rejection	NA	0
3	Single	46	370	856	8	0	0	753564	691	0	correct_rejection	NA	0
3	Single	47	371	857	6	0	0	754272	692	0	correct_rejection	NA	0
3	Single	48	372	858	6	0	0	754981	692	0	correct_rejection	NA	0
3	Single	49	373	859	0	1	1	755689	692	1	hit	462	0
3	Single	50	374	860	4	0	0	756398	692	0	correct_rejection	NA	0
3	Single	51	375	861	7	0	0	757107	691	0	correct_rejection	NA	0
3	Single	52	376	862	9	0	0	757815	692	0	correct_rejection	NA	0
3	Single	53	377	863	0	1	1	758524	691	1	hit	486	0
3	Single	54	378	864	7	0	0	759232	692	0	correct_rejection	NA	0
3	Single	55	379	865	7	0	0	759941	692	0	correct_rejection	NA	0
3	Single	56	380	866	8	0	0	760649	692	0	correct_rejection	NA	0
3	Single	57	381	867	0	1	1	761358	692	1	hit	334	0
3	Single	58	382	868	7	0	0	762067	691	0	correct_rejection	NA	0
3	Single	59	383	869	4	0	0	762775	692	0	correct_rejection	NA	0
3	Single	60	384	870	0	1	1	763484	691	1	hit	297	0
3	Single	61	385	871	9	0	0	764192	692	0	correct_rejection	NA	0
3	Single	62	386	872	8	0	0	764901	692	0	correct_rejection	NA	0
3	Single	63	387	873	9	0	0	765609	692	0	correct_rejection	NA	0
3	Single	64	388	874	5	0	0	766318	692	0	correct_rejection	NA	0
3	Single	65	389	875	5	0	0	767027	691	0	correct_rejection	NA	0
3	Single	66	390	876	7	0	0	767735	692	0	correct_rejection	NA	0
3	Single	67	391	877	5	0	0	768444	691	0	correct_rejection	NA	0
3	Single	68	392	878	9	0	0	769152	692	0	correct_rejection	NA	0
3	Single	69	393	879	6	0	0	769861	692	0	correct_rejection	NA	0
3	Single	70	394	880	9	0	0	770569	692	0	correct_rejection	NA	0
3	Single	71	395	881	9	0	0	771278	692	0	correct_rejection	NA	0
3	Single	72	396	882	4	0	0	771987	691	0	correct_rejection	NA	0
3	Single	73	397	883	6	0	0	772695	692	0	correct_rejection	NA	0
3	Single	74	398	884	7	0	0	773404	691	0	correct_rejection	NA	0
3	Single	75	399	885	6	0	0	774112	692	0	correct_rejection	NA	0
3	Single	76	400	886	5	0	0	774821	691	0	correct_rejection	NA	0
3	Single	77	401	887	0	1	1	775529	692	1	hit	330	0
3	Single	78	402	888	4	0	0	776238	692	0	correct_rejection	NA	0
3	Single	79	403	889	4	0	0	776946	692	0	correct_rejection	NA	0
3	Single	80	404	890	8	0	0	777655	692	0	correct_rejection	NA	0
3	Single	81	405	891	8	0	0	778364	691	0	correct_rejection	NA	0
3	Single	82	406	892	0	1	1	779072	692	1	hit	357	0
3	Single	83	407	893	8	0	0	779781	691	0	correct_rejection	NA	0
3	Single	84	408	894	4	0	0	780489	692	0	correct_rejection	NA	0
3	Single	85	409	895	9	0	0	781198	692	0	correct_rejection	NA	0
3	Single	86	410	896	7	0	0	781906	692	0	correct_rejection	NA	0
3	Single	87	411	897	4	0	0	782615	692	0	correct_rejection	NA	0
3	Single	88	412	898	8	0	0	783324	691	0	correct_rejection	NA	0
3	Single	89	413	899	9	0	0	784032	692	0	correct_rejection	NA	0
3	Single	90	414	900	4	0	0	784741	691	0	correct_rejection	NA	0
3	Single	91	415	901	7	0	0	785449	692	0	correct_rejection	NA	0
3	Single	92	416	902	6	0	0	786158	692	0	correct_rejection	NA	0
3	Single	93	417	903	6	0	0	786866	692	0	correct_rejection	NA	0
3	Single	94	418	904	0	1	1	787575	692	1	hit	340	0
3	Single	95	419	905	8	0	0	788284	691	0	correct_rejection	NA	0
3	Single	96	420	906	8	0	0	788992	692	0	correct_rejection	NA	0
3	Single	97	421	907	5	0	0	789701	691	0	correct_rejection	NA	0
3	Single	98	422	908	5	0	0	790409	692	0	correct_rejection	NA	0
3	Single	99	423	909	6	0	0	791118	691	0	correct_rejection	NA	0
3	Single	100	424	910	0	1	1	791826	692	1	hit	399	0
3	Single	101	425	911	7	0	0	792535	692	0	correct_rejection	NA	0
3	Single	102	426	912	9	0	0	793244	691	0	correct_rejection	NA	0
3	Single	103	427	913	6	0	0	793952	692	0	correct_rejection	NA	0
3	Single	104	428	914	4	0	0	794661	691	0	correct_rejection	NA	0
3	Single	105	429	915	4	0	0	795369	692	0	correct_rejection	NA	0
3	Single	106	430	916	6	0	0	796078	691	0	correct_rejection	NA	0
3	Single	107	431	917	9	0	0	796786	692	0	correct_rejection	NA	0
3	Single	108	432	918	5	0	0	797495	692	0	correct_rejection	NA	0
3	Single	109	433	919	4	0	0	798203	692	0	correct_rejection	NA	0
3	Single	110	434	920	5	0	0	798912	692	0	correct_rejection	NA	0
3	Single	111	435	921	9	0	0	799621	691	0	correct_rejection	NA	0
3	Single	112	436	922	9	0	0	800329	692	0	correct_rejection	NA	0
3	Single	113	437	923	8	0	0	801038	691	0	correct_rejection	NA	0
3	Single	114	438	924	7	0	0	801746	692	0	correct_rejection	NA	0
3	Single	115	439	925	8	0	0	802455	692	0	correct_rejection	NA	0
3	Single	116	440	926	6	0	0	803163	692	0	correct_rejection	NA	0
3	Single	117	441	927	5	0	0	803872	692	0	correct_rejection	NA	0
3	Single	118	442	928	7	0	0	804581	691	0	correct_rejection	NA	0
3	Single	119	443	929	7	0	0	805289	692	0	correct_rejection	NA	0
3	Single	120	444	930	5	0	0	805998	691	0	correct_rejection	NA	0
3	Single	121	445	931	8	0	0	806706	692	0	correct_rejection	NA	0
3	Single	122	446	932	7	0	0	807415	692	0	correct_rejection	NA	0
3	Single	123	447	933	9	0	0	808123	692	0	correct_rejection	NA	0
3	Single	124	448	934	0	1	1	808832	692	1	hit	439	0
3	Single	125	449	935	9	0	0	809541	691	0	correct_rejection	NA	0
3	Single	126	450	936	6	0	0	810249	692	0	correct_rejection	NA	0
3	Single	127	451	937	0	1	1	810958	691	1	hit	499	0
3	Single	128	452	938	5	0	0	811666	692	0	correct_rejection	NA	0
3	Single	129	453	939	5	0	0	812375	691	0	correct_rejection	NA	0
3	Single	130	454	940	9	0	0	813083	692	0	correct_rejection	NA	0
3	Single	131	455	941	4	0	0	813792	692	0	correct_rejection	NA	0
3	Single	132	456	942	9	0	0	814500	692	0	correct_rejection	NA	0
3	Single	133	457	943	5	0	0	815209	692	0	correct_rejection	NA	0
3	Single	134	458	944	7	0	0	815918	691	0	correct_rejection	NA	0
3	Single	135	459	945	4	0	0	816626	692	0	correct_rejection	NA	0
3	Single	136	460	946	4	0	0	817335	691	0	correct_rejection	NA	0
3	Single	137	461	947	5	0	0	818043	692	0	correct_rejection	NA	0
3	Single	138	462	948	8	0	0	818752	692	0	correct_rejection	NA	0
3	Single	139	463	949	8	0	0	819460	692	0	correct_rejection	NA	0
3	Single	140	464	950	0	1	1	820169	692	1	hit	445	0
3	Single	141	465	951	9	0	0	820878	691	0	correct_rejection	NA	0
3	Single	142	466	952	7	0	0	821586	692	0	correct_rejection	NA	0
3	Single	143	467	953	8	0	0	822295	691	0	correct_rejection	NA	0
3	Single	144	468	954	4	0	0	823003	692	0	correct_rejection	NA	0
3	Single	145	469	955	8	0	0	823712	692	0	correct_rejection	NA	0
3	Single	146	470	956	6	0	0	824420	692	0	correct_rejection	NA	0
3	Single	147	471	957	9	0	0	825129	692	0	correct_rejection	NA	0
3	Single	148	472	958	8	0	0	825838	691	0	correct_rejection	NA	0
3	Single	149	473	959	0	1	1	826546	692	1	hit	394	0
3	Single	150	474	960	5	0	0	827255	691	0	correct_rejection	NA	0
3	Single	151	475	961	4	0	0	827963	692	0	correct_rejection	NA	0
3	Single	152	476	962	0	1	1	828672	692	1	hit	360	0
3	Single	153	477	963	7	0	0	829380	692	0	correct_rejection	NA	0
3	Single	154	478	964	5	0	0	830089	692	0	correct_rejection	NA	0
3	Single	155	479	965	0	1	1	830798	691	1	hit	356	0
3	Single	156	480	966	6	0	0	831506	692	0	correct_rejection	NA	0
3	Single	157	481	967	6	0	0	832215	691	0	correct_rejection	NA	0
3	Single	158	482	968	7	0	0	832923	692	0	correct_rejection	NA	0
3	Single	159	483	969	7	0	0	833632	691	0	correct_rejection	NA	0
3	Single	160	484	970	6	0	0	834340	692	0	correct_rejection	NA	0
3	Single	161	485	971	4	0	0	835049	692	0	correct_rejection	NA	0
3	Single	162	486	972	6	0	0	835757	692	0	correct_rejection	NA	0
3	Triplet	1	325	973	6	0	0	844119	691	0	correct_rejection	NA	7626
3	Triplet	2	326	974	5	0	0	844827	692	0	correct_rejection	NA	0
3	Triplet	3	327	975	4	0	0	845536	691	0	correct_rejection	NA	0
3	Triplet	4	328	976	6	0	0	846244	692	0	correct_rejection	NA	0
3	Triplet	5	329	977	5	0	0	846953	692	0	correct_rejection	NA	0
3	Triplet	6	330	978	4	0	0	847661	692	0	correct_rejection	NA	0
3	Triplet	7	331	979	9	0	0	848370	692	0	correct_rejection	NA	0
3	Triplet	8	332	980	8	0	0	849079	691	0	correct_rejection	NA	0
3	Triplet	9	333	981	7	0	0	849787	692	0	correct_rejection	NA	0
3	Triplet	10	334	982	9	0	0	850496	691	0	correct_rejection	NA	0
3	Triplet	11	335	983	8	0	0	851204	692	0	correct_rejection	NA	0
3	Triplet	12	336	984	7	0	0	851913	691	0	correct_rejection	NA	0
3	Triplet	13	337	985	7	0	0	852621	692	0	correct_rejection	NA	0
3	Triplet	14	338	986	0	1	1	853330	692	1	hit	325	0
3	Triplet	15	339	987	8	0	0	854038	692	0	correct_rejection	NA	0
3	Triplet	16	340	988	9	0	0	854747	692	0	correct_rejection	NA	0
3	Triplet	17	341	989	9	0	0	855456	691	0	correct_rejection	NA	0
3	Triplet	18	342	990	8	0	0	856164	692	0	correct_rejection	NA	0
3	Triplet	19	343	991	7	0	0	856873	691	0	correct_rejection	NA	0
3	Triplet	20	344	992	6	0	0	857581	692	0	correct_rejection	NA	0
3	Triplet	21	345	993	5	0	0	858290	692	0	correct_rejection	NA	0
3	Triplet	22	346	994	4	0	0	858998	692	0	correct_rejection	NA	0
3	Triplet	23	347	995	7	0	0	859707	692	0	correct_rejection	NA	0
3	Triplet	24	348	996	8	0	0	860416	691	0	correct_rejection	NA	0
3	Triplet	25	349	997	9	0	0	861124	692	0	correct_rejection	NA	0
3	Triplet	26	350	998	4	0	0	861833	691	0	correct_rejection	NA	0
3	Triplet	27	351	999	5	0	0	862541	692	0	correct_rejection	NA	0
3	Triplet	28	352	1000	6	0	0	863250	692	0	correct_rejection	NA	0
3	Triplet	29	353	1001	6	0	0	863958	692	0	correct_rejection	NA	0
3	Triplet	30	354	1002	0	1	1	864667	692	1	hit	552	0
3	Triplet	31	355	1003	5	0	0	865376	691	0	correct_rejection	NA	0
3	Triplet	32	356	1004	4	0	0	866084	692	0	correct_rejection	NA	0
3	Triplet	33	357	1005	4	0	0	866793	691	0	correct_rejection	NA	0
3	Triplet	34	358	1006	5	0	0	867501	692	0	correct_rejection	NA	0
3	Triplet	35	359	1007	6	0	0	868210	691	0	correct_rejection	NA	0
3	Triplet	36	360	1008	9	0	0	868918	692	0	correct_rejection	NA	0
3	Triplet	37	361	1009	8	0	0	869627	692	0	correct_rejection	NA	0
3	Triplet	38	362	1010	7	0	0	870336	691	0	correct_rejection	NA	0
3	Triplet	39	363	1011	4	0	0	871044	692	0	correct_rejection	NA	0
3	Triplet	40	364	1012	5	0	0	871753	691	0	correct_rejection	NA	0
3	Triplet	41	365	1013	6	0	0	872461	692	0	correct_rejection	NA	0
3	Triplet	42	366	1014	4	0	0	873170	691	0	correct_rejection	NA	0
3	Triplet	43	367	1015	0	1	1	873878	692	1	hit	359	0
3	Triplet	44	368	1016	5	0	0	874587	692	0	correct_rejection	NA	0
3	Triplet	45	369	1017	6	0	0	875295	692	0	correct_rejection	NA	0
3	Triplet	46	370	1018	7	0	0	876004	692	0	correct_rejection	NA	0
3	Triplet	47	371	1019	8	0	0	876713	691	0	correct_rejection	NA	0
3	Triplet	48	372	1020	9	0	0	877421	692	0	correct_rejection	NA	0
3	Triplet	49	373	1021	7	0	0	878130	691	0	correct_rejection	NA	0
3	Triplet	50	374	1022	8	0	0	878838	692	0	correct_rejection	NA	0
3	Triplet	51	375	1023	9	0	0	879547	692	0	correct_rejection	NA	0
3	Triplet	52	376	1024	0	1	2	880255	692	1	hit	348	0
3	Triplet	53	377	1025	6	0	0	880964	692	0	correct_rejection	NA	0
3	Triplet	54	378	1026	5	0	0	881673	691	0	correct_rejection	NA	0
3	Triplet	55	379	1027	4	0	0	882381	692	0	correct_rejection	NA	0
3	Triplet	56	380	1028	0	1	2	883090	691	1	hit	354	0
3	Triplet	57	381	1029	7	0	0	883798	692	0	correct_rejection	NA	0
3	Triplet	58	382	1030	8	0	0	884507	692	0	correct_rejection	NA	0
3	Triplet	59	383	1031	9	0	0	885215	692	0	correct_rejection	NA	0
3	Triplet	60	384	1032	9	0	0	885924	692	0	correct_rejection	NA	0
3	Triplet	61	385	1033	8	0	0	886633	691	0	correct_rejection	NA	0
3	Triplet	62	386	1034	7	0	0	887341	692	0	correct_rejection	NA	0
3	Triplet	63	387	1035	4	0	0	888050	691	0	correct_rejection	NA	0
3	Triplet	64	388	1036	5	0	0	888758	692	0	correct_rejection	NA	0
3	Triplet	65	389	1037	6	0	0	889467	691	0	correct_rejection	NA	0
3	Triplet	66	390	1038	7	0	0	890175	692	0	correct_rejection	NA	0
3	Triplet	67	391	1039	8	0	0	890884	692	0	correct_rejection	NA	0
3	Triplet	68	392	1040	0	1	1	891592	692	1	hit	381	0
3	Triplet	69	393	1041	9	0	0	892301	692	0	correct_rejection	NA	0
3	Triplet	70	394	1042	4	0	0	893010	691	0	correct_rejection	NA	0
3	Triplet	71	395	1043	5	0	0	893718	692	0	correct_rejection	NA	0
3	Triplet	72	396	1044	0	1	1	894427	691	1	hit	368	0
3	Triplet	73	397	1045	6	0	0	895135	692	0	correct_rejection	NA	0
3	Triplet	74	398	1046	4	0	0	895844	692	0	correct_rejection	NA	0
3	Triplet	75	399	1047	0	1	1	896552	692	1	hit	319	0
3	Triplet	76	400	1048	5	0	0	897261	692	0	correct_rejection	NA	0
3	Triplet	77	401	1049	6	0	0	897970	691	0	correct_rejection	NA	0
3	Triplet	78	402	1050	9	0	0	898678	692	0	correct_rejection	NA	0
3	Triplet	79	403	1051	0	1	1	899387	691	1	hit	324	0
3	Triplet	80	404	1052	8	0	0	900095	692	0	correct_rejection	NA	0
3	Triplet	81	405	1053	7	0	0	900804	692	0	correct_rejection	NA	0
3	Triplet	82	406	1054	9	0	0	901512	692	0	correct_rejection	NA	0
3	Triplet	83	407	1055	8	0	0	902221	692	0	correct_rejection	NA	0
3	Triplet	84	408	1056	7	0	0	902930	691	0	correct_rejection	NA	0
3	Triplet	85	409	1057	6	0	0	903638	692	0	correct_rejection	NA	0
3	Triplet	86	410	1058	5	0	0	904347	691	0	correct_rejection	NA	0
3	Triplet	87	411	1059	4	0	0	905055	692	0	correct_rejection	NA	0
3	Triplet	88	412	1060	4	0	0	905764	692	0	correct_rejection	NA	0
3	Triplet	89	413	1061	5	0	0	906472	692	0	correct_rejection	NA	0
3	Triplet	90	414	1062	6	0	0	907181	692	0	correct_rejection	NA	0
3	Triplet	91	415	1063	6	0	0	907890	691	0	correct_rejection	NA	0
3	Triplet	92	416	1064	5	0	0	908598	692	0	correct_rejection	NA	0
3	Triplet	93	417	1065	4	0	0	909307	691	0	correct_rejection	NA	0
3	Triplet	94	418	1066	9	0	0	910015	692	0	correct_rejection	NA	0
3	Triplet	95	419	1067	8	0	0	910724	691	0	correct_rejection	NA	0
3	Triplet	96	420	1068	7	0	0	911432	692	0	correct_rejection	NA	0
3	Triplet	97	421	1069	0	1	2	912141	692	1	hit	293	0
3	Triplet	98	422	1070	7	0	0	912849	692	0	correct_rejection	NA	0
3	Triplet	99	423	1071	8	0	0	913558	692	0	correct_rejection	NA	0
3	Triplet	100	424	1072	9	0	0	914267	691	0	correct_rejection	NA	0
3	Triplet	101	425	1073	7	0	0	914975	692	0	correct_rejection	NA	0
3	Triplet	102	426	1074	8	0	0	915684	691	0	correct_rejection	NA	0
3	Triplet	103	427	1075	9	0	0	916392	692	0	correct_rejection	NA	0
3	Triplet	104	428	1076	6	0	0	917101	692	0	correct_rejection	NA	0
3	Triplet	105	429	1077	5	0	0	917809	692	0	correct_rejection	NA	0
3	Triplet	106	430	1078	4	0	0	918518	692	0	correct_rejection	NA	0
3	Triplet	107	431	1079	0	1	2	919227	691	1	hit	281	0
3	Triplet	108	432	1080	6	0	0	919935	692	0	correct_rejection	NA	0
3	Triplet	109	433	1081	5	0	0	920644	691	0	correct_rejection	NA	0
3	Triplet	110	434	1082	0	1	1	921352	692	1	hit	462	0
3	Triplet	111	435	1083	4	0	0	922061	692	0	correct_rejection	NA	0
3	Triplet	112	436	1084	9	0	0	922769	692	0	correct_rejection	NA	0
3	Triplet	113	437	1085	8	0	0	923478	692	0	correct_rejection	NA	0
3	Triplet	114	438	1086	7	0	0	924187	691	0	correct_rejection	NA	0
3	Triplet	115	439	1087	4	0	0	924895	692	0	correct_rejection	NA	0
3	Triplet	116	440	1088	5	0	0	925604	691	0	correct_rejection	NA	0
3	Triplet	117	441	1089	6	0	0	926312	692	0	correct_rejection	NA	0
3	Triplet	118	442	1090	9	0	0	927021	691	0	correct_rejection	NA	0
3	Triplet	119	443	1091	8	0	0	927729	692	0	correct_rejection	NA	0
3	Triplet	120	444	1092	7	0	0	928438	692	0	correct_rejection	NA	0
3	Triplet	121	445	1093	7	0	0	929146	692	0	correct_rejection	NA	0
3	Triplet	122	446	1094	8	0	0	929855	692	0	correct_rejection	NA	0
3	Triplet	123	447	1095	9	0	0	930564	691	0	correct_rejection	NA	0
3	Triplet	124	448	1096	6	0	0	931272	692	0	correct_rejection	NA	0
3	Triplet	125	449	1097	5	0	0	931981	691	0	correct_rejection	NA	0
3	Triplet	126	450	1098	4	0	0	932689	692	0	correct_rejection	NA	0
3	Triplet	127	451	1099	4	0	0	933398	692	0	correct_rejection	NA	0
3	Triplet	128	452	1100	0	1	1	934106	692	1	hit	337	0
3	Triplet	129	453	1101	5	0	0	934815	692	0	correct_rejection	NA	0
3	Triplet	130	454	1102	6	0	0	935524	691	0	correct_rejection	NA	0
3	Triplet	131	455	1103	0	1	2	936232	692	1	hit	362	0
3	Triplet	132	456	1104	4	0	0	936941	691	0	correct_rejection	NA	0
3	Triplet	133	457	1105	5	0	0	937649	692	0	correct_rejection	NA	0
3	Triplet	134	458	1106	6	0	0	938358	692	0	correct_rejection	NA	0
3	Triplet	135	459	1107	6	0	0	939066	692	0	correct_rejection	NA	0
3	Triplet	136	460	1108	5	0	0	939775	692	0	correct_rejection	NA	0
3	Triplet	137	461	1109	4	0	0	940484	691	0	correct_rejection	NA	0
3	Triplet	138	462	1110	6	0	0	941192	692	0	correct_rejection	NA	0
3	Triplet	139	463	1111	5	0	0	941901	691	0	correct_rejection	NA	0
3	Triplet	140	464	1112	0	1	1	942609	692	1	hit	319	0
3	Triplet	141	465	1113	4	0	0	943318	692	0	correct_rejection	NA	0
3	Triplet	142	466	1114	7	0	0	944026	692	0	correct_rejection	NA	0
3	Triplet	143	467	1115	8	0	0	944735	692	0	correct_rejection	NA	0
3	Triplet	144	468	1116	9	0	0	945444	691	0	correct_rejection	NA	0
3	Triplet	145	469	1117	7	0	0	946152	692	0	correct_rejection	NA	0
3	Triplet	146	470	1118	8	0	0	946861	691	0	correct_rejection	NA	0
3	Triplet	147	471	1119	9	0	0	947569	692	0	correct_rejection	NA	0
3	Triplet	148	472	1120	4	0	0	948278	691	0	correct_rejection	NA	0
3	Triplet	149	473	1121	5	0	0	948986	692	0	correct_rejection	NA	0
3	Triplet	150	474	1122	6	0	0	949695	692	0	correct_rejection	NA	0
3	Triplet	151	475	1123	0	1	2	950403	692	1	hit	356	0
3	Triplet	152	476	1124	7	0	0	951112	692	0	correct_rejection	NA	0
3	Triplet	153	477	1125	8	0	0	951821	691	0	correct_rejection	NA	0
3	Triplet	154	478	1126	0	1	1	952529	692	1	hit	487	0
3	Triplet	155	479	1127	9	0	0	953238	691	0	correct_rejection	NA	0
3	Triplet	156	480	1128	9	0	0	953946	692	0	correct_rejection	NA	0
3	Triplet	157	481	1129	8	0	0	954655	692	0	correct_rejection	NA	0
3	Triplet	158	482	1130	7	0	0	955363	692	0	correct_rejection	NA	0
3	Triplet	159	483	1131	9	0	0	956072	692	0	correct_rejection	NA	0
3	Triplet	160	484	1132	0	1	1	956781	691	1	hit	369	0
3	Triplet	161	485	1133	8	0	0	957489	692	0	correct_rejection	NA	0
3	Triplet	162	486	1134	7	0	0	958198	691	0	correct_rejection	NA	0
3	Correct	1	487	1135	4	0	0	965150	692	0	correct_rejection	NA	6220
3	Correct	2	488	1136	5	0	0	965859	691	0	correct_rejection	NA	0
3	Correct	3	489	1137	6	0	0	966567	692	0	correct_rejection	NA	0
3	Correct	4	490	1138	4	0	0	967276	691	0	correct_rejection	NA	0
3	Correct	5	491	1139	0	1	1	967984	692	1	hit	289	0
3	Correct	6	492	1140	5	0	0	968693	692	0	correct_rejection	NA	0
3	Correct	7	493	1141	6	0	0	969401	692	0	correct_rejection	NA	0
3	Correct	8	494	1142	0	1	2	970110	692	1	hit	350	0
3	Correct	9	495	1143	4	0	0	970819	691	0	correct_rejection	NA	0
3	Correct	10	496	1144	5	0	0	971527	692	0	correct_rejection	NA	0
3	Correct	11	497	1145	6	0	0	972236	691	0	correct_rejection	NA	0
3	Correct	12	498	1146	6	0	0	972944	692	0	correct_rejection	NA	0
3	Correct	13	499	1147	5	0	0	973653	691	0	correct_rejection	NA	0
3	Correct	14	500	1148	4	0	0	974361	692	0	correct_rejection	NA	0
3	Correct	15	501	1149	0	1	2	975070	692	1	hit	286	0
3	Correct	16	502	1150	6	0	0	975778	692	0	correct_rejection	NA	0
3	Correct	17	503	1151	5	0	0	976487	692	0	correct_rejection	NA	0
3	Correct	18	504	1152	4	0	0	977196	691	0	correct_rejection	NA	0
3	Correct	19	505	1153	6	0	0	977904	692	0	correct_rejection	NA	0
3	Correct	20	506	1154	0	1	1	978613	691	1	hit	346	0
3	Correct	21	507	1155	5	0	0	979321	692	0	correct_rejection	NA	0
3	Correct	22	508	1156	4	0	0	980030	692	0	correct_rejection	NA	0
3	Correct	23	509	1157	9	0	0	980738	692	0	correct_rejection	NA	0
3	Correct	24	510	1158	8	0	0	981447	692	0	correct_rejection	NA	0
3	Correct	25	511	1159	7	0	0	982156	691	0	correct_rejection	NA	0
3	Correct	26	512	1160	9	0	0	982864	692	0	correct_rejection	NA	0
3	Correct	27	513	1161	0	1	1	983573	691	1	hit	302	0
3	Correct	28	514	1162	8	0	0	984281	692	0	correct_rejection	NA	0
3	Correct	29	515	1163	7	0	0	984990	692	0	correct_rejection	NA	0
3	Correct	30	516	1164	9	0	0	985698	692	0	correct_rejection	NA	0
3	Correct	31	517	1165	8	0	0	986407	692	0	correct_rejection	NA	0
3	Correct	32	518	1166	0	1	1	987116	691	1	hit	358	0
3	Correct	33	519	1167	7	0	0	987824	692	0	correct_rejection	NA	0
3	Correct	34	520	1168	7	0	0	988533	691	0	correct_rejection	NA	0
3	Correct	35	521	1169	8	0	0	989241	692	0	correct_rejection	NA	0
3	Correct	36	522	1170	9	0	0	989950	692	0	correct_rejection	NA	0
3	Correct	37	523	1171	7	0	0	990658	692	0	correct_rejection	NA	0
3	Correct	38	524	1172	8	0	0	991367	692	0	correct_rejection	NA	0
3	Correct	39	525	1173	9	0	0	992076	691	0	correct_rejection	NA	0
3	Correct	40	526	1174	7	0	0	992784	692	0	correct_rejection	NA	0
3	Correct	41	527	1175	8	0	0	993493	691	0	correct_rejection	NA	0
3	Correct	42	528	1176	9	0	0	994201	692	0	correct_rejection	NA	0
3	Correct	43	529	1177	4	0	0	994910	691	0	correct_rejection	NA	0
3	Correct	44	530	1178	5	0	0	995618	692	0	correct_rejection	NA	0
3	Correct	45	531	1179	6	0	0	996327	692	0	correct_rejection	NA	0
3	Correct	46	532	1180	4	0	0	997035	692	0	correct_rejection	NA	0
3	Correct	47	533	1181	5	0	0	997744	692	0	correct_rejection	NA	0
3	Correct	48	534	1182	6	0	0	998453	691	0	correct_rejection	NA	0
3	Correct	49	535	1183	4	0	0	999161	692	0	correct_rejection	NA	0
3	Correct	50	536	1184	5	0	0	999870	691	0	correct_rejection	NA	0
3	Correct	51	537	1185	0	1	1	1000578	692	1	hit	331	0
3	Correct	52	538	1186	6	0	0	1001287	692	0	correct_rejection	NA	0
3	Correct	53	539	1187	6	0	0	1001995	692	0	correct_rejection	NA	0
3	Correct	54	540	1188	5	0	0	1002704	692	0	correct_rejection	NA	0
3	Correct	55	541	1189	4	0	0	1003413	691	0	correct_rejection	NA	0
3	Correct	56	542	1190	6	0	0	1004121	692	0	correct_rejection	NA	0
3	Correct	57	543	1191	5	0	0	1004830	691	0	correct_rejection	NA	0
3	Correct	58	544	1192	4	0	0	1005538	692	0	correct_rejection	NA	0
3	Correct	59	545	1193	0	1	2	1006247	692	1	hit	389	0
3	Correct	60	546	1194	6	0	0	1006955	692	0	correct_rejection	NA	0
3	Correct	61	547	1195	5	0	0	1007664	692	0	correct_rejection	NA	0
3	Correct	62	548	1196	0	1	1	1008373	691	1	hit	327	0
3	Correct	63	549	1197	4	0	0	1009081	692	0	correct_rejection	NA	0
3	Correct	64	550	1198	9	0	0	1009790	691	0	correct_rejection	NA	0
3	Correct	65	551	1199	0	1	1	1010498	692	1	hit	332	0
3	Correct	66	552	1200	8	0	0	1011207	691	0	correct_rejection	NA	0
3	Correct	67	553	1201	7	0	0	1011915	692	0	correct_rejection	NA	0
3	Correct	68	554	1202	9	0	0	1012624	692	0	correct_rejection	NA	0
3	Correct	69	555	1203	8	0	0	1013333	691	0	correct_rejection	NA	0
3	Correct	70	556	1204	0	1	1	1014041	692	1	hit	346	0
3	Correct	71	557	1205	7	0	0	1014750	691	0	correct_rejection	NA	0
3	Correct	72	558	1206	9	0	0	1015458	692	0	correct_rejection	NA	0
3	Correct	73	559	1207	8	0	0	1016167	691	0	correct_rejection	NA	0
3	Correct	74	560	1208	7	0	0	1016875	692	0	correct_rejection	NA	0
3	Correct	75	561	1209	7	0	0	1017584	692	0	correct_rejection	NA	0
3	Correct	76	562	1210	8	0	0	1018292	692	0	correct_rejection	NA	0
3	Correct	77	563	1211	9	0	0	1019001	692	0	correct_rejection	NA	0
3	Correct	78	564	1212	7	0	0	1019710	691	0	correct_rejection	NA	0
3	Correct	79	565	1213	8	0	0	1020418	692	0	correct_rejection	NA	0
3	Correct	80	566	1214	9	0	0	1021127	691	0	correct_rejection	NA	0
3	Correct	81	567	1215	7	0	0	1021835	692	0	correct_rejection	NA	0
3	Correct	82	568	1216	8	0	0	1022544	692	0	correct_rejection	NA	0
3	Correct	83	569	1217	9	0	0	1023252	692	0	correct_rejection	NA	0
3	Correct	84	570	1218	4	0	0	1023961	692	0	correct_rejection	NA	0
3	Correct	85	571	1219	5	0	0	1024670	691	0	correct_rejection	NA	0
3	Correct	86	572	1220	6	0	0	1025378	692	0	correct_rejection	NA	0
3	Correct	87	573	1221	4	0	0	1026087	691	0	correct_rejection	NA	0
3	Correct	88	574	1222	5	0	0	1026795	692	0	correct_rejection	NA	0
3	Correct	89	575	1223	0	1	1	1027504	692	1	hit	561	0
3	Correct	90	576	1224	6	0	0	1028212	692	0	correct_rejection	NA	0
3	Correct	91	577	1225	4	0	0	1028921	692	0	correct_rejection	NA	0
3	Correct	92	578	1226	5	0	0	1029630	691	0	correct_rejection	NA	0
3	Correct	93	579	1227	6	0	0	1030338	692	0	correct_rejection	NA	0
3	Correct	94	580	1228	6	0	0	1031047	691	0	correct_rejection	NA	0
3	Correct	95	581	1229	0	1	1	1031755	692	1	hit	360	0
3	Correct	96	582	1230	5	0	0	1032464	691	0	correct_rejection	NA	0
3	Correct	97	583	1231	4	0	0	1033172	692	0	correct_rejection	NA	0
3	Correct	98	584	1232	6	0	0	1033881	692	0	correct_rejection	NA	0
3	Correct	99	585	1233	5	0	0	1034589	692	0	correct_rejection	NA	0
3	Correct	100	586	1234	4	0	0	1035298	692	0	correct_rejection	NA	0
3	Correct	101	587	1235	6	0	0	1036007	691	0	correct_rejection	NA	0
3	Correct	102	588	1236	5	0	0	1036715	692	0	correct_rejection	NA	0
3	Correct	103	589	1237	4	0	0	1037424	691	0	correct_rejection	NA	0
3	Correct	104	590	1238	9	0	0	1038132	692	0	correct_rejection	NA	0
3	Correct	105	591	1239	8	0	0	1038841	692	0	correct_rejection	NA	0
3	Correct	106	592	1240	7	0	0	1039549	692	0	correct_rejection	NA	0
3	Correct	107	593	1241	9	0	0	1040258	692	0	correct_rejection	NA	0
3	Correct	108	594	1242	8	0	0	1040967	691	0	correct_rejection	NA	0
3	Correct	109	595	1243	7	0	0	1041675	692	0	correct_rejection	NA	0
3	Correct	110	596	1244	9	0	0	1042384	691	0	correct_rejection	NA	0
3	Correct	111	597	1245	8	0	0	1043092	692	0	correct_rejection	NA	0
3	Correct	112	598	1246	7	0	0	1043801	692	0	correct_rejection	NA	0
3	Correct	113	599	1247	7	0	0	1044509	692	0	correct_rejection	NA	0
3	Correct	114	600	1248	8	0	0	1045218	692	0	correct_rejection	NA	0
3	Correct	115	601	1249	0	1	1	1045927	691	1	hit	349	0
3	Correct	116	602	1250	9	0	0	1046635	692	0	correct_rejection	NA	0
3	Correct	117	603	1251	7	0	0	1047344	691	0	correct_rejection	NA	0
3	Correct	118	604	1252	8	0	0	1048052	692	0	correct_rejection	NA	0
3	Correct	119	605	1253	9	0	0	1048761	692	0	correct_rejection	NA	0
3	Correct	120	606	1254	7	0	0	1049469	692	0	correct_rejection	NA	0
3	Correct	121	607	1255	8	0	0	1050178	692	0	correct_rejection	NA	0
3	Correct	122	608	1256	9	0	0	1050887	691	0	correct_rejection	NA	0
3	Correct	123	609	1257	0	1	4	1051595	692	1	hit	393	0
3	Correct	124	610	1258	4	0	0	1052304	691	0	correct_rejection	NA	0
3	Correct	125	611	1259	5	0	0	1053012	692	0	correct_rejection	NA	0
3	Correct	126	612	1260	6	0	0	1053721	691	0	correct_rejection	NA	0
3	Correct	127	613	1261	4	0	0	1054429	692	0	correct_rejection	NA	0
3	Correct	128	614	1262	5	0	0	1055138	692	0	correct_rejection	NA	0
3	Correct	129	615	1263	6	0	0	1055846	692	0	correct_rejection	NA	0
3	Correct	130	616	1264	0	1	2	1056555	692	1	hit	383	0
3	Correct	131	617	1265	4	0	0	1057264	691	0	correct_rejection	NA	0
3	Correct	132	618	1266	5	0	0	1057972	692	0	correct_rejection	NA	0
3	Correct	133	619	1267	6	0	0	1058681	691	0	correct_rejection	NA	0
3	Correct	134	620	1268	6	0	0	1059389	692	0	correct_rejection	NA	0
3	Correct	135	621	1269	5	0	0	1060098	692	0	correct_rejection	NA	0
3	Correct	136	622	1270	4	0	0	1060806	692	0	correct_rejection	NA	0
3	Correct	137	623	1271	6	0	0	1061515	692	0	correct_rejection	NA	0
3	Correct	138	624	1272	5	0	0	1062224	691	0	correct_rejection	NA	0
3	Correct	139	625	1273	0	1	1	1062932	692	1	hit	318	0
3	Correct	140	626	1274	4	0	0	1063641	691	0	correct_rejection	NA	0
3	Correct	141	627	1275	6	0	0	1064349	692	0	correct_rejection	NA	0
3	Correct	142	628	1276	5	0	0	1065058	692	0	correct_rejection	NA	0
3	Correct	143	629	1277	4	0	0	1065766	692	0	correct_rejection	NA	0
3	Correct	144	630	1278	0	1	3	1066475	692	1	hit	292	0
3	Correct	145	631	1279	9	0	0	1067184	691	0	correct_rejection	NA	0
3	Correct	146	632	1280	8	0	0	1067892	692	0	correct_rejection	NA	0
3	Correct	147	633	1281	7	0	0	1068601	691	0	correct_rejection	NA	0
3	Correct	148	634	1282	9	0	0	1069309	692	0	correct_rejection	NA	0
3	Correct	149	635	1283	8	0	0	1070018	691	0	correct_rejection	NA	0
3	Correct	150	636	1284	7	0	0	1070726	692	0	correct_rejection	NA	0
3	Correct	151	637	1285	9	0	0	1071435	692	0	correct_rejection	NA	0
3	Correct	152	638	1286	8	0	0	1072143	692	0	correct_rejection	NA	0
3	Correct	153	639	1287	7	0	0	1072852	692	0	correct_rejection	NA	0
3	Correct	154	640	1288	7	0	0	1073561	691	0	correct_rejection	NA	0
3	Correct	155	641	1289	8	0	0	1074269	692	0	correct_rejection	NA	0
3	Correct	156	642	1290	9	0	0	1074978	691	0	correct_rejection	NA	0
3	Correct	157	643	1291	7	0	0	1075686	692	0	correct_rejection	NA	0
3	Correct	158	644	1292	8	0	0	1076395	692	0	correct_rejection	NA	0
3	Correct	159	645	1293	9	0	0	1077103	692	0	correct_rejection	NA	0
3	Correct	160	646	1294	7	0	0	1077812	692	0	correct_rejection	NA	0
3	Correct	161	647	1295	8	0	0	1078521	691	0	correct_rejection	NA	0
3	Correct	162	648	1296	9	0	0	1079229	692	0	correct_rejection	NA	0
3	Nonet	1	325	1297	4	0	0	1089166	691	0	correct_rejection	NA	9203
3	Nonet	2	326	1298	5	0	0	1089874	692	0	correct_rejection	NA	0
3	Nonet	3	327	1299	6	0	0	1090583	692	0	correct_rejection	NA	0
3	Nonet	4	328	1300	4	0	0	1091291	692	0	correct_rejection	NA	0
3	Nonet	5	329	1301	5	0	0	1092000	692	0	correct_rejection	NA	0
3	Nonet	6	330	1302	6	0	0	1092709	691	0	correct_rejection	NA	0
3	Nonet	7	331	1303	0	1	2	1093417	692	1	hit	500	0
3	Nonet	8	332	1304	4	0	0	1094126	691	0	correct_rejection	NA	0
3	Nonet	9	333	1305	5	0	0	1094834	692	0	correct_rejection	NA	0
3	Nonet	10	334	1306	6	0	0	1095543	692	0	correct_rejection	NA	0
3	Nonet	11	335	1307	6	0	0	1096251	692	0	correct_rejection	NA	0
3	Nonet	12	336	1308	0	1	1	1096960	692	1	hit	578	0
3	Nonet	13	337	1309	5	0	0	1097669	691	0	correct_rejection	NA	0
3	Nonet	14	338	1310	4	0	0	1098377	692	0	correct_rejection	NA	0
3	Nonet	15	339	1311	6	0	0	1099086	691	0	correct_rejection	NA	0
3	Nonet	16	340	1312	5	0	0	1099794	692	0	correct_rejection	NA	0
3	Nonet	17	341	1313	4	0	0	1100503	692	0	correct_rejection	NA	0
3	Nonet	18	342	1314	6	0	0	1101211	692	0	correct_rejection	NA	0
3	Nonet	19	343	1315	5	0	0	1101920	692	0	correct_rejection	NA	0
3	Nonet	20	344	1316	4	0	0	1102629	691	0	correct_rejection	NA	0
3	Nonet	21	345	1317	4	0	0	1103337	692	0	correct_rejection	NA	0
3	Nonet	22	346	1318	5	0	0	1104046	691	0	correct_rejection	NA	0
3	Nonet	23	347	1319	6	0	0	1104754	692	0	correct_rejection	NA	0
3	Nonet	24	348	1320	4	0	0	1105463	691	0	correct_rejection	NA	0
3	Nonet	25	349	1321	0	1	1	1106171	692	1	hit	347	0
3	Nonet	26	350	1322	5	0	0	1106880	692	0	correct_rejection	NA	0
3	Nonet	27	351	1323	6	0	0	1107588	692	0	correct_rejection	NA	0
3	Nonet	28	352	1324	4	0	0	1108297	692	0	correct_rejection	NA	0
3	Nonet	29	353	1325	5	0	0	1109006	691	0	correct_rejection	NA	0
3	Nonet	30	354	1326	6	0	0	1109714	692	0	correct_rejection	NA	0
3	Nonet	31	355	1327	9	0	0	1110423	691	0	correct_rejection	NA	0
3	Nonet	32	356	1328	8	0	0	1111131	692	0	correct_rejection	NA	0
3	Nonet	33	357	1329	7	0	0	1111840	692	0	correct_rejection	NA	0
3	Nonet	34	358	1330	9	0	0	1112548	692	0	correct_rejection	NA	0
3	Nonet	35	359	1331	8	0	0	1113257	692	0	correct_rejection	NA	0
3	Nonet	36	360	1332	7	0	0	1113966	691	0	correct_rejection	NA	0
3	Nonet	37	361	1333	9	0	0	1114674	692	0	correct_rejection	NA	0
3	Nonet	38	362	1334	8	0	0	1115383	691	0	correct_rejection	NA	0
3	Nonet	39	363	1335	7	0	0	1116091	692	0	correct_rejection	NA	0
3	Nonet	40	364	1336	4	0	0	1116800	692	0	correct_rejection	NA	0
3	Nonet	41	365	1337	5	0	0	1117508	692	0	correct_rejection	NA	0
3	Nonet	42	366	1338	6	0	0	1118217	692	0	correct_rejection	NA	0
3	Nonet	43	367	1339	4	0	0	1118926	691	0	correct_rejection	NA	0
3	Nonet	44	368	1340	5	0	0	1119634	692	0	correct_rejection	NA	0
3	Nonet	45	369	1341	0	1	1	1120343	691	1	hit	291	0
3	Nonet	46	370	1342	6	0	0	1121051	692	0	correct_rejection	NA	0
3	Nonet	47	371	1343	4	0	0	1121760	691	0	correct_rejection	NA	0
3	Nonet	48	372	1344	5	0	0	1122468	692	0	correct_rejection	NA	0
3	Nonet	49	373	1345	6	0	0	1123177	692	0	correct_rejection	NA	0
3	Nonet	50	374	1346	7	0	0	1123885	692	0	correct_rejection	NA	0
3	Nonet	51	375	1347	0	1	1	1124594	692	1	hit	426	0
3	Nonet	52	376	1348	8	0	0	1125303	691	0	correct_rejection	NA	0
3	Nonet	53	377	1349	9	0	0	1126011	692	0	correct_rejection	NA	0
3	Nonet	54	378	1350	7	0	0	1126720	691	0	correct_rejection	NA	0
3	Nonet	55	379	1351	8	0	0	1127428	692	0	correct_rejection	NA	0
3	Nonet	56	380	1352	9	0	0	1128137	692	0	correct_rejection	NA	0
3	Nonet	57	381	1353	7	0	0	1128845	692	0	correct_rejection	NA	0
3	Nonet	58	382	1354	8	0	0	1129554	692	0	correct_rejection	NA	0
3	Nonet	59	383	1355	9	0	0	1130263	691	0	correct_rejection	NA	0
3	Nonet	60	384	1356	9	0	0	1130971	692	0	correct_rejection	NA	0
3	Nonet	61	385	1357	8	0	0	1131680	691	0	correct_rejection	NA	0
3	Nonet	62	386	1358	7	0	0	1132388	692	0	correct_rejection	NA	0
3	Nonet	63	387	1359	9	0	0	1133097	692	0	correct_rejection	NA	0
3	Nonet	64	388	1360	8	0	0	1133805	692	0	correct_rejection	NA	0
3	Nonet	65	389	1361	0	1	1	1134514	692	1	hit	341	0
3	Nonet	66	390	1362	7	0	0	1135223	691	0	correct_rejection	NA	0
3	Nonet	67	391	1363	9	0	0	1135931	692	0	correct_rejection	NA	0
3	Nonet	68	392	1364	8	0	0	1136640	691	0	correct_rejection	NA	0
3	Nonet	69	393	1365	7	0	0	1137348	692	0	correct_rejection	NA	0
3	Nonet	70	394	1366	0	1	3	1138057	692	1	hit	416	0
3	Nonet	71	395	1367	9	0	0	1138765	692	0	correct_rejection	NA	0
3	Nonet	72	396	1368	8	0	0	1139474	692	0	correct_rejection	NA	0
3	Nonet	73	397	1369	7	0	0	1140183	691	0	correct_rejection	NA	0
3	Nonet	74	398	1370	9	0	0	1140891	692	0	correct_rejection	NA	0
3	Nonet	75	399	1371	8	0	0	1141600	691	0	correct_rejection	NA	0
3	Nonet	76	400	1372	7	0	0	1142308	692	0	correct_rejection	NA	0
3	Nonet	77	401	1373	9	0	0	1143017	691	0	correct_rejection	NA	0
3	Nonet	78	402	1374	0	1	1	1143725	692	1	hit	339	0
3	Nonet	79	403	1375	8	0	0	1144434	692	0	correct_rejection	NA	0
3	Nonet	80	404	1376	7	0	0	1145142	692	0	correct_rejection	NA	0
3	Nonet	81	405	1377	6	0	0	1145851	692	0	correct_rejection	NA	0
3	Nonet	82	406	1378	5	0	0	1146560	691	0	correct_rejection	NA	0
3	Nonet	83	407	1379	4	0	0	1147268	692	0	correct_rejection	NA	0
3	Nonet	84	408	1380	0	1	2	1147977	691	1	hit	575	0
3	Nonet	85	409	1381	6	0	0	1148685	692	0	correct_rejection	NA	0
3	Nonet	86	410	1382	5	0	0	1149394	692	0	correct_rejection	NA	0
3	Nonet	87	411	1383	4	0	0	1150102	692	0	correct_rejection	NA	0
3	Nonet	88	412	1384	6	0	0	1150811	692	0	correct_rejection	NA	0
3	Nonet	89	413	1385	5	0	0	1151520	691	0	correct_rejection	NA	0
3	Nonet	90	414	1386	4	0	0	1152228	692	0	correct_rejection	NA	0
3	Nonet	91	415	1387	7	0	0	1152937	691	0	correct_rejection	NA	0
3	Nonet	92	416	1388	8	0	0	1153645	692	0	correct_rejection	NA	0
3	Nonet	93	417	1389	9	0	0	1154354	692	0	correct_rejection	NA	0
3	Nonet	94	418	1390	7	0	0	1155062	692	0	correct_rejection	NA	0
3	Nonet	95	419	1391	8	0	0	1155771	692	0	correct_rejection	NA	0
3	Nonet	96	420	1392	9	0	0	1156480	691	0	correct_rejection	NA	0
3	Nonet	97	421	1393	7	0	0	1157188	692	0	correct_rejection	NA	0
3	Nonet	98	422	1394	8	0	0	1157897	691	0	correct_rejection	NA	0
3	Nonet	99	423	1395	9	0	0	1158605	692	0	correct_rejection	NA	0
3	Nonet	100	424	1396	6	0	0	1159314	691	0	correct_rejection	NA	0
3	Nonet	101	425	1397	0	1	1	1160022	692	1	hit	359	0
3	Nonet	102	426	1398	5	0	0	1160731	692	0	correct_rejection	NA	0
3	Nonet	103	427	1399	4	0	0	1161440	691	0	correct_rejection	NA	0
3	Nonet	104	428	1400	6	0	0	1162148	692	0	correct_rejection	NA	0
3	Nonet	105	429	1401	5	0	0	1162857	691	0	correct_rejection	NA	0
3	Nonet	106	430	1402	4	0	0	1163565	692	0	correct_rejection	NA	0
3	Nonet	107	431	1403	6	0	0	1164274	691	0	correct_rejection	NA	0
3	Nonet	108	432	1404	5	0	0	1164982	692	0	correct_rejection	NA	0
3	Nonet	109	433	1405	4	0	0	1165691	692	0	correct_rejection	NA	0
3	Nonet	110	434	1406	0	1	3	1166399	692	1	hit	410	0
3	Nonet	111	435	1407	6	0	0	1167108	692	0	correct_rejection	NA	0
3	Nonet	112	436	1408	5	0	0	1167817	691	0	correct_rejection	NA	0
3	Nonet	113	437	1409	0	1	1	1168525	692	1	hit	349	0
3	Nonet	114	438	1410	4	0	0	1169234	691	0	correct_rejection	NA	0
3	Nonet	115	439	1411	6	0	0	1169942	692	0	correct_rejection	NA	0
3	Nonet	116	440	1412	5	0	0	1170651	692	0	correct_rejection	NA	0
3	Nonet	117	441	1413	4	0	0	1171359	692	0	correct_rejection	NA	0
3	Nonet	118	442	1414	6	0	0	1172068	692	0	correct_rejection	NA	0
3	Nonet	119	443	1415	5	0	0	1172777	691	0	correct_rejection	NA	0
3	Nonet	120	444	1416	4	0	0	1173485	692	0	correct_rejection	NA	0
3	Nonet	121	445	1417	9	0	0	1174194	691	0	correct_rejection	NA	0
3	Nonet	122	446	1418	8	0	0	1174902	692	0	correct_rejection	NA	0
3	Nonet	123	447	1419	0	1	1	1175611	692	1	hit	330	0
3	Nonet	124	448	1420	7	0	0	1176319	692	0	correct_rejection	NA	0
3	Nonet	125	449	1421	9	0	0	1177028	692	0	correct_rejection	NA	0
3	Nonet	126	450	1422	8	0	0	1177737	691	0	correct_rejection	NA	0
3	Nonet	127	451	1423	7	0	0	1178445	692	0	correct_rejection	NA	0
3	Nonet	128	452	1424	9	0	0	1179154	691	0	correct_rejection	NA	0
3	Nonet	129	453	1425	8	0	0	1179862	692	0	correct_rejection	NA	0
3	Nonet	130	454	1426	7	0	0	1180571	691	0	correct_rejection	NA	0
3	Nonet	131	455	1427	0	1	3	1181279	692	1	hit	396	0
3	Nonet	132	456	1428	7	0	0	1181988	692	0	correct_rejection	NA	0
3	Nonet	133	457	1429	8	0	0	1182696	692	0	correct_rejection	NA	0
3	Nonet	134	458	1430	9	0	0	1183405	692	0	correct_rejection	NA	0
3	Nonet	135	459	1431	7	0	0	1184114	691	0	correct_rejection	NA	0
3	Nonet	136	460	1432	8	0	0	1184822	692	0	correct_rejection	NA	0
3	Nonet	137	461	1433	0	1	1	1185531	691	1	hit	396	0
3	Nonet	138	462	1434	9	0	0	1186239	692	0	correct_rejection	NA	0
3	Nonet	139	463	1435	7	0	0	1186948	692	0	correct_rejection	NA	0
3	Nonet	140	464	1436	8	0	0	1187656	692	0	correct_rejection	NA	0
3	Nonet	141	465	1437	9	0	0	1188365	692	0	correct_rejection	NA	0
3	Nonet	142	466	1438	0	1	3	1189074	691	1	hit	415	0
3	Nonet	143	467	1439	7	0	0	1189782	692	0	correct_rejection	NA	0
3	Nonet	144	468	1440	8	0	0	1190491	691	0	correct_rejection	NA	0
3	Nonet	145	469	1441	9	0	0	1191199	692	0	correct_rejection	NA	0
3	Nonet	146	470	1442	7	0	0	1191908	692	0	correct_rejection	NA	0
3	Nonet	147	471	1443	8	0	0	1192616	692	0	correct_rejection	NA	0
3	Nonet	148	472	1444	9	0	0	1193325	692	0	correct_rejection	NA	0
3	Nonet	149	473	1445	7	0	0	1194034	691	0	correct_rejection	NA	0
3	Nonet	150	474	1446	8	0	0	1194742	692	0	correct_rejection	NA	0
3	Nonet	151	475	1447	9	0	0	1195451	691	0	correct_rejection	NA	0
3	Nonet	152	476	1448	4	0	0	1196159	692	0	correct_rejection	NA	0
3	Nonet	153	477	1449	5	0	0	1196868	692	0	correct_rejection	NA	0
3	Nonet	154	478	1450	0	1	1	1197576	692	1	hit	358	0
3	Nonet	155	479	1451	6	0	0	1198285	692	0	correct_rejection	NA	0
3	Nonet	156	480	1452	4	0	0	1198994	691	0	correct_rejection	NA	0
3	Nonet	157	481	1453	0	1	1	1199702	692	1	hit	377	0
3	Nonet	158	482	1454	5	0	0	1200411	691	0	correct_rejection	NA	0
3	Nonet	159	483	1455	6	0	0	1201119	692	0	correct_rejection	NA	0
3	Nonet	160	484	1456	4	0	0	1201828	691	0	correct_rejection	NA	0
3	Nonet	161	485	1457	5	0	0	1202536	692	0	correct_rejection	NA	0
3	Nonet	162	486	1458	6	0	0	1203245	692	0	correct_rejection	NA	0
3	Correct	1	163	1459	4	0	0	1212014	692	0	correct_rejection	NA	8034
3	Correct	2	164	1460	5	0	0	1212723	692	0	correct_rejection	NA	0
3	Correct	3	165	1461	6	0	0	1213432	691	0	correct_rejection	NA	0
3	Correct	4	166	1462	4	0	0	1214140	692	0	correct_rejection	NA	0
3	Correct	5	167	1463	5	0	0	1214849	691	0	correct_rejection	NA	0
3	Correct	6	168	1464	6	0	0	1215557	692	0	correct_rejection	NA	0
3	Correct	7	169	1465	4	0	0	1216266	692	0	correct_rejection	NA	0
3	Correct	8	170	1466	0	1	1	1216974	692	1	hit	373	0
3	Correct	9	171	1467	5	0	0	1217683	692	0	correct_rejection	NA	0
3	Correct	10	172	1468	6	0	0	1218392	691	0	correct_rejection	NA	0
3	Correct	11	173	1469	6	0	0	1219100	692	0	correct_rejection	NA	0
3	Correct	12	174	1470	5	0	0	1219809	691	0	correct_rejection	NA	0
3	Correct	13	175	1471	4	0	0	1220517	692	0	correct_rejection	NA	0
3	Correct	14	176	1472	0	1	2	1221226	692	1	hit	421	0
3	Correct	15	177	1473	6	0	0	1221934	692	0	correct_rejection	NA	0
3	Correct	16	178	1474	5	0	0	1222643	692	0	correct_rejection	NA	0
3	Correct	17	179	1475	4	0	0	1223352	691	0	correct_rejection	NA	0
3	Correct	18	180	1476	6	0	0	1224060	692	0	correct_rejection	NA	0
3	Correct	19	181	1477	5	0	0	1224769	691	0	correct_rejection	NA	0
3	Correct	20	182	1478	4	0	0	1225477	692	0	correct_rejection	NA	0
3	Correct	21	183	1479	0	1	3	1226186	691	1	hit	395	0
3	Correct	22	184	1480	9	0	0	1226894	692	0	correct_rejection	NA	0
3	Correct	23	185	1481	8	0	0	1227603	692	0	correct_rejection	NA	0
3	Correct	24	186	1482	7	0	0	1228311	692	0	correct_rejection	NA	0
3	Correct	25	187	1483	0	1	2	1229020	692	1	hit	466	0
3	Correct	26	188	1484	9	0	0	1229729	691	0	correct_rejection	NA	0
3	Correct	27	189	1485	8	0	0	1230437	692	0	correct_rejection	NA	0
3	Correct	28	190	1486	0	1	1	1231146	691	1	hit	347	0
3	Correct	29	191	1487	7	0	0	1231854	692	0	correct_rejection	NA	0
3	Correct	30	192	1488	9	0	0	1232563	692	0	correct_rejection	NA	0
3	Correct	31	193	1489	8	0	0	1233271	692	0	correct_rejection	NA	0
3	Correct	32	194	1490	7	0	0	1233980	692	0	correct_rejection	NA	0
3	Correct	33	195	1491	0	1	3	1234689	691	1	hit	274	0
3	Correct	34	196	1492	7	0	0	1235397	692	0	correct_rejection	NA	0
3	Correct	35	197	1493	8	0	0	1236106	691	0	correct_rejection	NA	0
3	Correct	36	198	1494	9	0	0	1236814	692	0	correct_rejection	NA	0
3	Correct	37	199	1495	7	0	0	1237523	692	0	correct_rejection	NA	0
3	Correct	38	200	1496	8	0	0	1238231	692	0	correct_rejection	NA	0
3	Correct	39	201	1497	9	0	0	1238940	692	0	correct_rejection	NA	0
3	Correct	40	202	1498	7	0	0	1239649	691	0	correct_rejection	NA	0
3	Correct	41	203	1499	8	0	0	1240357	692	0	correct_rejection	NA	0
3	Correct	42	204	1500	9	0	0	1241066	691	0	correct_rejection	NA	0
3	Correct	43	205	1501	4	0	0	1241774	692	0	correct_rejection	NA	0
3	Correct	44	206	1502	5	0	0	1242483	691	0	correct_rejection	NA	0
3	Correct	45	207	1503	6	0	0	1243191	692	0	correct_rejection	NA	0
3	Correct	46	208	1504	4	0	0	1243900	692	0	correct_rejection	NA	0
3	Correct	47	209	1505	5	0	0	1244608	692	0	correct_rejection	NA	0
3	Correct	48	210	1506	6	0	0	1245317	692	0	correct_rejection	NA	0
3	Correct	49	211	1507	4	0	0	1246026	691	0	correct_rejection	NA	0
3	Correct	50	212	1508	5	0	0	1246734	692	0	correct_rejection	NA	0
3	Correct	51	213	1509	6	0	0	1247443	691	0	correct_rejection	NA	0
3	Correct	52	214	1510	6	0	0	1248151	692	0	correct_rejection	NA	0
3	Correct	53	215	1511	5	0	0	1248860	692	0	correct_rejection	NA	0
3	Correct	54	216	1512	4	0	0	1249568	692	0	correct_rejection	NA	0
3	Correct	55	217	1513	6	0	0	1250277	692	0	correct_rejection	NA	0
3	Correct	56	218	1514	5	0	0	1250986	691	0	correct_rejection	NA	0
3	Correct	57	219	1515	4	0	0	1251694	692	0	correct_rejection	NA	0
3	Correct	58	220	1516	6	0	0	1252403	691	0	correct_rejection	NA	0
3	Correct	59	221	1517	5	0	0	1253111	692	0	correct_rejection	NA	0
3	Correct	60	222	1518	0	1	1	1253820	692	1	hit	321	0
3	Correct	61	223	1519	4	0	0	1254528	692	0	correct_rejection	NA	0
3	Correct	62	224	1520	9	0	0	1255237	692	0	correct_rejection	NA	0
3	Correct	63	225	1521	0	1	1	1255946	691	1	hit	468	0
3	Correct	64	226	1522	8	0	0	1256654	692	0	correct_rejection	NA	0
3	Correct	65	227	1523	7	0	0	1257363	691	0	correct_rejection	NA	0
3	Correct	66	228	1524	9	0	0	1258071	692	0	correct_rejection	NA	0
3	Correct	67	229	1525	8	0	0	1258780	692	0	correct_rejection	NA	0
3	Correct	68	230	1526	7	0	0	1259488	692	0	correct_rejection	NA	0
3	Correct	69	231	1527	9	0	0	1260197	692	0	correct_rejection	NA	0
3	Correct	70	232	1528	8	0	0	1260906	691	0	correct_rejection	NA	0
3	Correct	71	233	1529	7	0	0	1261614	692	0	correct_rejection	NA	0
3	Correct	72	234	1530	7	0	0	1262323	691	0	correct_rejection	NA	0
3	Correct	73	235	1531	8	0	0	1263031	692	0	correct_rejection	NA	0
3	Correct	74	236	1532	0	1	1	1263740	691	1	hit	337	0
3	Correct	75	237	1533	9	0	0	1264448	692	0	correct_rejection	NA	0
3	Correct	76	238	1534	7	0	0	1265157	692	0	correct_rejection	NA	0
3	Correct	77	239	1535	0	1	1	1265865	692	1	hit	445	0
3	Correct	78	240	1536	8	0	0	1266574	692	0	correct_rejection	NA	0
3	Correct	79	241	1537	9	0	0	1267283	691	0	correct_rejection	NA	0
3	Correct	80	242	1538	7	0	0	1267991	692	0	correct_rejection	NA	0
3	Correct	81	243	1539	0	1	1	1268700	691	1	hit	310	0
3	Correct	82	244	1540	8	0	0	1269408	692	0	correct_rejection	NA	0
3	Correct	83	245	1541	9	0	0	1270117	692	0	correct_rejection	NA	0
3	Correct	84	246	1542	4	0	0	1270825	692	0	correct_rejection	NA	0
3	Correct	85	247	1543	5	0	0	1271534	692	0	correct_rejection	NA	0
3	Correct	86	248	1544	6	0	0	1272243	691	0	correct_rejection	NA	0
3	Correct	87	249	1545	0	1	2	1272951	692	1	hit	342	0
3	Correct	88	250	1546	4	0	0	1273660	691	0	correct_rejection	NA	0
3	Correct	89	251	1547	5	0	0	1274368	692	0	correct_rejection	NA	0
3	Correct	90	252	1548	6	0	0	1275077	692	0	correct_rejection	NA	0
3	Correct	91	253	1549	4	0	0	1275785	692	0	correct_rejection	NA	0
3	Correct	92	254	1550	5	0	0	1276494	692	0	correct_rejection	NA	0
3	Correct	93	255	1551	6	0	0	1277203	691	0	correct_rejection	NA	0
3	Correct	94	256	1552	6	0	0	1277911	692	0	correct_rejection	NA	0
3	Correct	95	257	1553	0	1	1	1278620	691	1	hit	354	0
3	Correct	96	258	1554	5	0	0	1279328	692	0	correct_rejection	NA	0
3	Correct	97	259	1555	4	0	0	1280037	692	0	correct_rejection	NA	0
3	Correct	98	260	1556	6	0	0	1280745	692	0	correct_rejection	NA	0
3	Correct	99	261	1557	5	0	0	1281454	692	0	correct_rejection	NA	0
3	Correct	100	262	1558	4	0	0	1282163	691	0	correct_rejection	NA	0
3	Correct	101	263	1559	6	0	0	1282871	692	0	correct_rejection	NA	0
3	Correct	102	264	1560	5	0	0	1283580	691	0	correct_rejection	NA	0
3	Correct	103	265	1561	4	0	0	1284288	692	0	correct_rejection	NA	0
3	Correct	104	266	1562	9	0	0	1284997	691	0	correct_rejection	NA	0
3	Correct	105	267	1563	8	0	0	1285705	692	0	correct_rejection	NA	0
3	Correct	106	268	1564	7	0	0	1286414	692	0	correct_rejection	NA	0
3	Correct	107	269	1565	9	0	0	1287122	692	0	correct_rejection	NA	0
3	Correct	108	270	1566	8	0	0	1287831	692	0	correct_rejection	NA	0
3	Correct	109	271	1567	7	0	0	1288540	691	0	correct_rejection	NA	0
3	Correct	110	272	1568	9	0	0	1289248	692	0	correct_rejection	NA	0
3	Correct	111	273	1569	8	0	0	1289957	691	0	correct_rejection	NA	0
3	Correct	112	274	1570	7	0	0	1290665	692	0	correct_rejection	NA	0
3	Correct	113	275	1571	7	0	0	1291374	692	0	correct_rejection	NA	0
3	Correct	114	276	1572	8	0	0	1292082	692	0	correct_rejection	NA	0
3	Correct	115	277	1573	0	1	1	1292791	692	1	hit	462	0
3	Correct	116	278	1574	9	0	0	1293500	691	0	correct_rejection	NA	0
3	Correct	117	279	1575	7	0	0	1294208	692	0	correct_rejection	NA	0
3	Correct	118	280	1576	8	0	0	1294917	691	0	correct_rejection	NA	0
3	Correct	119	281	1577	9	0	0	1295625	692	0	correct_rejection	NA	0
3	Correct	120	282	1578	0	1	2	1296334	692	1	hit	563	0
3	Correct	121	283	1579	7	0	0	1297042	692	0	correct_rejection	NA	0
3	Correct	122	284	1580	8	0	0	1297751	692	0	correct_rejection	NA	0
3	Correct	123	285	1581	9	0	0	1298460	691	0	correct_rejection	NA	0
3	Correct	124	286	1582	4	0	0	1299168	692	0	correct_rejection	NA	0
3	Correct	125	287	1583	5	0	0	1299877	691	0	correct_rejection	NA	0
3	Correct	126	288	1584	0	1	1	1300585	692	1	hit	356	0
3	Correct	127	289	1585	6	0	0	1301294	691	0	correct_rejection	NA	0
3	Correct	128	290	1586	4	0	0	1302002	692	0	correct_rejection	NA	0
3	Correct	129	291	1587	5	0	0	1302711	692	0	correct_rejection	NA	0
3	Correct	130	292	1588	6	0	0	1303419	692	0	correct_rejection	NA	0
3	Correct	131	293	1589	4	0	0	1304128	692	0	correct_rejection	NA	0
3	Correct	132	294	1590	5	0	0	1304837	691	0	correct_rejection	NA	0
3	Correct	133	295	1591	6	0	0	1305545	692	0	correct_rejection	NA	0
3	Correct	134	296	1592	6	0	0	1306254	691	0	correct_rejection	NA	0
3	Correct	135	297	1593	5	0	0	1306962	692	0	correct_rejection	NA	0
3	Correct	136	298	1594	4	0	0	1307671	692	0	correct_rejection	NA	0
3	Correct	137	299	1595	6	0	0	1308379	692	0	correct_rejection	NA	0
3	Correct	138	300	1596	5	0	0	1309088	692	0	correct_rejection	NA	0
3	Correct	139	301	1597	4	0	0	1309797	691	0	correct_rejection	NA	0
3	Correct	140	302	1598	6	0	0	1310505	692	0	correct_rejection	NA	0
3	Correct	141	303	1599	5	0	0	1311214	691	0	correct_rejection	NA	0
3	Correct	142	304	1600	4	0	0	1311922	692	0	correct_rejection	NA	0
3	Correct	143	305	1601	9	0	0	1312631	692	0	correct_rejection	NA	0
3	Correct	144	306	1602	8	0	0	1313339	692	0	correct_rejection	NA	0
3	Correct	145	307	1603	7	0	0	1314048	692	0	correct_rejection	NA	0
3	Correct	146	308	1604	9	0	0	1314757	691	0	correct_rejection	NA	0
3	Correct	147	309	1605	8	0	0	1315465	692	0	correct_rejection	NA	0
3	Correct	148	310	1606	0	1	1	1316174	691	1	hit	342	0
3	Correct	149	311	1607	7	0	0	1316882	692	0	correct_rejection	NA	0
3	Correct	150	312	1608	9	0	0	1317591	692	0	correct_rejection	NA	0
3	Correct	151	313	1609	8	0	0	1318299	692	0	correct_rejection	NA	0
3	Correct	152	314	1610	7	0	0	1319008	692	0	correct_rejection	NA	0
3	Correct	153	315	1611	7	0	0	1319717	691	0	correct_rejection	NA	0
3	Correct	154	316	1612	0	1	1	1320425	692	1	hit	426	0
3	Correct	155	317	1613	8	0	0	1321134	691	0	correct_rejection	NA	0
3	Correct	156	318	1614	9	0	0	1321842	692	0	correct_rejection	NA	0
3	Correct	157	319	1615	7	0	0	1322551	691	0	correct_rejection	NA	0
3	Correct	158	320	1616	8	0	0	1323259	692	0	correct_rejection	NA	0
3	Correct	159	321	1617	9	0	0	1323968	692	0	correct_rejection	NA	0
3	Correct	160	322	1618	7	0	0	1324676	692	0	correct_rejection	NA	0
3	Correct	161	323	1619	8	0	0	1325385	692	0	correct_rejection	NA	0
3	Correct	162	324	1620	9	0	0	1326094	691	0	correct_rejection	NA	0
trigger nr 1243 at 1326658
