ID	block	trial_block	trial_cat	trial_total	number	violation	level_violation	onset	duration	Response	Hit_Miss	RT	pre_trial_fixcross_ISI
first_trigger_at: 11267
trigger nr 3 at 13267
4	Correct	1	1	1	4	0	0	20406	692	0	correct_rejection	NA	7098
4	Correct	2	2	2	5	0	0	21115	691	0	correct_rejection	NA	0
4	Correct	3	3	3	6	0	0	21823	692	0	correct_rejection	NA	0
4	Correct	4	4	4	0	1	2	22532	692	1	hit	365	0
4	Correct	5	5	5	4	0	0	23240	692	0	correct_rejection	NA	0
4	Correct	6	6	6	5	0	0	23949	692	0	correct_rejection	NA	0
4	Correct	7	7	7	6	0	0	24658	691	0	correct_rejection	NA	0
4	Correct	8	8	8	4	0	0	25366	692	0	correct_rejection	NA	0
4	Correct	9	9	9	5	0	0	26075	691	0	correct_rejection	NA	0
4	Correct	10	10	10	6	0	0	26783	692	0	correct_rejection	NA	0
4	Correct	11	11	11	0	1	3	27492	692	1	hit	285	0
4	Correct	12	12	12	6	0	0	28200	692	0	correct_rejection	NA	0
4	Correct	13	13	13	5	0	0	28909	692	0	correct_rejection	NA	0
4	Correct	14	14	14	4	0	0	29618	691	0	correct_rejection	NA	0
4	Correct	15	15	15	6	0	0	30326	692	0	correct_rejection	NA	0
4	Correct	16	16	16	0	1	1	31035	691	1	hit	434	0
4	Correct	17	17	17	5	0	0	31743	692	0	correct_rejection	NA	0
4	Correct	18	18	18	4	0	0	32452	692	0	correct_rejection	NA	0
4	Correct	19	19	19	6	0	0	33160	692	0	correct_rejection	NA	0
4	Correct	20	20	20	5	0	0	33869	692	0	correct_rejection	NA	0
4	Correct	21	21	21	4	0	0	34578	691	0	correct_rejection	NA	0
4	Correct	22	22	22	9	0	0	35286	692	0	correct_rejection	NA	0
4	Correct	23	23	23	8	0	0	35995	691	0	correct_rejection	NA	0
4	Correct	24	24	24	7	0	0	36703	692	0	correct_rejection	NA	0
4	Correct	25	25	25	9	0	0	37412	692	0	correct_rejection	NA	0
4	Correct	26	26	26	8	0	0	38120	692	0	correct_rejection	NA	0
4	Correct	27	27	27	7	0	0	38829	692	0	correct_rejection	NA	0
4	Correct	28	28	28	0	1	2	39538	691	1	hit	299	0
4	Correct	29	29	29	9	0	0	40246	692	0	correct_rejection	NA	0
4	Correct	30	30	30	8	0	0	40955	691	0	correct_rejection	NA	0
4	Correct	31	31	31	7	0	0	41663	692	0	correct_rejection	NA	0
4	Correct	32	32	32	7	0	0	42372	691	0	correct_rejection	NA	0
4	Correct	33	33	33	8	0	0	43080	692	0	correct_rejection	NA	0
4	Correct	34	34	34	9	0	0	43789	692	0	correct_rejection	NA	0
4	Correct	35	35	35	7	0	0	44497	692	0	correct_rejection	NA	0
4	Correct	36	36	36	8	0	0	45206	692	0	correct_rejection	NA	0
4	Correct	37	37	37	9	0	0	45915	691	0	correct_rejection	NA	0
4	Correct	38	38	38	7	0	0	46623	692	0	correct_rejection	NA	0
4	Correct	39	39	39	8	0	0	47332	691	0	correct_rejection	NA	0
4	Correct	40	40	40	9	0	0	48040	692	0	correct_rejection	NA	0
4	Correct	41	41	41	0	1	4	48749	692	1	hit	334	0
4	Correct	42	42	42	4	0	0	49457	692	0	correct_rejection	NA	0
4	Correct	43	43	43	5	0	0	50166	692	0	correct_rejection	NA	0
4	Correct	44	44	44	0	1	1	50875	691	1	hit	482	0
4	Correct	45	45	45	6	0	0	51583	692	0	correct_rejection	NA	0
4	Correct	46	46	46	4	0	0	52292	691	0	correct_rejection	NA	0
4	Correct	47	47	47	5	0	0	53000	692	0	correct_rejection	NA	0
4	Correct	48	48	48	6	0	0	53709	692	0	correct_rejection	NA	0
4	Correct	49	49	49	4	0	0	54417	692	0	correct_rejection	NA	0
4	Correct	50	50	50	5	0	0	55126	692	0	correct_rejection	NA	0
4	Correct	51	51	51	6	0	0	55835	691	0	correct_rejection	NA	0
4	Correct	52	52	52	6	0	0	56543	692	0	correct_rejection	NA	0
4	Correct	53	53	53	5	0	0	57252	691	0	correct_rejection	NA	0
4	Correct	54	54	54	4	0	0	57960	692	0	correct_rejection	NA	0
4	Correct	55	55	55	6	0	0	58669	692	0	correct_rejection	NA	0
4	Correct	56	56	56	5	0	0	59377	692	0	correct_rejection	NA	0
4	Correct	57	57	57	4	0	0	60086	692	0	correct_rejection	NA	0
4	Correct	58	58	58	6	0	0	60795	691	0	correct_rejection	NA	0
4	Correct	59	59	59	5	0	0	61503	692	0	correct_rejection	NA	0
4	Correct	60	60	60	4	0	0	62212	691	0	correct_rejection	NA	0
4	Correct	61	61	61	9	0	0	62920	692	0	correct_rejection	NA	0
4	Correct	62	62	62	8	0	0	63629	691	0	correct_rejection	NA	0
4	Correct	63	63	63	7	0	0	64337	692	0	correct_rejection	NA	0
4	Correct	64	64	64	9	0	0	65046	692	0	correct_rejection	NA	0
4	Correct	65	65	65	8	0	0	65754	692	0	correct_rejection	NA	0
4	Correct	66	66	66	7	0	0	66463	692	0	correct_rejection	NA	0
4	Correct	67	67	67	9	0	0	67172	691	0	correct_rejection	NA	0
4	Correct	68	68	68	8	0	0	67880	692	0	correct_rejection	NA	0
4	Correct	69	69	69	7	0	0	68589	691	0	correct_rejection	NA	0
4	Correct	70	70	70	7	0	0	69297	692	0	correct_rejection	NA	0
4	Correct	71	71	71	8	0	0	70006	692	0	correct_rejection	NA	0
4	Correct	72	72	72	9	0	0	70714	692	0	correct_rejection	NA	0
4	Correct	73	73	73	7	0	0	71423	692	0	correct_rejection	NA	0
4	Correct	74	74	74	8	0	0	72132	691	0	correct_rejection	NA	0
4	Correct	75	75	75	9	0	0	72840	692	0	correct_rejection	NA	0
4	Correct	76	76	76	7	0	0	73549	691	0	correct_rejection	NA	0
4	Correct	77	77	77	8	0	0	74257	692	0	correct_rejection	NA	0
4	Correct	78	78	78	9	0	0	74966	692	0	correct_rejection	NA	0
4	Correct	79	79	79	4	0	0	75674	692	0	correct_rejection	NA	0
4	Correct	80	80	80	0	1	1	76383	692	1	hit	436	0
4	Correct	81	81	81	5	0	0	77092	691	0	correct_rejection	NA	0
4	Correct	82	82	82	6	0	0	77800	692	0	correct_rejection	NA	0
4	Correct	83	83	83	4	0	0	78509	691	0	correct_rejection	NA	0
4	Correct	84	84	84	5	0	0	79217	692	0	correct_rejection	NA	0
4	Correct	85	85	85	6	0	0	79926	692	0	correct_rejection	NA	0
4	Correct	86	86	86	4	0	0	80634	692	0	correct_rejection	NA	0
4	Correct	87	87	87	0	1	1	81343	692	1	hit	380	0
4	Correct	88	88	88	5	0	0	82052	691	0	correct_rejection	NA	0
4	Correct	89	89	89	6	0	0	82760	692	0	correct_rejection	NA	0
4	Correct	90	90	90	6	0	0	83469	691	0	correct_rejection	NA	0
4	Correct	91	91	91	5	0	0	84177	692	0	correct_rejection	NA	0
4	Correct	92	92	92	0	1	1	84886	691	1	hit	312	0
4	Correct	93	93	93	4	0	0	85594	692	0	correct_rejection	NA	0
4	Correct	94	94	94	6	0	0	86303	692	0	correct_rejection	NA	0
4	Correct	95	95	95	5	0	0	87011	692	0	correct_rejection	NA	0
4	Correct	96	96	96	0	1	1	87720	692	1	hit	307	0
4	Correct	97	97	97	4	0	0	88429	691	0	correct_rejection	NA	0
4	Correct	98	98	98	6	0	0	89137	692	0	correct_rejection	NA	0
4	Correct	99	99	99	5	0	0	89846	691	0	correct_rejection	NA	0
4	Correct	100	100	100	4	0	0	90554	692	0	correct_rejection	NA	0
4	Correct	101	101	101	9	0	0	91263	692	0	correct_rejection	NA	0
4	Correct	102	102	102	0	1	1	91971	692	1	hit	394	0
4	Correct	103	103	103	8	0	0	92680	692	0	correct_rejection	NA	0
4	Correct	104	104	104	7	0	0	93389	691	0	correct_rejection	NA	0
4	Correct	105	105	105	9	0	0	94097	692	0	correct_rejection	NA	0
4	Correct	106	106	106	8	0	0	94806	691	0	correct_rejection	NA	0
4	Correct	107	107	107	7	0	0	95514	692	0	correct_rejection	NA	0
4	Correct	108	108	108	9	0	0	96223	692	0	correct_rejection	NA	0
4	Correct	109	109	109	8	0	0	96931	692	0	correct_rejection	NA	0
4	Correct	110	110	110	0	1	1	97640	692	1	hit	374	0
4	Correct	111	111	111	7	0	0	98349	691	0	correct_rejection	NA	0
4	Correct	112	112	112	7	0	0	99057	692	0	correct_rejection	NA	0
4	Correct	113	113	113	8	0	0	99766	691	0	correct_rejection	NA	0
4	Correct	114	114	114	9	0	0	100474	692	0	correct_rejection	NA	0
4	Correct	115	115	115	7	0	0	101183	692	0	correct_rejection	NA	0
4	Correct	116	116	116	8	0	0	101891	692	0	correct_rejection	NA	0
4	Correct	117	117	117	9	0	0	102600	692	0	correct_rejection	NA	0
4	Correct	118	118	118	7	0	0	103309	691	0	correct_rejection	NA	0
4	Correct	119	119	119	8	0	0	104017	692	0	correct_rejection	NA	0
4	Correct	120	120	120	0	1	1	104726	691	1	hit	318	0
4	Correct	121	121	121	9	0	0	105434	692	0	correct_rejection	NA	0
4	Correct	122	122	122	4	0	0	106143	691	0	correct_rejection	NA	0
4	Correct	123	123	123	5	0	0	106851	692	0	correct_rejection	NA	0
4	Correct	124	124	124	6	0	0	107560	692	0	correct_rejection	NA	0
4	Correct	125	125	125	4	0	0	108269	691	0	correct_rejection	NA	0
4	Correct	126	126	126	5	0	0	108977	692	0	correct_rejection	NA	0
4	Correct	127	127	127	6	0	0	109686	691	0	correct_rejection	NA	0
4	Correct	128	128	128	4	0	0	110394	692	0	correct_rejection	NA	0
4	Correct	129	129	129	5	0	0	111103	691	0	correct_rejection	NA	0
4	Correct	130	130	130	0	1	1	111811	692	1	hit	388	0
4	Correct	131	131	131	6	0	0	112520	692	0	correct_rejection	NA	0
4	Correct	132	132	132	6	0	0	113228	692	0	correct_rejection	NA	0
4	Correct	133	133	133	0	1	1	113937	692	1	hit	540	0
4	Correct	134	134	134	5	0	0	114646	691	0	correct_rejection	NA	0
4	Correct	135	135	135	4	0	0	115354	692	0	correct_rejection	NA	0
4	Correct	136	136	136	6	0	0	116063	691	0	correct_rejection	NA	0
4	Correct	137	137	137	5	0	0	116771	692	0	correct_rejection	NA	0
4	Correct	138	138	138	4	0	0	117480	692	0	correct_rejection	NA	0
4	Correct	139	139	139	0	1	2	118188	692	1	hit	306	0
4	Correct	140	140	140	6	0	0	118897	692	0	correct_rejection	NA	0
4	Correct	141	141	141	5	0	0	119606	691	0	correct_rejection	NA	0
4	Correct	142	142	142	4	0	0	120314	692	0	correct_rejection	NA	0
4	Correct	143	143	143	9	0	0	121023	691	0	correct_rejection	NA	0
4	Correct	144	144	144	8	0	0	121731	692	0	correct_rejection	NA	0
4	Correct	145	145	145	7	0	0	122440	692	0	correct_rejection	NA	0
4	Correct	146	146	146	9	0	0	123148	692	0	correct_rejection	NA	0
4	Correct	147	147	147	8	0	0	123857	692	0	correct_rejection	NA	0
4	Correct	148	148	148	7	0	0	124566	691	0	correct_rejection	NA	0
4	Correct	149	149	149	9	0	0	125274	692	0	correct_rejection	NA	0
4	Correct	150	150	150	0	1	1	125983	691	1	hit	435	0
4	Correct	151	151	151	8	0	0	126691	692	0	correct_rejection	NA	0
4	Correct	152	152	152	7	0	0	127400	692	0	correct_rejection	NA	0
4	Correct	153	153	153	7	0	0	128108	692	0	correct_rejection	NA	0
4	Correct	154	154	154	8	0	0	128817	692	0	correct_rejection	NA	0
4	Correct	155	155	155	9	0	0	129526	691	0	correct_rejection	NA	0
4	Correct	156	156	156	0	1	2	130234	692	1	hit	400	0
4	Correct	157	157	157	7	0	0	130943	691	0	correct_rejection	NA	0
4	Correct	158	158	158	8	0	0	131651	692	0	correct_rejection	NA	0
4	Correct	159	159	159	9	0	0	132360	691	0	correct_rejection	NA	0
4	Correct	160	160	160	7	0	0	133068	692	0	correct_rejection	NA	0
4	Correct	161	161	161	8	0	0	133777	692	0	correct_rejection	NA	0
4	Correct	162	162	162	9	0	0	134485	692	0	correct_rejection	NA	0
4	Single	1	163	163	8	0	0	143297	691	0	correct_rejection	NA	6999
4	Single	2	164	164	6	0	0	144005	692	0	correct_rejection	NA	0
4	Single	3	165	165	7	0	0	144714	692	0	correct_rejection	NA	0
4	Single	4	166	166	5	0	0	145422	692	0	correct_rejection	NA	0
4	Single	5	167	167	0	1	1	146131	692	1	hit	402	0
4	Single	6	168	168	5	0	0	146840	691	0	correct_rejection	NA	0
4	Single	7	169	169	7	0	0	147548	692	0	correct_rejection	NA	0
4	Single	8	170	170	6	0	0	148257	691	0	correct_rejection	NA	0
4	Single	9	171	171	0	1	1	148965	692	1	hit	356	0
4	Single	10	172	172	8	0	0	149674	692	0	correct_rejection	NA	0
4	Single	11	173	173	7	0	0	150382	692	0	correct_rejection	NA	0
4	Single	12	174	174	7	0	0	151091	692	0	correct_rejection	NA	0
4	Single	13	175	175	8	0	0	151800	691	0	correct_rejection	NA	0
4	Single	14	176	176	8	0	0	152508	692	0	correct_rejection	NA	0
4	Single	15	177	177	4	0	0	153217	691	0	correct_rejection	NA	0
4	Single	16	178	178	7	0	0	153925	692	0	correct_rejection	NA	0
4	Single	17	179	179	0	1	1	154634	691	1	hit	381	0
4	Single	18	180	180	9	0	0	155342	692	0	correct_rejection	NA	0
4	Single	19	181	181	6	0	0	156051	692	0	correct_rejection	NA	0
4	Single	20	182	182	5	0	0	156759	692	0	correct_rejection	NA	0
4	Single	21	183	183	9	0	0	157468	692	0	correct_rejection	NA	0
4	Single	22	184	184	7	0	0	158177	691	0	correct_rejection	NA	0
4	Single	23	185	185	4	0	0	158885	692	0	correct_rejection	NA	0
4	Single	24	186	186	4	0	0	159594	691	0	correct_rejection	NA	0
4	Single	25	187	187	0	1	1	160302	692	1	hit	414	0
4	Single	26	188	188	6	0	0	161011	692	0	correct_rejection	NA	0
4	Single	27	189	189	9	0	0	161719	692	0	correct_rejection	NA	0
4	Single	28	190	190	9	0	0	162428	692	0	correct_rejection	NA	0
4	Single	29	191	191	5	0	0	163137	691	0	correct_rejection	NA	0
4	Single	30	192	192	6	0	0	163845	692	0	correct_rejection	NA	0
4	Single	31	193	193	6	0	0	164554	691	0	correct_rejection	NA	0
4	Single	32	194	194	0	1	1	165262	692	1	hit	321	0
4	Single	33	195	195	4	0	0	165971	692	0	correct_rejection	NA	0
4	Single	34	196	196	8	0	0	166679	692	0	correct_rejection	NA	0
4	Single	35	197	197	5	0	0	167388	692	0	correct_rejection	NA	0
4	Single	36	198	198	4	0	0	168097	691	0	correct_rejection	NA	0
4	Single	37	199	199	9	0	0	168805	692	0	correct_rejection	NA	0
4	Single	38	200	200	4	0	0	169514	691	0	correct_rejection	NA	0
4	Single	39	201	201	5	0	0	170222	692	0	correct_rejection	NA	0
4	Single	40	202	202	8	0	0	170931	692	0	correct_rejection	NA	0
4	Single	41	203	203	9	0	0	171639	692	0	correct_rejection	NA	0
4	Single	42	204	204	9	0	0	172348	692	0	correct_rejection	NA	0
4	Single	43	205	205	7	0	0	173057	691	0	correct_rejection	NA	0
4	Single	44	206	206	6	0	0	173765	692	0	correct_rejection	NA	0
4	Single	45	207	207	9	0	0	174474	691	0	correct_rejection	NA	0
4	Single	46	208	208	6	0	0	175182	692	0	correct_rejection	NA	0
4	Single	47	209	209	8	0	0	175891	691	0	correct_rejection	NA	0
4	Single	48	210	210	0	1	1	176599	692	1	hit	439	0
4	Single	49	211	211	4	0	0	177308	692	0	correct_rejection	NA	0
4	Single	50	212	212	8	0	0	178017	691	0	correct_rejection	NA	0
4	Single	51	213	213	8	0	0	178725	692	0	correct_rejection	NA	0
4	Single	52	214	214	0	1	1	179434	691	1	hit	451	0
4	Single	53	215	215	5	0	0	180142	692	0	correct_rejection	NA	0
4	Single	54	216	216	7	0	0	180851	691	0	correct_rejection	NA	0
4	Single	55	217	217	7	0	0	181559	692	0	correct_rejection	NA	0
4	Single	56	218	218	5	0	0	182268	692	0	correct_rejection	NA	0
4	Single	57	219	219	6	0	0	182976	692	0	correct_rejection	NA	0
4	Single	58	220	220	4	0	0	183685	692	0	correct_rejection	NA	0
4	Single	59	221	221	7	0	0	184394	691	0	correct_rejection	NA	0
4	Single	60	222	222	0	1	1	185102	692	1	hit	450	0
4	Single	61	223	223	4	0	0	185811	691	0	correct_rejection	NA	0
4	Single	62	224	224	6	0	0	186519	692	0	correct_rejection	NA	0
4	Single	63	225	225	5	0	0	187228	692	0	correct_rejection	NA	0
4	Single	64	226	226	5	0	0	187936	692	0	correct_rejection	NA	0
4	Single	65	227	227	8	0	0	188645	692	0	correct_rejection	NA	0
4	Single	66	228	228	0	1	1	189354	691	1	hit	336	0
4	Single	67	229	229	7	0	0	190062	692	0	correct_rejection	NA	0
4	Single	68	230	230	8	0	0	190771	691	0	correct_rejection	NA	0
4	Single	69	231	231	9	0	0	191479	692	0	correct_rejection	NA	0
4	Single	70	232	232	0	1	1	192188	692	1	hit	331	0
4	Single	71	233	233	4	0	0	192896	692	0	correct_rejection	NA	0
4	Single	72	234	234	9	0	0	193605	692	0	correct_rejection	NA	0
4	Single	73	235	235	5	0	0	194314	691	0	correct_rejection	NA	0
4	Single	74	236	236	4	0	0	195022	692	0	correct_rejection	NA	0
4	Single	75	237	237	4	0	0	195731	691	0	correct_rejection	NA	0
4	Single	76	238	238	5	0	0	196439	692	0	correct_rejection	NA	0
4	Single	77	239	239	0	1	1	197148	691	1	hit	311	0
4	Single	78	240	240	9	0	0	197856	692	0	correct_rejection	NA	0
4	Single	79	241	241	9	0	0	198565	692	0	correct_rejection	NA	0
4	Single	80	242	242	8	0	0	199274	691	0	correct_rejection	NA	0
4	Single	81	243	243	6	0	0	199982	692	0	correct_rejection	NA	0
4	Single	82	244	244	6	0	0	200691	691	0	correct_rejection	NA	0
4	Single	83	245	245	7	0	0	201399	692	0	correct_rejection	NA	0
4	Single	84	246	246	7	0	0	202108	691	0	correct_rejection	NA	0
4	Single	85	247	247	5	0	0	202816	692	0	correct_rejection	NA	0
4	Single	86	248	248	7	0	0	203525	692	0	correct_rejection	NA	0
4	Single	87	249	249	9	0	0	204233	692	0	correct_rejection	NA	0
4	Single	88	250	250	9	0	0	204942	692	0	correct_rejection	NA	0
4	Single	89	251	251	7	0	0	205651	691	0	correct_rejection	NA	0
4	Single	90	252	252	7	0	0	206359	692	0	correct_rejection	NA	0
4	Single	91	253	253	4	0	0	207068	691	0	correct_rejection	NA	0
4	Single	92	254	254	8	0	0	207776	692	0	correct_rejection	NA	0
4	Single	93	255	255	7	0	0	208485	692	0	correct_rejection	NA	0
4	Single	94	256	256	6	0	0	209193	692	0	correct_rejection	NA	0
4	Single	95	257	257	5	0	0	209902	692	0	correct_rejection	NA	0
4	Single	96	258	258	6	0	0	210611	691	0	correct_rejection	NA	0
4	Single	97	259	259	7	0	0	211319	692	0	correct_rejection	NA	0
4	Single	98	260	260	8	0	0	212028	691	0	correct_rejection	NA	0
4	Single	99	261	261	5	0	0	212736	692	0	correct_rejection	NA	0
4	Single	100	262	262	9	0	0	213445	692	0	correct_rejection	NA	0
4	Single	101	263	263	4	0	0	214153	692	0	correct_rejection	NA	0
4	Single	102	264	264	4	0	0	214862	692	0	correct_rejection	NA	0
4	Single	103	265	265	9	0	0	215571	691	0	correct_rejection	NA	0
4	Single	104	266	266	0	1	1	216279	692	1	hit	654	0
4	Single	105	267	267	8	0	0	216988	691	0	correct_rejection	NA	0
4	Single	106	268	268	9	0	0	217696	692	0	correct_rejection	NA	0
4	Single	107	269	269	6	0	0	218405	692	0	correct_rejection	NA	0
4	Single	108	270	270	9	0	0	219113	692	0	correct_rejection	NA	0
4	Single	109	271	271	0	1	1	219822	692	1	hit	340	0
4	Single	110	272	272	5	0	0	220531	691	0	correct_rejection	NA	0
4	Single	111	273	273	8	0	0	221239	692	0	correct_rejection	NA	0
4	Single	112	274	274	4	0	0	221948	691	0	correct_rejection	NA	0
4	Single	113	275	275	5	0	0	222656	692	0	correct_rejection	NA	0
4	Single	114	276	276	5	0	0	223365	691	0	correct_rejection	NA	0
4	Single	115	277	277	4	0	0	224073	692	0	correct_rejection	NA	0
4	Single	116	278	278	6	0	0	224782	692	0	correct_rejection	NA	0
4	Single	117	279	279	6	0	0	225490	692	0	correct_rejection	NA	0
4	Single	118	280	280	8	0	0	226199	692	0	correct_rejection	NA	0
4	Single	119	281	281	8	0	0	226908	691	0	correct_rejection	NA	0
4	Single	120	282	282	6	0	0	227616	692	0	correct_rejection	NA	0
4	Single	121	283	283	4	0	0	228325	691	0	correct_rejection	NA	0
4	Single	122	284	284	8	0	0	229033	692	0	correct_rejection	NA	0
4	Single	123	285	285	4	0	0	229742	692	0	correct_rejection	NA	0
4	Single	124	286	286	6	0	0	230450	692	0	correct_rejection	NA	0
4	Single	125	287	287	0	1	1	231159	692	1	hit	387	0
4	Single	126	288	288	9	0	0	231868	691	0	correct_rejection	NA	0
4	Single	127	289	289	8	0	0	232576	692	0	correct_rejection	NA	0
4	Single	128	290	290	8	0	0	233285	691	0	correct_rejection	NA	0
4	Single	129	291	291	0	1	1	233993	692	1	hit	472	0
4	Single	130	292	292	9	0	0	234702	692	0	correct_rejection	NA	0
4	Single	131	293	293	5	0	0	235410	692	0	correct_rejection	NA	0
4	Single	132	294	294	9	0	0	236119	692	0	correct_rejection	NA	0
4	Single	133	295	295	7	0	0	236828	691	0	correct_rejection	NA	0
4	Single	134	296	296	5	0	0	237536	692	0	correct_rejection	NA	0
4	Single	135	297	297	8	0	0	238245	691	0	correct_rejection	NA	0
4	Single	136	298	298	5	0	0	238953	692	0	correct_rejection	NA	0
4	Single	137	299	299	5	0	0	239662	692	0	correct_rejection	NA	0
4	Single	138	300	300	6	0	0	240370	692	0	correct_rejection	NA	0
4	Single	139	301	301	8	0	0	241079	692	0	correct_rejection	NA	0
4	Single	140	302	302	0	1	1	241788	691	1	hit	349	0
4	Single	141	303	303	6	0	0	242496	692	0	correct_rejection	NA	0
4	Single	142	304	304	7	0	0	243205	691	0	correct_rejection	NA	0
4	Single	143	305	305	9	0	0	243913	692	0	correct_rejection	NA	0
4	Single	144	306	306	6	0	0	244622	691	0	correct_rejection	NA	0
4	Single	145	307	307	0	1	1	245330	692	1	hit	430	0
4	Single	146	308	308	5	0	0	246039	692	0	correct_rejection	NA	0
4	Single	147	309	309	4	0	0	246747	692	0	correct_rejection	NA	0
4	Single	148	310	310	0	1	1	247456	692	0	miss	NA	0
4	Single	149	311	311	5	0	0	248165	691	0	correct_rejection	NA	0
4	Single	150	312	312	7	0	0	248873	692	0	correct_rejection	NA	0
4	Single	151	313	313	8	0	0	249582	691	0	correct_rejection	NA	0
4	Single	152	314	314	7	0	0	250290	692	0	correct_rejection	NA	0
4	Single	153	315	315	4	0	0	250999	692	0	correct_rejection	NA	0
4	Single	154	316	316	4	0	0	251707	692	0	correct_rejection	NA	0
4	Single	155	317	317	7	0	0	252416	692	0	correct_rejection	NA	0
4	Single	156	318	318	7	0	0	253125	691	0	correct_rejection	NA	0
4	Single	157	319	319	6	0	0	253833	692	0	correct_rejection	NA	0
4	Single	158	320	320	6	0	0	254542	691	0	correct_rejection	NA	0
4	Single	159	321	321	4	0	0	255250	692	0	correct_rejection	NA	0
4	Single	160	322	322	9	0	0	255959	692	0	correct_rejection	NA	0
4	Single	161	323	323	9	0	0	256667	692	0	correct_rejection	NA	0
4	Single	162	324	324	4	0	0	257376	692	0	correct_rejection	NA	0
4	Triplet	1	325	325	6	0	0	265679	691	0	correct_rejection	NA	6379
4	Triplet	2	326	326	5	0	0	266387	692	0	correct_rejection	NA	0
4	Triplet	3	327	327	4	0	0	267096	692	0	correct_rejection	NA	0
4	Triplet	4	328	328	6	0	0	267804	692	0	correct_rejection	NA	0
4	Triplet	5	329	329	5	0	0	268513	692	0	correct_rejection	NA	0
4	Triplet	6	330	330	4	0	0	269222	691	0	correct_rejection	NA	0
4	Triplet	7	331	331	9	0	0	269930	692	0	correct_rejection	NA	0
4	Triplet	8	332	332	8	0	0	270639	691	0	correct_rejection	NA	0
4	Triplet	9	333	333	7	0	0	271347	692	0	correct_rejection	NA	0
4	Triplet	10	334	334	9	0	0	272056	692	0	correct_rejection	NA	0
4	Triplet	11	335	335	8	0	0	272764	692	0	correct_rejection	NA	0
4	Triplet	12	336	336	7	0	0	273473	692	0	correct_rejection	NA	0
4	Triplet	13	337	337	7	0	0	274182	691	0	correct_rejection	NA	0
4	Triplet	14	338	338	0	1	1	274890	692	1	hit	629	0
4	Triplet	15	339	339	8	0	0	275599	691	0	correct_rejection	NA	0
4	Triplet	16	340	340	9	0	0	276307	692	0	correct_rejection	NA	0
4	Triplet	17	341	341	9	0	0	277016	691	0	correct_rejection	NA	0
4	Triplet	18	342	342	8	0	0	277724	692	0	correct_rejection	NA	0
4	Triplet	19	343	343	7	0	0	278433	692	0	correct_rejection	NA	0
4	Triplet	20	344	344	6	0	0	279141	692	0	correct_rejection	NA	0
4	Triplet	21	345	345	5	0	0	279850	692	0	correct_rejection	NA	0
4	Triplet	22	346	346	4	0	0	280559	691	0	correct_rejection	NA	0
4	Triplet	23	347	347	7	0	0	281267	692	0	correct_rejection	NA	0
4	Triplet	24	348	348	8	0	0	281976	691	0	correct_rejection	NA	0
4	Triplet	25	349	349	9	0	0	282684	692	0	correct_rejection	NA	0
4	Triplet	26	350	350	4	0	0	283393	692	0	correct_rejection	NA	0
4	Triplet	27	351	351	5	0	0	284101	692	0	correct_rejection	NA	0
4	Triplet	28	352	352	6	0	0	284810	692	0	correct_rejection	NA	0
4	Triplet	29	353	353	6	0	0	285519	691	0	correct_rejection	NA	0
4	Triplet	30	354	354	0	1	1	286227	692	1	hit	527	0
4	Triplet	31	355	355	5	0	0	286936	691	0	correct_rejection	NA	0
4	Triplet	32	356	356	4	0	0	287644	692	0	correct_rejection	NA	0
4	Triplet	33	357	357	4	0	0	288353	692	0	correct_rejection	NA	0
4	Triplet	34	358	358	5	0	0	289061	692	0	correct_rejection	NA	0
4	Triplet	35	359	359	6	0	0	289770	692	0	correct_rejection	NA	0
4	Triplet	36	360	360	9	0	0	290479	691	0	correct_rejection	NA	0
4	Triplet	37	361	361	8	0	0	291187	692	0	correct_rejection	NA	0
4	Triplet	38	362	362	7	0	0	291896	691	0	correct_rejection	NA	0
4	Triplet	39	363	363	4	0	0	292604	692	0	correct_rejection	NA	0
4	Triplet	40	364	364	5	0	0	293313	692	0	correct_rejection	NA	0
4	Triplet	41	365	365	6	0	0	294021	692	0	correct_rejection	NA	0
4	Triplet	42	366	366	4	0	0	294730	692	0	correct_rejection	NA	0
4	Triplet	43	367	367	0	1	1	295439	691	0	miss	NA	0
4	Triplet	44	368	368	5	0	0	296147	692	0	correct_rejection	NA	0
4	Triplet	45	369	369	6	0	0	296856	691	0	correct_rejection	NA	0
4	Triplet	46	370	370	7	0	0	297564	692	0	correct_rejection	NA	0
4	Triplet	47	371	371	8	0	0	298273	691	0	correct_rejection	NA	0
4	Triplet	48	372	372	9	0	0	298981	692	0	correct_rejection	NA	0
4	Triplet	49	373	373	7	0	0	299690	692	0	correct_rejection	NA	0
4	Triplet	50	374	374	8	0	0	300399	691	0	correct_rejection	NA	0
4	Triplet	51	375	375	9	0	0	301107	692	0	correct_rejection	NA	0
4	Triplet	52	376	376	0	1	2	301816	691	1	hit	390	0
4	Triplet	53	377	377	6	0	0	302524	692	0	correct_rejection	NA	0
4	Triplet	54	378	378	5	0	0	303233	691	0	correct_rejection	NA	0
4	Triplet	55	379	379	4	0	0	303941	692	0	correct_rejection	NA	0
4	Triplet	56	380	380	0	1	2	304650	692	1	hit	369	0
4	Triplet	57	381	381	7	0	0	305358	692	0	correct_rejection	NA	0
4	Triplet	58	382	382	8	0	0	306067	692	0	correct_rejection	NA	0
4	Triplet	59	383	383	9	0	0	306776	691	0	correct_rejection	NA	0
4	Triplet	60	384	384	9	0	0	307484	692	0	correct_rejection	NA	0
4	Triplet	61	385	385	8	0	0	308193	691	0	correct_rejection	NA	0
4	Triplet	62	386	386	7	0	0	308901	692	0	correct_rejection	NA	0
4	Triplet	63	387	387	4	0	0	309610	692	0	correct_rejection	NA	0
4	Triplet	64	388	388	5	0	0	310318	692	0	correct_rejection	NA	0
4	Triplet	65	389	389	6	0	0	311027	692	0	correct_rejection	NA	0
4	Triplet	66	390	390	7	0	0	311736	691	0	correct_rejection	NA	0
4	Triplet	67	391	391	8	0	0	312444	692	0	correct_rejection	NA	0
4	Triplet	68	392	392	0	1	1	313153	691	1	hit	406	0
4	Triplet	69	393	393	9	0	0	313861	692	0	correct_rejection	NA	0
4	Triplet	70	394	394	4	0	0	314570	692	0	correct_rejection	NA	0
4	Triplet	71	395	395	5	0	0	315278	692	0	correct_rejection	NA	0
4	Triplet	72	396	396	0	1	1	315987	692	1	hit	513	0
4	Triplet	73	397	397	6	0	0	316696	691	0	correct_rejection	NA	0
4	Triplet	74	398	398	4	0	0	317404	692	0	correct_rejection	NA	0
4	Triplet	75	399	399	0	1	1	318113	691	1	hit	514	0
4	Triplet	76	400	400	5	0	0	318821	692	0	correct_rejection	NA	0
4	Triplet	77	401	401	6	0	0	319530	692	0	correct_rejection	NA	0
4	Triplet	78	402	402	9	0	0	320238	692	0	correct_rejection	NA	0
4	Triplet	79	403	403	0	1	1	320947	692	1	hit	372	0
4	Triplet	80	404	404	8	0	0	321656	691	0	correct_rejection	NA	0
4	Triplet	81	405	405	7	0	0	322364	692	0	correct_rejection	NA	0
4	Triplet	82	406	406	9	0	0	323073	691	0	correct_rejection	NA	0
4	Triplet	83	407	407	8	0	0	323781	692	0	correct_rejection	NA	0
4	Triplet	84	408	408	7	0	0	324490	691	0	correct_rejection	NA	0
4	Triplet	85	409	409	6	0	0	325198	692	0	correct_rejection	NA	0
4	Triplet	86	410	410	5	0	0	325907	692	0	correct_rejection	NA	0
4	Triplet	87	411	411	4	0	0	326615	692	0	correct_rejection	NA	0
4	Triplet	88	412	412	4	0	0	327324	692	0	correct_rejection	NA	0
4	Triplet	89	413	413	5	0	0	328033	691	0	correct_rejection	NA	0
4	Triplet	90	414	414	6	0	0	328741	692	0	correct_rejection	NA	0
4	Triplet	91	415	415	6	0	0	329450	691	0	correct_rejection	NA	0
4	Triplet	92	416	416	5	0	0	330158	692	0	correct_rejection	NA	0
4	Triplet	93	417	417	4	0	0	330867	692	0	correct_rejection	NA	0
4	Triplet	94	418	418	9	0	0	331575	692	0	correct_rejection	NA	0
4	Triplet	95	419	419	8	0	0	332284	692	0	correct_rejection	NA	0
4	Triplet	96	420	420	7	0	0	332993	691	0	correct_rejection	NA	0
4	Triplet	97	421	421	0	1	2	333701	692	1	hit	481	0
4	Triplet	98	422	422	7	0	0	334410	691	0	correct_rejection	NA	0
4	Triplet	99	423	423	8	0	0	335118	692	0	correct_rejection	NA	0
4	Triplet	100	424	424	9	0	0	335827	692	0	correct_rejection	NA	0
4	Triplet	101	425	425	7	0	0	336535	692	0	correct_rejection	NA	0
4	Triplet	102	426	426	8	0	0	337244	692	0	correct_rejection	NA	0
4	Triplet	103	427	427	9	0	0	337953	691	0	correct_rejection	NA	0
4	Triplet	104	428	428	6	0	0	338661	692	0	correct_rejection	NA	0
4	Triplet	105	429	429	5	0	0	339370	691	0	correct_rejection	NA	0
4	Triplet	106	430	430	4	0	0	340078	692	0	correct_rejection	NA	0
4	Triplet	107	431	431	0	1	2	340787	692	1	hit	539	0
4	Triplet	108	432	432	6	0	0	341495	692	0	correct_rejection	NA	0
4	Triplet	109	433	433	5	0	0	342204	692	0	correct_rejection	NA	0
4	Triplet	110	434	434	0	1	1	342913	691	1	hit	567	0
4	Triplet	111	435	435	4	0	0	343621	692	0	correct_rejection	NA	0
4	Triplet	112	436	436	9	0	0	344330	691	0	correct_rejection	NA	0
4	Triplet	113	437	437	8	0	0	345038	692	0	correct_rejection	NA	0
4	Triplet	114	438	438	7	0	0	345747	691	0	correct_rejection	NA	0
4	Triplet	115	439	439	4	0	0	346455	692	0	correct_rejection	NA	0
4	Triplet	116	440	440	5	0	0	347164	692	0	correct_rejection	NA	0
4	Triplet	117	441	441	6	0	0	347872	692	0	correct_rejection	NA	0
4	Triplet	118	442	442	9	0	0	348581	692	0	correct_rejection	NA	0
4	Triplet	119	443	443	8	0	0	349290	691	0	correct_rejection	NA	0
4	Triplet	120	444	444	7	0	0	349998	692	0	correct_rejection	NA	0
4	Triplet	121	445	445	7	0	0	350707	691	0	correct_rejection	NA	0
4	Triplet	122	446	446	8	0	0	351415	692	0	correct_rejection	NA	0
4	Triplet	123	447	447	9	0	0	352124	692	0	correct_rejection	NA	0
4	Triplet	124	448	448	6	0	0	352832	692	0	correct_rejection	NA	0
4	Triplet	125	449	449	5	0	0	353541	692	0	correct_rejection	NA	0
4	Triplet	126	450	450	4	0	0	354250	691	0	correct_rejection	NA	0
4	Triplet	127	451	451	4	0	0	354958	692	0	correct_rejection	NA	0
4	Triplet	128	452	452	0	1	1	355667	691	0	miss	NA	0
4	Triplet	129	453	453	5	0	0	356375	692	0	correct_rejection	NA	0
4	Triplet	130	454	454	6	0	0	357084	692	0	correct_rejection	NA	0
4	Triplet	131	455	455	0	1	2	357792	692	0	miss	NA	0
4	Triplet	132	456	456	4	0	0	358501	692	0	correct_rejection	NA	0
4	Triplet	133	457	457	5	0	0	359210	691	0	correct_rejection	NA	0
4	Triplet	134	458	458	6	0	0	359918	692	0	correct_rejection	NA	0
4	Triplet	135	459	459	6	0	0	360627	691	0	correct_rejection	NA	0
4	Triplet	136	460	460	5	0	0	361335	692	0	correct_rejection	NA	0
4	Triplet	137	461	461	4	0	0	362044	692	0	correct_rejection	NA	0
4	Triplet	138	462	462	6	0	0	362752	692	0	correct_rejection	NA	0
4	Triplet	139	463	463	5	0	0	363461	692	0	correct_rejection	NA	0
4	Triplet	140	464	464	0	1	1	364170	691	0	miss	NA	0
4	Triplet	141	465	465	4	0	0	364878	692	1	false_alarm	69	0
4	Triplet	142	466	466	7	0	0	365587	691	0	correct_rejection	NA	0
4	Triplet	143	467	467	8	0	0	366295	692	0	correct_rejection	NA	0
4	Triplet	144	468	468	9	0	0	367004	691	0	correct_rejection	NA	0
4	Triplet	145	469	469	7	0	0	367712	692	0	correct_rejection	NA	0
4	Triplet	146	470	470	8	0	0	368421	692	0	correct_rejection	NA	0
4	Triplet	147	471	471	9	0	0	369129	692	0	correct_rejection	NA	0
4	Triplet	148	472	472	4	0	0	369838	692	0	correct_rejection	NA	0
4	Triplet	149	473	473	5	0	0	370547	691	0	correct_rejection	NA	0
4	Triplet	150	474	474	6	0	0	371255	692	0	correct_rejection	NA	0
4	Triplet	151	475	475	0	1	2	371964	691	1	hit	374	0
4	Triplet	152	476	476	7	0	0	372672	692	0	correct_rejection	NA	0
4	Triplet	153	477	477	8	0	0	373381	692	0	correct_rejection	NA	0
4	Triplet	154	478	478	0	1	1	374089	692	0	miss	NA	0
4	Triplet	155	479	479	9	0	0	374798	692	0	correct_rejection	NA	0
4	Triplet	156	480	480	9	0	0	375507	691	0	correct_rejection	NA	0
4	Triplet	157	481	481	8	0	0	376215	692	0	correct_rejection	NA	0
4	Triplet	158	482	482	7	0	0	376924	691	0	correct_rejection	NA	0
4	Triplet	159	483	483	9	0	0	377632	692	0	correct_rejection	NA	0
4	Triplet	160	484	484	0	1	1	378341	692	1	hit	335	0
4	Triplet	161	485	485	8	0	0	379049	692	0	correct_rejection	NA	0
4	Triplet	162	486	486	7	0	0	379758	692	0	correct_rejection	NA	0
4	Nonet	1	1	487	9	0	0	388728	691	0	correct_rejection	NA	6429
4	Nonet	2	2	488	8	0	0	389436	692	0	correct_rejection	NA	0
4	Nonet	3	3	489	7	0	0	390145	691	0	correct_rejection	NA	0
4	Nonet	4	4	490	9	0	0	390853	692	0	correct_rejection	NA	0
4	Nonet	5	5	491	8	0	0	391562	692	0	correct_rejection	NA	0
4	Nonet	6	6	492	7	0	0	392270	692	0	correct_rejection	NA	0
4	Nonet	7	7	493	9	0	0	392979	692	0	correct_rejection	NA	0
4	Nonet	8	8	494	8	0	0	393688	691	0	correct_rejection	NA	0
4	Nonet	9	9	495	7	0	0	394396	692	0	correct_rejection	NA	0
4	Nonet	10	10	496	6	0	0	395105	691	0	correct_rejection	NA	0
4	Nonet	11	11	497	5	0	0	395813	692	0	correct_rejection	NA	0
4	Nonet	12	12	498	4	0	0	396522	692	0	correct_rejection	NA	0
4	Nonet	13	13	499	6	0	0	397230	692	0	correct_rejection	NA	0
4	Nonet	14	14	500	5	0	0	397939	692	0	correct_rejection	NA	0
4	Nonet	15	15	501	4	0	0	398648	691	0	correct_rejection	NA	0
4	Nonet	16	16	502	6	0	0	399356	692	0	correct_rejection	NA	0
4	Nonet	17	17	503	0	1	1	400065	691	1	hit	378	0
4	Nonet	18	18	504	5	0	0	400773	692	0	correct_rejection	NA	0
4	Nonet	19	19	505	4	0	0	401482	692	0	correct_rejection	NA	0
4	Nonet	20	20	506	6	0	0	402190	692	0	correct_rejection	NA	0
4	Nonet	21	21	507	5	0	0	402899	692	0	correct_rejection	NA	0
4	Nonet	22	22	508	0	1	1	403608	691	1	hit	353	0
4	Nonet	23	23	509	4	0	0	404316	692	0	correct_rejection	NA	0
4	Nonet	24	24	510	6	0	0	405025	691	0	correct_rejection	NA	0
4	Nonet	25	25	511	5	0	0	405733	692	0	correct_rejection	NA	0
4	Nonet	26	26	512	4	0	0	406442	691	0	correct_rejection	NA	0
4	Nonet	27	27	513	6	0	0	407150	692	0	correct_rejection	NA	0
4	Nonet	28	28	514	5	0	0	407859	692	0	correct_rejection	NA	0
4	Nonet	29	29	515	4	0	0	408567	692	0	correct_rejection	NA	0
4	Nonet	30	30	516	9	0	0	409276	692	0	correct_rejection	NA	0
4	Nonet	31	31	517	8	0	0	409985	691	0	correct_rejection	NA	0
4	Nonet	32	32	518	0	1	1	410693	692	1	hit	326	0
4	Nonet	33	33	519	7	0	0	411402	691	0	correct_rejection	NA	0
4	Nonet	34	34	520	9	0	0	412110	692	0	correct_rejection	NA	0
4	Nonet	35	35	521	8	0	0	412819	692	0	correct_rejection	NA	0
4	Nonet	36	36	522	7	0	0	413527	692	0	correct_rejection	NA	0
4	Nonet	37	37	523	9	0	0	414236	692	0	correct_rejection	NA	0
4	Nonet	38	38	524	8	0	0	414945	691	0	correct_rejection	NA	0
4	Nonet	39	39	525	7	0	0	415653	692	0	correct_rejection	NA	0
4	Nonet	40	40	526	4	0	0	416362	691	0	correct_rejection	NA	0
4	Nonet	41	41	527	5	0	0	417070	692	0	correct_rejection	NA	0
4	Nonet	42	42	528	6	0	0	417779	692	0	correct_rejection	NA	0
4	Nonet	43	43	529	0	1	2	418487	692	1	hit	393	0
4	Nonet	44	44	530	4	0	0	419196	692	0	correct_rejection	NA	0
4	Nonet	45	45	531	5	0	0	419905	691	0	correct_rejection	NA	0
4	Nonet	46	46	532	6	0	0	420613	692	0	correct_rejection	NA	0
4	Nonet	47	47	533	0	1	2	421322	691	1	hit	607	0
4	Nonet	48	48	534	4	0	0	422030	692	0	correct_rejection	NA	0
4	Nonet	49	49	535	5	0	0	422739	692	0	correct_rejection	NA	0
4	Nonet	50	50	536	6	0	0	423447	692	0	correct_rejection	NA	0
4	Nonet	51	51	537	4	0	0	424156	692	0	correct_rejection	NA	0
4	Nonet	52	52	538	5	0	0	424865	691	0	correct_rejection	NA	0
4	Nonet	53	53	539	0	1	1	425573	692	0	miss	NA	0
4	Nonet	54	54	540	6	0	0	426282	691	1	false_alarm	0	0
4	Nonet	55	55	541	4	0	0	426990	692	0	correct_rejection	NA	0
4	Nonet	56	56	542	5	0	0	427699	691	0	correct_rejection	NA	0
4	Nonet	57	57	543	6	0	0	428407	692	0	correct_rejection	NA	0
4	Nonet	58	58	544	4	0	0	429116	692	0	correct_rejection	NA	0
4	Nonet	59	59	545	5	0	0	429825	691	0	correct_rejection	NA	0
4	Nonet	60	60	546	6	0	0	430533	692	0	correct_rejection	NA	0
4	Nonet	61	61	547	7	0	0	431242	691	0	correct_rejection	NA	0
4	Nonet	62	62	548	8	0	0	431950	692	0	correct_rejection	NA	0
4	Nonet	63	63	549	9	0	0	432659	691	0	correct_rejection	NA	0
4	Nonet	64	64	550	7	0	0	433367	692	0	correct_rejection	NA	0
4	Nonet	65	65	551	8	0	0	434076	692	0	correct_rejection	NA	0
4	Nonet	66	66	552	0	1	1	434784	692	1	hit	453	0
4	Nonet	67	67	553	9	0	0	435493	692	0	correct_rejection	NA	0
4	Nonet	68	68	554	7	0	0	436202	691	0	correct_rejection	NA	0
4	Nonet	69	69	555	8	0	0	436910	692	0	correct_rejection	NA	0
4	Nonet	70	70	556	9	0	0	437619	691	0	correct_rejection	NA	0
4	Nonet	71	71	557	4	0	0	438327	692	0	correct_rejection	NA	0
4	Nonet	72	72	558	5	0	0	439036	692	0	correct_rejection	NA	0
4	Nonet	73	73	559	6	0	0	439744	692	0	correct_rejection	NA	0
4	Nonet	74	74	560	4	0	0	440453	692	0	correct_rejection	NA	0
4	Nonet	75	75	561	5	0	0	441162	691	0	correct_rejection	NA	0
4	Nonet	76	76	562	6	0	0	441870	692	0	correct_rejection	NA	0
4	Nonet	77	77	563	4	0	0	442579	691	0	correct_rejection	NA	0
4	Nonet	78	78	564	5	0	0	443287	692	0	correct_rejection	NA	0
4	Nonet	79	79	565	6	0	0	443996	692	0	correct_rejection	NA	0
4	Nonet	80	80	566	9	0	0	444704	692	0	correct_rejection	NA	0
4	Nonet	81	81	567	8	0	0	445413	692	0	correct_rejection	NA	0
4	Nonet	82	82	568	0	1	1	446122	691	1	hit	659	0
4	Nonet	83	83	569	7	0	0	446830	692	0	correct_rejection	NA	0
4	Nonet	84	84	570	9	0	0	447539	691	0	correct_rejection	NA	0
4	Nonet	85	85	571	8	0	0	448247	692	0	correct_rejection	NA	0
4	Nonet	86	86	572	0	1	1	448956	692	1	hit	425	0
4	Nonet	87	87	573	7	0	0	449664	692	0	correct_rejection	NA	0
4	Nonet	88	88	574	9	0	0	450373	692	0	correct_rejection	NA	0
4	Nonet	89	89	575	8	0	0	451082	691	0	correct_rejection	NA	0
4	Nonet	90	90	576	7	0	0	451790	692	0	correct_rejection	NA	0
4	Nonet	91	91	577	0	1	3	452499	691	0	miss	NA	0
4	Nonet	92	92	578	9	0	0	453207	692	0	correct_rejection	NA	0
4	Nonet	93	93	579	8	0	0	453916	691	0	correct_rejection	NA	0
4	Nonet	94	94	580	7	0	0	454624	692	0	correct_rejection	NA	0
4	Nonet	95	95	581	9	0	0	455333	692	0	correct_rejection	NA	0
4	Nonet	96	96	582	8	0	0	456041	692	0	correct_rejection	NA	0
4	Nonet	97	97	583	7	0	0	456750	692	0	correct_rejection	NA	0
4	Nonet	98	98	584	9	0	0	457459	691	0	correct_rejection	NA	0
4	Nonet	99	99	585	8	0	0	458167	692	0	correct_rejection	NA	0
4	Nonet	100	100	586	7	0	0	458876	691	0	correct_rejection	NA	0
4	Nonet	101	101	587	7	0	0	459584	692	0	correct_rejection	NA	0
4	Nonet	102	102	588	0	1	1	460293	692	1	hit	530	0
4	Nonet	103	103	589	8	0	0	461001	692	0	correct_rejection	NA	0
4	Nonet	104	104	590	9	0	0	461710	692	0	correct_rejection	NA	0
4	Nonet	105	105	591	7	0	0	462419	691	0	correct_rejection	NA	0
4	Nonet	106	106	592	8	0	0	463127	692	0	correct_rejection	NA	0
4	Nonet	107	107	593	9	0	0	463836	691	0	correct_rejection	NA	0
4	Nonet	108	108	594	7	0	0	464544	692	0	correct_rejection	NA	0
4	Nonet	109	109	595	8	0	0	465253	692	0	correct_rejection	NA	0
4	Nonet	110	110	596	9	0	0	465961	692	0	correct_rejection	NA	0
4	Nonet	111	111	597	6	0	0	466670	692	0	correct_rejection	NA	0
4	Nonet	112	112	598	5	0	0	467379	691	0	correct_rejection	NA	0
4	Nonet	113	113	599	0	1	1	468087	692	1	hit	521	0
4	Nonet	114	114	600	4	0	0	468796	691	0	correct_rejection	NA	0
4	Nonet	115	115	601	6	0	0	469504	692	0	correct_rejection	NA	0
4	Nonet	116	116	602	5	0	0	470213	692	0	correct_rejection	NA	0
4	Nonet	117	117	603	4	0	0	470921	692	0	correct_rejection	NA	0
4	Nonet	118	118	604	0	1	2	471630	692	1	hit	561	0
4	Nonet	119	119	605	6	0	0	472339	691	0	correct_rejection	NA	0
4	Nonet	120	120	606	5	0	0	473047	692	0	correct_rejection	NA	0
4	Nonet	121	121	607	4	0	0	473756	691	0	correct_rejection	NA	0
4	Nonet	122	122	608	4	0	0	474464	692	0	correct_rejection	NA	0
4	Nonet	123	123	609	5	0	0	475173	691	0	correct_rejection	NA	0
4	Nonet	124	124	610	6	0	0	475881	692	0	correct_rejection	NA	0
4	Nonet	125	125	611	4	0	0	476590	692	0	correct_rejection	NA	0
4	Nonet	126	126	612	5	0	0	477298	692	0	correct_rejection	NA	0
4	Nonet	127	127	613	0	1	1	478007	692	1	hit	592	0
4	Nonet	128	128	614	6	0	0	478716	691	0	correct_rejection	NA	0
4	Nonet	129	129	615	4	0	0	479424	692	0	correct_rejection	NA	0
4	Nonet	130	130	616	0	1	1	480133	691	1	hit	413	0
4	Nonet	131	131	617	5	0	0	480841	692	0	correct_rejection	NA	0
4	Nonet	132	132	618	6	0	0	481550	692	0	correct_rejection	NA	0
4	Nonet	133	133	619	6	0	0	482258	692	0	correct_rejection	NA	0
4	Nonet	134	134	620	5	0	0	482967	692	0	correct_rejection	NA	0
4	Nonet	135	135	621	4	0	0	483676	691	0	correct_rejection	NA	0
4	Nonet	136	136	622	6	0	0	484384	692	0	correct_rejection	NA	0
4	Nonet	137	137	623	5	0	0	485093	691	0	correct_rejection	NA	0
4	Nonet	138	138	624	4	0	0	485801	692	0	correct_rejection	NA	0
4	Nonet	139	139	625	6	0	0	486510	692	0	correct_rejection	NA	0
4	Nonet	140	140	626	5	0	0	487218	692	0	correct_rejection	NA	0
4	Nonet	141	141	627	4	0	0	487927	692	0	correct_rejection	NA	0
4	Nonet	142	142	628	7	0	0	488636	691	0	correct_rejection	NA	0
4	Nonet	143	143	629	8	0	0	489344	692	0	correct_rejection	NA	0
4	Nonet	144	144	630	0	1	1	490053	691	0	miss	NA	0
4	Nonet	145	145	631	9	0	0	490761	692	0	correct_rejection	NA	0
4	Nonet	146	146	632	7	0	0	491470	692	0	correct_rejection	NA	0
4	Nonet	147	147	633	8	0	0	492178	692	0	correct_rejection	NA	0
4	Nonet	148	148	634	9	0	0	492887	692	0	correct_rejection	NA	0
4	Nonet	149	149	635	0	1	2	493596	691	1	hit	427	0
4	Nonet	150	150	636	7	0	0	494304	692	0	correct_rejection	NA	0
4	Nonet	151	151	637	8	0	0	495013	691	0	correct_rejection	NA	0
4	Nonet	152	152	638	9	0	0	495721	692	0	correct_rejection	NA	0
4	Nonet	153	153	639	7	0	0	496430	691	0	correct_rejection	NA	0
4	Nonet	154	154	640	8	0	0	497138	692	0	correct_rejection	NA	0
4	Nonet	155	155	641	9	0	0	497847	692	0	correct_rejection	NA	0
4	Nonet	156	156	642	7	0	0	498555	692	0	correct_rejection	NA	0
4	Nonet	157	157	643	8	0	0	499264	692	0	correct_rejection	NA	0
4	Nonet	158	158	644	9	0	0	499973	691	0	correct_rejection	NA	0
4	Nonet	159	159	645	0	1	2	500681	692	1	hit	346	0
4	Nonet	160	160	646	7	0	0	501390	691	0	correct_rejection	NA	0
4	Nonet	161	161	647	8	0	0	502098	692	0	correct_rejection	NA	0
4	Nonet	162	162	648	9	0	0	502807	692	0	correct_rejection	NA	0
4	Single	1	649	649	8	0	0	512618	692	0	correct_rejection	NA	7329
4	Single	2	650	650	9	0	0	513327	692	0	correct_rejection	NA	0
4	Single	3	651	651	8	0	0	514036	691	0	correct_rejection	NA	0
4	Single	4	652	652	5	0	0	514744	692	0	correct_rejection	NA	0
4	Single	5	653	653	4	0	0	515453	691	0	correct_rejection	NA	0
4	Single	6	654	654	4	0	0	516161	692	0	correct_rejection	NA	0
4	Single	7	655	655	9	0	0	516870	692	0	correct_rejection	NA	0
4	Single	8	656	656	9	0	0	517578	692	0	correct_rejection	NA	0
4	Single	9	657	657	4	0	0	518287	692	0	correct_rejection	NA	0
4	Single	10	658	658	7	0	0	518996	691	0	correct_rejection	NA	0
4	Single	11	659	659	4	0	0	519704	692	0	correct_rejection	NA	0
4	Single	12	660	660	5	0	0	520413	691	0	correct_rejection	NA	0
4	Single	13	661	661	7	0	0	521121	692	0	correct_rejection	NA	0
4	Single	14	662	662	6	0	0	521830	692	0	correct_rejection	NA	0
4	Single	15	663	663	8	0	0	522538	692	0	correct_rejection	NA	0
4	Single	16	664	664	7	0	0	523247	692	0	correct_rejection	NA	0
4	Single	17	665	665	5	0	0	523956	691	0	correct_rejection	NA	0
4	Single	18	666	666	5	0	0	524664	692	0	correct_rejection	NA	0
4	Single	19	667	667	9	0	0	525373	691	0	correct_rejection	NA	0
4	Single	20	668	668	5	0	0	526081	692	0	correct_rejection	NA	0
4	Single	21	669	669	0	1	1	526790	691	1	hit	482	0
4	Single	22	670	670	8	0	0	527498	692	0	correct_rejection	NA	0
4	Single	23	671	671	6	0	0	528207	692	0	correct_rejection	NA	0
4	Single	24	672	672	5	0	0	528915	692	0	correct_rejection	NA	0
4	Single	25	673	673	6	0	0	529624	692	0	correct_rejection	NA	0
4	Single	26	674	674	6	0	0	530333	691	0	correct_rejection	NA	0
4	Single	27	675	675	7	0	0	531041	692	0	correct_rejection	NA	0
4	Single	28	676	676	9	0	0	531750	691	0	correct_rejection	NA	0
4	Single	29	677	677	6	0	0	532458	692	0	correct_rejection	NA	0
4	Single	30	678	678	9	0	0	533167	692	0	correct_rejection	NA	0
4	Single	31	679	679	7	0	0	533875	692	0	correct_rejection	NA	0
4	Single	32	680	680	7	0	0	534584	692	0	correct_rejection	NA	0
4	Single	33	681	681	0	1	1	535293	691	1	hit	353	0
4	Single	34	682	682	8	0	0	536001	692	0	correct_rejection	NA	0
4	Single	35	683	683	8	0	0	536710	691	0	correct_rejection	NA	0
4	Single	36	684	684	4	0	0	537418	692	0	correct_rejection	NA	0
4	Single	37	685	685	6	0	0	538127	692	0	correct_rejection	NA	0
4	Single	38	686	686	4	0	0	538835	692	0	correct_rejection	NA	0
4	Single	39	687	687	7	0	0	539544	692	0	correct_rejection	NA	0
4	Single	40	688	688	9	0	0	540253	691	0	correct_rejection	NA	0
4	Single	41	689	689	5	0	0	540961	692	0	correct_rejection	NA	0
4	Single	42	690	690	9	0	0	541670	691	0	correct_rejection	NA	0
4	Single	43	691	691	4	0	0	542378	692	0	correct_rejection	NA	0
4	Single	44	692	692	8	0	0	543087	692	0	correct_rejection	NA	0
4	Single	45	693	693	4	0	0	543795	692	0	correct_rejection	NA	0
4	Single	46	694	694	9	0	0	544504	692	0	correct_rejection	NA	0
4	Single	47	695	695	7	0	0	545213	691	0	correct_rejection	NA	0
4	Single	48	696	696	8	0	0	545921	692	0	correct_rejection	NA	0
4	Single	49	697	697	9	0	0	546630	691	0	correct_rejection	NA	0
4	Single	50	698	698	6	0	0	547338	692	0	correct_rejection	NA	0
4	Single	51	699	699	8	0	0	548047	691	0	correct_rejection	NA	0
4	Single	52	700	700	8	0	0	548755	692	0	correct_rejection	NA	0
4	Single	53	701	701	5	0	0	549464	692	0	correct_rejection	NA	0
4	Single	54	702	702	8	0	0	550173	691	0	correct_rejection	NA	0
4	Single	55	703	703	7	0	0	550881	692	0	correct_rejection	NA	0
4	Single	56	704	704	7	0	0	551590	691	0	correct_rejection	NA	0
4	Single	57	705	705	4	0	0	552298	692	0	correct_rejection	NA	0
4	Single	58	706	706	0	1	1	553007	691	0	miss	NA	0
4	Single	59	707	707	4	0	0	553715	692	0	correct_rejection	NA	0
4	Single	60	708	708	6	0	0	554424	692	0	correct_rejection	NA	0
4	Single	61	709	709	5	0	0	555132	692	0	correct_rejection	NA	0
4	Single	62	710	710	4	0	0	555841	692	0	correct_rejection	NA	0
4	Single	63	711	711	7	0	0	556550	691	0	correct_rejection	NA	0
4	Single	64	712	712	6	0	0	557258	692	0	correct_rejection	NA	0
4	Single	65	713	713	6	0	0	557967	691	0	correct_rejection	NA	0
4	Single	66	714	714	9	0	0	558675	692	0	correct_rejection	NA	0
4	Single	67	715	715	0	1	1	559384	692	1	hit	645	0
4	Single	68	716	716	9	0	0	560092	692	0	correct_rejection	NA	0
4	Single	69	717	717	8	0	0	560801	692	0	correct_rejection	NA	0
4	Single	70	718	718	0	1	1	561510	691	0	miss	NA	0
4	Single	71	719	719	6	0	0	562218	692	1	false_alarm	72	0
4	Single	72	720	720	4	0	0	562927	691	0	correct_rejection	NA	0
4	Single	73	721	721	5	0	0	563635	692	0	correct_rejection	NA	0
4	Single	74	722	722	5	0	0	564344	692	0	correct_rejection	NA	0
4	Single	75	723	723	0	1	1	565052	692	1	hit	359	0
4	Single	76	724	724	6	0	0	565761	692	0	correct_rejection	NA	0
4	Single	77	725	725	7	0	0	566470	691	0	correct_rejection	NA	0
4	Single	78	726	726	0	1	1	567178	692	1	hit	386	0
4	Single	79	727	727	5	0	0	567887	691	0	correct_rejection	NA	0
4	Single	80	728	728	5	0	0	568595	692	0	correct_rejection	NA	0
4	Single	81	729	729	4	0	0	569304	692	0	correct_rejection	NA	0
4	Single	82	730	730	0	1	1	570012	692	1	hit	378	0
4	Single	83	731	731	9	0	0	570721	692	0	correct_rejection	NA	0
4	Single	84	732	732	5	0	0	571430	691	0	correct_rejection	NA	0
4	Single	85	733	733	6	0	0	572138	692	0	correct_rejection	NA	0
4	Single	86	734	734	4	0	0	572847	691	0	correct_rejection	NA	0
4	Single	87	735	735	0	1	1	573555	692	1	hit	375	0
4	Single	88	736	736	7	0	0	574264	691	0	correct_rejection	NA	0
4	Single	89	737	737	9	0	0	574972	692	0	correct_rejection	NA	0
4	Single	90	738	738	8	0	0	575681	692	0	correct_rejection	NA	0
4	Single	91	739	739	8	0	0	576389	692	0	correct_rejection	NA	0
4	Single	92	740	740	7	0	0	577098	692	0	correct_rejection	NA	0
4	Single	93	741	741	8	0	0	577807	691	0	correct_rejection	NA	0
4	Single	94	742	742	0	1	1	578515	692	1	hit	402	0
4	Single	95	743	743	4	0	0	579224	691	0	correct_rejection	NA	0
4	Single	96	744	744	8	0	0	579932	692	0	correct_rejection	NA	0
4	Single	97	745	745	5	0	0	580641	692	0	correct_rejection	NA	0
4	Single	98	746	746	5	0	0	581349	692	0	correct_rejection	NA	0
4	Single	99	747	747	8	0	0	582058	692	0	correct_rejection	NA	0
4	Single	100	748	748	9	0	0	582767	691	0	correct_rejection	NA	0
4	Single	101	749	749	4	0	0	583475	692	0	correct_rejection	NA	0
4	Single	102	750	750	4	0	0	584184	691	0	correct_rejection	NA	0
4	Single	103	751	751	0	1	1	584892	692	0	miss	NA	0
4	Single	104	752	752	5	0	0	585601	692	0	correct_rejection	NA	0
4	Single	105	753	753	9	0	0	586309	692	0	correct_rejection	NA	0
4	Single	106	754	754	9	0	0	587018	692	0	correct_rejection	NA	0
4	Single	107	755	755	7	0	0	587727	691	0	correct_rejection	NA	0
4	Single	108	756	756	6	0	0	588435	692	0	correct_rejection	NA	0
4	Single	109	757	757	7	0	0	589144	691	0	correct_rejection	NA	0
4	Single	110	758	758	7	0	0	589852	692	0	correct_rejection	NA	0
4	Single	111	759	759	5	0	0	590561	692	0	correct_rejection	NA	0
4	Single	112	760	760	0	1	1	591269	692	0	miss	NA	0
4	Single	113	761	761	7	0	0	591978	692	0	correct_rejection	NA	0
4	Single	114	762	762	4	0	0	592687	691	0	correct_rejection	NA	0
4	Single	115	763	763	6	0	0	593395	692	0	correct_rejection	NA	0
4	Single	116	764	764	9	0	0	594104	691	0	correct_rejection	NA	0
4	Single	117	765	765	6	0	0	594812	692	0	correct_rejection	NA	0
4	Single	118	766	766	6	0	0	595521	691	0	correct_rejection	NA	0
4	Single	119	767	767	8	0	0	596229	692	0	correct_rejection	NA	0
4	Single	120	768	768	6	0	0	596938	692	0	correct_rejection	NA	0
4	Single	121	769	769	0	1	1	597646	692	0	miss	NA	0
4	Single	122	770	770	7	0	0	598355	692	0	correct_rejection	NA	0
4	Single	123	771	771	7	0	0	599064	691	0	correct_rejection	NA	0
4	Single	124	772	772	8	0	0	599772	692	0	correct_rejection	NA	0
4	Single	125	773	773	7	0	0	600481	691	0	correct_rejection	NA	0
4	Single	126	774	774	6	0	0	601189	692	0	correct_rejection	NA	0
4	Single	127	775	775	9	0	0	601898	692	0	correct_rejection	NA	0
4	Single	128	776	776	7	0	0	602606	692	0	correct_rejection	NA	0
4	Single	129	777	777	0	1	1	603315	692	0	miss	NA	0
4	Single	130	778	778	4	0	0	604024	691	0	correct_rejection	NA	0
4	Single	131	779	779	9	0	0	604732	692	0	correct_rejection	NA	0
4	Single	132	780	780	6	0	0	605441	691	0	correct_rejection	NA	0
4	Single	133	781	781	5	0	0	606149	692	0	correct_rejection	NA	0
4	Single	134	782	782	6	0	0	606858	692	0	correct_rejection	NA	0
4	Single	135	783	783	0	1	1	607566	692	1	hit	424	0
4	Single	136	784	784	6	0	0	608275	692	0	correct_rejection	NA	0
4	Single	137	785	785	7	0	0	608984	691	0	correct_rejection	NA	0
4	Single	138	786	786	9	0	0	609692	692	0	correct_rejection	NA	0
4	Single	139	787	787	9	0	0	610401	691	0	correct_rejection	NA	0
4	Single	140	788	788	4	0	0	611109	692	0	correct_rejection	NA	0
4	Single	141	789	789	5	0	0	611818	692	0	correct_rejection	NA	0
4	Single	142	790	790	8	0	0	612526	692	0	correct_rejection	NA	0
4	Single	143	791	791	6	0	0	613235	692	0	correct_rejection	NA	0
4	Single	144	792	792	8	0	0	613944	691	0	correct_rejection	NA	0
4	Single	145	793	793	9	0	0	614652	692	0	correct_rejection	NA	0
4	Single	146	794	794	5	0	0	615361	691	0	correct_rejection	NA	0
4	Single	147	795	795	7	0	0	616069	692	0	correct_rejection	NA	0
4	Single	148	796	796	5	0	0	616778	691	0	correct_rejection	NA	0
4	Single	149	797	797	5	0	0	617486	692	0	correct_rejection	NA	0
4	Single	150	798	798	9	0	0	618195	692	0	correct_rejection	NA	0
4	Single	151	799	799	8	0	0	618903	692	0	correct_rejection	NA	0
4	Single	152	800	800	0	1	1	619612	692	1	hit	631	0
4	Single	153	801	801	5	0	0	620321	691	0	correct_rejection	NA	0
4	Single	154	802	802	4	0	0	621029	692	0	correct_rejection	NA	0
4	Single	155	803	803	6	0	0	621738	691	0	correct_rejection	NA	0
4	Single	156	804	804	0	1	1	622446	692	0	miss	NA	0
4	Single	157	805	805	4	0	0	623155	692	0	correct_rejection	NA	0
4	Single	158	806	806	4	0	0	623863	692	0	correct_rejection	NA	0
4	Single	159	807	807	8	0	0	624572	692	0	correct_rejection	NA	0
4	Single	160	808	808	0	1	1	625281	691	1	hit	420	0
4	Single	161	809	809	8	0	0	625989	692	0	correct_rejection	NA	0
4	Single	162	810	810	4	0	0	626698	691	0	correct_rejection	NA	0
trigger nr 619 at 629252
trigger nr 624 at 713923
4	Correct	1	487	811	4	0	0	721671	691	0	correct_rejection	NA	7709
4	Correct	2	488	812	5	0	0	722379	692	0	correct_rejection	NA	0
4	Correct	3	489	813	6	0	0	723088	692	0	correct_rejection	NA	0
4	Correct	4	490	814	4	0	0	723796	692	0	correct_rejection	NA	0
4	Correct	5	491	815	0	1	1	724505	692	1	hit	334	0
4	Correct	6	492	816	5	0	0	725214	691	0	correct_rejection	NA	0
4	Correct	7	493	817	6	0	0	725922	692	0	correct_rejection	NA	0
4	Correct	8	494	818	0	1	2	726631	691	1	hit	417	0
4	Correct	9	495	819	4	0	0	727339	692	0	correct_rejection	NA	0
4	Correct	10	496	820	5	0	0	728048	692	0	correct_rejection	NA	0
4	Correct	11	497	821	6	0	0	728756	692	0	correct_rejection	NA	0
4	Correct	12	498	822	6	0	0	729465	692	0	correct_rejection	NA	0
4	Correct	13	499	823	5	0	0	730174	691	0	correct_rejection	NA	0
4	Correct	14	500	824	4	0	0	730882	692	0	correct_rejection	NA	0
4	Correct	15	501	825	0	1	2	731591	691	1	hit	292	0
4	Correct	16	502	826	6	0	0	732299	692	0	correct_rejection	NA	0
4	Correct	17	503	827	5	0	0	733008	691	0	correct_rejection	NA	0
4	Correct	18	504	828	4	0	0	733716	692	0	correct_rejection	NA	0
4	Correct	19	505	829	6	0	0	734425	692	1	false_alarm	248	0
4	Correct	20	506	830	0	1	1	735133	692	1	hit	483	0
4	Correct	21	507	831	5	0	0	735842	692	0	correct_rejection	NA	0
4	Correct	22	508	832	4	0	0	736551	691	0	correct_rejection	NA	0
4	Correct	23	509	833	9	0	0	737259	692	0	correct_rejection	NA	0
4	Correct	24	510	834	8	0	0	737968	691	0	correct_rejection	NA	0
4	Correct	25	511	835	7	0	0	738676	692	0	correct_rejection	NA	0
4	Correct	26	512	836	9	0	0	739385	692	0	correct_rejection	NA	0
4	Correct	27	513	837	0	1	1	740093	692	1	hit	426	0
4	Correct	28	514	838	8	0	0	740802	692	0	correct_rejection	NA	0
4	Correct	29	515	839	7	0	0	741511	691	0	correct_rejection	NA	0
4	Correct	30	516	840	9	0	0	742219	692	0	correct_rejection	NA	0
4	Correct	31	517	841	8	0	0	742928	691	0	correct_rejection	NA	0
4	Correct	32	518	842	0	1	1	743636	692	1	hit	374	0
4	Correct	33	519	843	7	0	0	744345	692	0	correct_rejection	NA	0
4	Correct	34	520	844	7	0	0	745053	692	0	correct_rejection	NA	0
4	Correct	35	521	845	8	0	0	745762	692	0	correct_rejection	NA	0
4	Correct	36	522	846	9	0	0	746471	691	0	correct_rejection	NA	0
4	Correct	37	523	847	7	0	0	747179	692	0	correct_rejection	NA	0
4	Correct	38	524	848	8	0	0	747888	691	0	correct_rejection	NA	0
4	Correct	39	525	849	9	0	0	748596	692	0	correct_rejection	NA	0
4	Correct	40	526	850	7	0	0	749305	692	0	correct_rejection	NA	0
4	Correct	41	527	851	8	0	0	750013	692	0	correct_rejection	NA	0
4	Correct	42	528	852	9	0	0	750722	692	0	correct_rejection	NA	0
4	Correct	43	529	853	4	0	0	751431	691	0	correct_rejection	NA	0
4	Correct	44	530	854	5	0	0	752139	692	0	correct_rejection	NA	0
4	Correct	45	531	855	6	0	0	752848	691	0	correct_rejection	NA	0
4	Correct	46	532	856	4	0	0	753556	692	1	false_alarm	414	0
4	Correct	47	533	857	5	0	0	754265	691	0	correct_rejection	NA	0
4	Correct	48	534	858	6	0	0	754973	692	0	correct_rejection	NA	0
4	Correct	49	535	859	4	0	0	755682	692	0	correct_rejection	NA	0
4	Correct	50	536	860	5	0	0	756390	692	0	correct_rejection	NA	0
4	Correct	51	537	861	0	1	1	757099	692	1	hit	404	0
4	Correct	52	538	862	6	0	0	757808	691	0	correct_rejection	NA	0
4	Correct	53	539	863	6	0	0	758516	692	0	correct_rejection	NA	0
4	Correct	54	540	864	5	0	0	759225	691	0	correct_rejection	NA	0
4	Correct	55	541	865	4	0	0	759933	692	0	correct_rejection	NA	0
4	Correct	56	542	866	6	0	0	760642	692	0	correct_rejection	NA	0
4	Correct	57	543	867	5	0	0	761350	692	0	correct_rejection	NA	0
4	Correct	58	544	868	4	0	0	762059	692	0	correct_rejection	NA	0
4	Correct	59	545	869	0	1	2	762768	691	1	hit	522	0
4	Correct	60	546	870	6	0	0	763476	692	0	correct_rejection	NA	0
4	Correct	61	547	871	5	0	0	764185	691	0	correct_rejection	NA	0
4	Correct	62	548	872	0	1	1	764893	692	1	hit	449	0
4	Correct	63	549	873	4	0	0	765602	692	0	correct_rejection	NA	0
4	Correct	64	550	874	9	0	0	766310	692	0	correct_rejection	NA	0
4	Correct	65	551	875	0	1	1	767019	692	1	hit	411	0
4	Correct	66	552	876	8	0	0	767728	691	0	correct_rejection	NA	0
4	Correct	67	553	877	7	0	0	768436	692	0	correct_rejection	NA	0
4	Correct	68	554	878	9	0	0	769145	691	0	correct_rejection	NA	0
4	Correct	69	555	879	8	0	0	769853	692	0	correct_rejection	NA	0
4	Correct	70	556	880	0	1	1	770562	692	1	hit	380	0
4	Correct	71	557	881	7	0	0	771270	692	0	correct_rejection	NA	0
4	Correct	72	558	882	9	0	0	771979	692	0	correct_rejection	NA	0
4	Correct	73	559	883	8	0	0	772688	691	0	correct_rejection	NA	0
4	Correct	74	560	884	7	0	0	773396	692	0	correct_rejection	NA	0
4	Correct	75	561	885	7	0	0	774105	691	0	correct_rejection	NA	0
4	Correct	76	562	886	8	0	0	774813	692	0	correct_rejection	NA	0
4	Correct	77	563	887	9	0	0	775522	691	0	correct_rejection	NA	0
4	Correct	78	564	888	7	0	0	776230	692	0	correct_rejection	NA	0
4	Correct	79	565	889	8	0	0	776939	692	0	correct_rejection	NA	0
4	Correct	80	566	890	9	0	0	777647	692	0	correct_rejection	NA	0
4	Correct	81	567	891	7	0	0	778356	692	0	correct_rejection	NA	0
4	Correct	82	568	892	8	0	0	779065	691	0	correct_rejection	NA	0
4	Correct	83	569	893	9	0	0	779773	692	0	correct_rejection	NA	0
4	Correct	84	570	894	4	0	0	780482	691	0	correct_rejection	NA	0
4	Correct	85	571	895	5	0	0	781190	692	0	correct_rejection	NA	0
4	Correct	86	572	896	6	0	0	781899	692	0	correct_rejection	NA	0
4	Correct	87	573	897	4	0	0	782607	692	0	correct_rejection	NA	0
4	Correct	88	574	898	5	0	0	783316	692	0	correct_rejection	NA	0
4	Correct	89	575	899	0	1	1	784025	691	1	hit	601	0
4	Correct	90	576	900	6	0	0	784733	692	0	correct_rejection	NA	0
4	Correct	91	577	901	4	0	0	785442	691	0	correct_rejection	NA	0
4	Correct	92	578	902	5	0	0	786150	692	0	correct_rejection	NA	0
4	Correct	93	579	903	6	0	0	786859	692	0	correct_rejection	NA	0
4	Correct	94	580	904	6	0	0	787567	692	0	correct_rejection	NA	0
4	Correct	95	581	905	0	1	1	788276	692	0	miss	NA	0
4	Correct	96	582	906	5	0	0	788985	691	1	false_alarm	137	0
4	Correct	97	583	907	4	0	0	789693	692	0	correct_rejection	NA	0
4	Correct	98	584	908	6	0	0	790402	691	0	correct_rejection	NA	0
4	Correct	99	585	909	5	0	0	791110	692	0	correct_rejection	NA	0
4	Correct	100	586	910	4	0	0	791819	692	0	correct_rejection	NA	0
4	Correct	101	587	911	6	0	0	792527	692	0	correct_rejection	NA	0
4	Correct	102	588	912	5	0	0	793236	692	0	correct_rejection	NA	0
4	Correct	103	589	913	4	0	0	793945	691	0	correct_rejection	NA	0
4	Correct	104	590	914	9	0	0	794653	692	0	correct_rejection	NA	0
4	Correct	105	591	915	8	0	0	795362	691	0	correct_rejection	NA	0
4	Correct	106	592	916	7	0	0	796070	692	0	correct_rejection	NA	0
4	Correct	107	593	917	9	0	0	796779	691	0	correct_rejection	NA	0
4	Correct	108	594	918	8	0	0	797487	692	0	correct_rejection	NA	0
4	Correct	109	595	919	7	0	0	798196	692	0	correct_rejection	NA	0
4	Correct	110	596	920	9	0	0	798904	692	0	correct_rejection	NA	0
4	Correct	111	597	921	8	0	0	799613	692	0	correct_rejection	NA	0
4	Correct	112	598	922	7	0	0	800322	691	0	correct_rejection	NA	0
4	Correct	113	599	923	7	0	0	801030	692	0	correct_rejection	NA	0
4	Correct	114	600	924	8	0	0	801739	691	0	correct_rejection	NA	0
4	Correct	115	601	925	0	1	1	802447	692	1	hit	368	0
4	Correct	116	602	926	9	0	0	803156	692	0	correct_rejection	NA	0
4	Correct	117	603	927	7	0	0	803864	692	0	correct_rejection	NA	0
4	Correct	118	604	928	8	0	0	804573	692	0	correct_rejection	NA	0
4	Correct	119	605	929	9	0	0	805282	691	0	correct_rejection	NA	0
4	Correct	120	606	930	7	0	0	805990	692	0	correct_rejection	NA	0
4	Correct	121	607	931	8	0	0	806699	691	0	correct_rejection	NA	0
4	Correct	122	608	932	9	0	0	807407	692	0	correct_rejection	NA	0
4	Correct	123	609	933	0	1	4	808116	692	1	hit	404	0
4	Correct	124	610	934	4	0	0	808824	692	0	correct_rejection	NA	0
4	Correct	125	611	935	5	0	0	809533	692	0	correct_rejection	NA	0
4	Correct	126	612	936	6	0	0	810242	691	0	correct_rejection	NA	0
4	Correct	127	613	937	4	0	0	810950	692	0	correct_rejection	NA	0
4	Correct	128	614	938	5	0	0	811659	691	1	false_alarm	400	0
4	Correct	129	615	939	6	0	0	812367	692	0	correct_rejection	NA	0
4	Correct	130	616	940	0	1	2	813076	692	1	hit	513	0
4	Correct	131	617	941	4	0	0	813784	692	0	correct_rejection	NA	0
4	Correct	132	618	942	5	0	0	814493	692	0	correct_rejection	NA	0
4	Correct	133	619	943	6	0	0	815202	691	0	correct_rejection	NA	0
4	Correct	134	620	944	6	0	0	815910	692	0	correct_rejection	NA	0
4	Correct	135	621	945	5	0	0	816619	691	0	correct_rejection	NA	0
4	Correct	136	622	946	4	0	0	817327	692	0	correct_rejection	NA	0
4	Correct	137	623	947	6	0	0	818036	692	0	correct_rejection	NA	0
4	Correct	138	624	948	5	0	0	818744	692	0	correct_rejection	NA	0
4	Correct	139	625	949	0	1	1	819453	692	1	hit	356	0
4	Correct	140	626	950	4	0	0	820162	691	0	correct_rejection	NA	0
4	Correct	141	627	951	6	0	0	820870	692	0	correct_rejection	NA	0
4	Correct	142	628	952	5	0	0	821579	691	0	correct_rejection	NA	0
4	Correct	143	629	953	4	0	0	822287	692	0	correct_rejection	NA	0
4	Correct	144	630	954	0	1	3	822996	691	1	hit	574	0
4	Correct	145	631	955	9	0	0	823704	692	0	correct_rejection	NA	0
4	Correct	146	632	956	8	0	0	824413	692	0	correct_rejection	NA	0
4	Correct	147	633	957	7	0	0	825121	692	0	correct_rejection	NA	0
4	Correct	148	634	958	9	0	0	825830	692	0	correct_rejection	NA	0
4	Correct	149	635	959	8	0	0	826539	691	0	correct_rejection	NA	0
4	Correct	150	636	960	7	0	0	827247	692	0	correct_rejection	NA	0
4	Correct	151	637	961	9	0	0	827956	691	0	correct_rejection	NA	0
4	Correct	152	638	962	8	0	0	828664	692	0	correct_rejection	NA	0
4	Correct	153	639	963	7	0	0	829373	692	0	correct_rejection	NA	0
4	Correct	154	640	964	7	0	0	830081	692	0	correct_rejection	NA	0
4	Correct	155	641	965	8	0	0	830790	692	0	correct_rejection	NA	0
4	Correct	156	642	966	9	0	0	831499	691	0	correct_rejection	NA	0
4	Correct	157	643	967	7	0	0	832207	692	0	correct_rejection	NA	0
4	Correct	158	644	968	8	0	0	832916	691	0	correct_rejection	NA	0
4	Correct	159	645	969	9	0	0	833624	692	0	correct_rejection	NA	0
4	Correct	160	646	970	7	0	0	834333	692	0	correct_rejection	NA	0
4	Correct	161	647	971	8	0	0	835041	692	0	correct_rejection	NA	0
4	Correct	162	648	972	9	0	0	835750	692	0	correct_rejection	NA	0
4	Nonet	1	487	973	7	0	0	845578	692	0	correct_rejection	NA	7618
4	Nonet	2	488	974	8	0	0	846287	691	0	correct_rejection	NA	0
4	Nonet	3	489	975	9	0	0	846995	692	0	correct_rejection	NA	0
4	Nonet	4	490	976	0	1	2	847704	692	0	miss	NA	0
4	Nonet	5	491	977	7	0	0	848412	692	0	correct_rejection	NA	0
4	Nonet	6	492	978	8	0	0	849121	692	0	correct_rejection	NA	0
4	Nonet	7	493	979	9	0	0	849830	691	0	correct_rejection	NA	0
4	Nonet	8	494	980	7	0	0	850538	692	0	correct_rejection	NA	0
4	Nonet	9	495	981	8	0	0	851247	691	0	correct_rejection	NA	0
4	Nonet	10	496	982	9	0	0	851955	692	0	correct_rejection	NA	0
4	Nonet	11	497	983	7	0	0	852664	692	0	correct_rejection	NA	0
4	Nonet	12	498	984	8	0	0	853372	692	0	correct_rejection	NA	0
4	Nonet	13	499	985	0	1	1	854081	692	1	hit	363	0
4	Nonet	14	500	986	9	0	0	854790	691	0	correct_rejection	NA	0
4	Nonet	15	501	987	7	0	0	855498	692	0	correct_rejection	NA	0
4	Nonet	16	502	988	0	1	1	856207	691	1	hit	428	0
4	Nonet	17	503	989	8	0	0	856915	692	0	correct_rejection	NA	0
4	Nonet	18	504	990	9	0	0	857624	692	0	correct_rejection	NA	0
4	Nonet	19	505	991	7	0	0	858332	692	0	correct_rejection	NA	0
4	Nonet	20	506	992	8	0	0	859041	692	0	correct_rejection	NA	0
4	Nonet	21	507	993	9	0	0	859750	691	0	correct_rejection	NA	0
4	Nonet	22	508	994	9	0	0	860458	692	0	correct_rejection	NA	0
4	Nonet	23	509	995	8	0	0	861167	691	0	correct_rejection	NA	0
4	Nonet	24	510	996	7	0	0	861875	692	0	correct_rejection	NA	0
4	Nonet	25	511	997	9	0	0	862584	692	0	correct_rejection	NA	0
4	Nonet	26	512	998	8	0	0	863292	692	0	correct_rejection	NA	0
4	Nonet	27	513	999	7	0	0	864001	692	0	correct_rejection	NA	0
4	Nonet	28	514	1000	9	0	0	864710	691	0	correct_rejection	NA	0
4	Nonet	29	515	1001	0	1	1	865418	692	1	hit	480	0
4	Nonet	30	516	1002	8	0	0	866127	691	0	correct_rejection	NA	0
4	Nonet	31	517	1003	7	0	0	866835	692	0	correct_rejection	NA	0
4	Nonet	32	518	1004	9	0	0	867544	691	0	correct_rejection	NA	0
4	Nonet	33	519	1005	8	0	0	868252	692	0	correct_rejection	NA	0
4	Nonet	34	520	1006	7	0	0	868961	692	0	correct_rejection	NA	0
4	Nonet	35	521	1007	9	0	0	869669	692	0	correct_rejection	NA	0
4	Nonet	36	522	1008	0	1	1	870378	692	0	miss	NA	0
4	Nonet	37	523	1009	8	0	0	871087	691	1	false_alarm	232	0
4	Nonet	38	524	1010	7	0	0	871795	692	0	correct_rejection	NA	0
4	Nonet	39	525	1011	9	0	0	872504	691	0	correct_rejection	NA	0
4	Nonet	40	526	1012	8	0	0	873212	692	0	correct_rejection	NA	0
4	Nonet	41	527	1013	7	0	0	873921	692	0	correct_rejection	NA	0
4	Nonet	42	528	1014	4	0	0	874629	692	0	correct_rejection	NA	0
4	Nonet	43	529	1015	5	0	0	875338	692	0	correct_rejection	NA	0
4	Nonet	44	530	1016	6	0	0	876047	691	0	correct_rejection	NA	0
4	Nonet	45	531	1017	4	0	0	876755	692	0	correct_rejection	NA	0
4	Nonet	46	532	1018	5	0	0	877464	691	0	correct_rejection	NA	0
4	Nonet	47	533	1019	0	1	1	878172	692	1	hit	352	0
4	Nonet	48	534	1020	6	0	0	878881	692	0	correct_rejection	NA	0
4	Nonet	49	535	1021	4	0	0	879589	692	0	correct_rejection	NA	0
4	Nonet	50	536	1022	5	0	0	880298	692	0	correct_rejection	NA	0
4	Nonet	51	537	1023	6	0	0	881007	691	0	correct_rejection	NA	0
4	Nonet	52	538	1024	6	0	0	881715	692	0	correct_rejection	NA	0
4	Nonet	53	539	1025	5	0	0	882424	691	0	correct_rejection	NA	0
4	Nonet	54	540	1026	4	0	0	883132	692	0	correct_rejection	NA	0
4	Nonet	55	541	1027	6	0	0	883841	692	0	correct_rejection	NA	0
4	Nonet	56	542	1028	5	0	0	884549	692	0	correct_rejection	NA	0
4	Nonet	57	543	1029	4	0	0	885258	692	0	correct_rejection	NA	0
4	Nonet	58	544	1030	6	0	0	885967	691	0	correct_rejection	NA	0
4	Nonet	59	545	1031	5	0	0	886675	692	0	correct_rejection	NA	0
4	Nonet	60	546	1032	4	0	0	887384	691	0	correct_rejection	NA	0
4	Nonet	61	547	1033	4	0	0	888092	692	0	correct_rejection	NA	0
4	Nonet	62	548	1034	5	0	0	888801	691	0	correct_rejection	NA	0
4	Nonet	63	549	1035	6	0	0	889509	692	0	correct_rejection	NA	0
4	Nonet	64	550	1036	4	0	0	890218	692	0	correct_rejection	NA	0
4	Nonet	65	551	1037	5	0	0	890926	692	0	correct_rejection	NA	0
4	Nonet	66	552	1038	6	0	0	891635	692	0	correct_rejection	NA	0
4	Nonet	67	553	1039	0	1	2	892344	691	0	miss	NA	0
4	Nonet	68	554	1040	4	0	0	893052	692	0	correct_rejection	NA	0
4	Nonet	69	555	1041	5	0	0	893761	691	0	correct_rejection	NA	0
4	Nonet	70	556	1042	6	0	0	894469	692	0	correct_rejection	NA	0
4	Nonet	71	557	1043	7	0	0	895178	692	0	correct_rejection	NA	0
4	Nonet	72	558	1044	8	0	0	895886	692	0	correct_rejection	NA	0
4	Nonet	73	559	1045	9	0	0	896595	692	0	correct_rejection	NA	0
4	Nonet	74	560	1046	7	0	0	897304	691	0	correct_rejection	NA	0
4	Nonet	75	561	1047	8	0	0	898012	692	0	correct_rejection	NA	0
4	Nonet	76	562	1048	9	0	0	898721	691	0	correct_rejection	NA	0
4	Nonet	77	563	1049	7	0	0	899429	692	0	correct_rejection	NA	0
4	Nonet	78	564	1050	8	0	0	900138	692	0	correct_rejection	NA	0
4	Nonet	79	565	1051	9	0	0	900846	692	0	correct_rejection	NA	0
4	Nonet	80	566	1052	6	0	0	901555	692	0	correct_rejection	NA	0
4	Nonet	81	567	1053	5	0	0	902264	691	0	correct_rejection	NA	0
4	Nonet	82	568	1054	0	1	1	902972	692	1	hit	396	0
4	Nonet	83	569	1055	4	0	0	903681	691	0	correct_rejection	NA	0
4	Nonet	84	570	1056	6	0	0	904389	692	0	correct_rejection	NA	0
4	Nonet	85	571	1057	5	0	0	905098	692	0	correct_rejection	NA	0
4	Nonet	86	572	1058	4	0	0	905806	692	0	correct_rejection	NA	0
4	Nonet	87	573	1059	0	1	2	906515	692	1	hit	451	0
4	Nonet	88	574	1060	6	0	0	907224	691	0	correct_rejection	NA	0
4	Nonet	89	575	1061	5	0	0	907932	692	0	correct_rejection	NA	0
4	Nonet	90	576	1062	4	0	0	908641	691	0	correct_rejection	NA	0
4	Nonet	91	577	1063	9	0	0	909349	692	0	correct_rejection	NA	0
4	Nonet	92	578	1064	8	0	0	910058	691	0	correct_rejection	NA	0
4	Nonet	93	579	1065	7	0	0	910766	692	0	correct_rejection	NA	0
4	Nonet	94	580	1066	9	0	0	911475	692	0	correct_rejection	NA	0
4	Nonet	95	581	1067	8	0	0	912184	691	0	correct_rejection	NA	0
4	Nonet	96	582	1068	7	0	0	912892	692	0	correct_rejection	NA	0
4	Nonet	97	583	1069	0	1	2	913601	691	1	hit	434	0
4	Nonet	98	584	1070	9	0	0	914309	692	0	correct_rejection	NA	0
4	Nonet	99	585	1071	8	0	0	915018	691	0	correct_rejection	NA	0
4	Nonet	100	586	1072	7	0	0	915726	692	0	correct_rejection	NA	0
4	Nonet	101	587	1073	6	0	0	916435	692	0	correct_rejection	NA	0
4	Nonet	102	588	1074	5	0	0	917143	692	0	correct_rejection	NA	0
4	Nonet	103	589	1075	0	1	1	917852	692	1	hit	382	0
4	Nonet	104	590	1076	4	0	0	918561	691	0	correct_rejection	NA	0
4	Nonet	105	591	1077	6	0	0	919269	692	0	correct_rejection	NA	0
4	Nonet	106	592	1078	5	0	0	919978	691	0	correct_rejection	NA	0
4	Nonet	107	593	1079	4	0	0	920686	692	0	correct_rejection	NA	0
4	Nonet	108	594	1080	6	0	0	921395	692	0	correct_rejection	NA	0
4	Nonet	109	595	1081	5	0	0	922103	692	0	correct_rejection	NA	0
4	Nonet	110	596	1082	4	0	0	922812	692	0	correct_rejection	NA	0
4	Nonet	111	597	1083	6	0	0	923521	691	0	correct_rejection	NA	0
4	Nonet	112	598	1084	5	0	0	924229	692	0	correct_rejection	NA	0
4	Nonet	113	599	1085	4	0	0	924938	691	0	correct_rejection	NA	0
4	Nonet	114	600	1086	6	0	0	925646	692	0	correct_rejection	NA	0
4	Nonet	115	601	1087	5	0	0	926355	692	0	correct_rejection	NA	0
4	Nonet	116	602	1088	4	0	0	927063	692	0	correct_rejection	NA	0
4	Nonet	117	603	1089	6	0	0	927772	692	0	correct_rejection	NA	0
4	Nonet	118	604	1090	0	1	1	928481	691	0	miss	NA	0
4	Nonet	119	605	1091	5	0	0	929189	692	0	correct_rejection	NA	0
4	Nonet	120	606	1092	4	0	0	929898	691	0	correct_rejection	NA	0
4	Nonet	121	607	1093	7	0	0	930606	692	0	correct_rejection	NA	0
4	Nonet	122	608	1094	8	0	0	931315	692	0	correct_rejection	NA	0
4	Nonet	123	609	1095	0	1	1	932023	692	0	miss	NA	0
4	Nonet	124	610	1096	9	0	0	932732	692	0	correct_rejection	NA	0
4	Nonet	125	611	1097	7	0	0	933441	691	0	correct_rejection	NA	0
4	Nonet	126	612	1098	0	1	1	934149	692	1	hit	322	0
4	Nonet	127	613	1099	8	0	0	934858	691	0	correct_rejection	NA	0
4	Nonet	128	614	1100	9	0	0	935566	692	0	correct_rejection	NA	0
4	Nonet	129	615	1101	0	1	2	936275	691	1	hit	468	0
4	Nonet	130	616	1102	7	0	0	936983	692	0	correct_rejection	NA	0
4	Nonet	131	617	1103	8	0	0	937692	692	0	correct_rejection	NA	0
4	Nonet	132	618	1104	9	0	0	938400	692	0	correct_rejection	NA	0
4	Nonet	133	619	1105	4	0	0	939109	692	0	correct_rejection	NA	0
4	Nonet	134	620	1106	5	0	0	939818	691	0	correct_rejection	NA	0
4	Nonet	135	621	1107	6	0	0	940526	692	0	correct_rejection	NA	0
4	Nonet	136	622	1108	4	0	0	941235	691	0	correct_rejection	NA	0
4	Nonet	137	623	1109	5	0	0	941943	692	0	correct_rejection	NA	0
4	Nonet	138	624	1110	6	0	0	942652	692	0	correct_rejection	NA	0
4	Nonet	139	625	1111	4	0	0	943360	692	0	correct_rejection	NA	0
4	Nonet	140	626	1112	5	0	0	944069	692	0	correct_rejection	NA	0
4	Nonet	141	627	1113	6	0	0	944778	691	0	correct_rejection	NA	0
4	Nonet	142	628	1114	4	0	0	945486	692	0	correct_rejection	NA	0
4	Nonet	143	629	1115	5	0	0	946195	691	0	correct_rejection	NA	0
4	Nonet	144	630	1116	6	0	0	946903	692	0	correct_rejection	NA	0
4	Nonet	145	631	1117	4	0	0	947612	692	0	correct_rejection	NA	0
4	Nonet	146	632	1118	0	1	1	948320	692	1	hit	422	0
4	Nonet	147	633	1119	5	0	0	949029	692	0	correct_rejection	NA	0
4	Nonet	148	634	1120	6	0	0	949738	691	0	correct_rejection	NA	0
4	Nonet	149	635	1121	0	1	2	950446	692	1	hit	483	0
4	Nonet	150	636	1122	4	0	0	951155	691	0	correct_rejection	NA	0
4	Nonet	151	637	1123	5	0	0	951863	692	0	correct_rejection	NA	0
4	Nonet	152	638	1124	6	0	0	952572	692	0	correct_rejection	NA	0
4	Nonet	153	639	1125	9	0	0	953280	692	0	correct_rejection	NA	0
4	Nonet	154	640	1126	8	0	0	953989	692	0	correct_rejection	NA	0
4	Nonet	155	641	1127	7	0	0	954698	691	0	correct_rejection	NA	0
4	Nonet	156	642	1128	9	0	0	955406	692	0	correct_rejection	NA	0
4	Nonet	157	643	1129	8	0	0	956115	691	0	correct_rejection	NA	0
4	Nonet	158	644	1130	7	0	0	956823	692	0	correct_rejection	NA	0
4	Nonet	159	645	1131	9	0	0	957532	691	0	correct_rejection	NA	0
4	Nonet	160	646	1132	8	0	0	958240	692	0	correct_rejection	NA	0
4	Nonet	161	647	1133	0	1	1	958949	692	0	miss	NA	0
4	Nonet	162	648	1134	7	0	0	959657	692	0	correct_rejection	NA	0
4	Triplet	1	649	1135	4	0	0	969677	692	0	correct_rejection	NA	7719
4	Triplet	2	650	1136	5	0	0	970386	692	0	correct_rejection	NA	0
4	Triplet	3	651	1137	6	0	0	971095	691	0	correct_rejection	NA	0
4	Triplet	4	652	1138	6	0	0	971803	692	0	correct_rejection	NA	0
4	Triplet	5	653	1139	5	0	0	972512	691	0	correct_rejection	NA	0
4	Triplet	6	654	1140	4	0	0	973220	692	0	correct_rejection	NA	0
4	Triplet	7	655	1141	4	0	0	973929	692	0	correct_rejection	NA	0
4	Triplet	8	656	1142	5	0	0	974637	692	0	correct_rejection	NA	0
4	Triplet	9	657	1143	6	0	0	975346	692	0	correct_rejection	NA	0
4	Triplet	10	658	1144	9	0	0	976055	691	0	correct_rejection	NA	0
4	Triplet	11	659	1145	0	1	1	976763	692	0	miss	NA	0
4	Triplet	12	660	1146	8	0	0	977472	691	1	false_alarm	21	0
4	Triplet	13	661	1147	7	0	0	978180	692	0	correct_rejection	NA	0
4	Triplet	14	662	1148	6	0	0	978889	692	0	correct_rejection	NA	0
4	Triplet	15	663	1149	0	1	1	979597	692	1	hit	506	0
4	Triplet	16	664	1150	5	0	0	980306	692	0	correct_rejection	NA	0
4	Triplet	17	665	1151	4	0	0	981015	691	0	correct_rejection	NA	0
4	Triplet	18	666	1152	6	0	0	981723	692	0	correct_rejection	NA	0
4	Triplet	19	667	1153	5	0	0	982432	691	0	correct_rejection	NA	0
4	Triplet	20	668	1154	4	0	0	983140	692	0	correct_rejection	NA	0
4	Triplet	21	669	1155	7	0	0	983849	691	0	correct_rejection	NA	0
4	Triplet	22	670	1156	8	0	0	984557	692	0	correct_rejection	NA	0
4	Triplet	23	671	1157	9	0	0	985266	692	0	correct_rejection	NA	0
4	Triplet	24	672	1158	6	0	0	985974	692	0	correct_rejection	NA	0
4	Triplet	25	673	1159	0	1	1	986683	692	0	miss	NA	0
4	Triplet	26	674	1160	5	0	0	987392	691	0	correct_rejection	NA	0
4	Triplet	27	675	1161	4	0	0	988100	692	0	correct_rejection	NA	0
4	Triplet	28	676	1162	9	0	0	988809	691	0	correct_rejection	NA	0
4	Triplet	29	677	1163	8	0	0	989517	692	0	correct_rejection	NA	0
4	Triplet	30	678	1164	7	0	0	990226	692	0	correct_rejection	NA	0
4	Triplet	31	679	1165	7	0	0	990934	692	0	correct_rejection	NA	0
4	Triplet	32	680	1166	8	0	0	991643	692	0	correct_rejection	NA	0
4	Triplet	33	681	1167	9	0	0	992352	691	0	correct_rejection	NA	0
4	Triplet	34	682	1168	4	0	0	993060	692	0	correct_rejection	NA	0
4	Triplet	35	683	1169	5	0	0	993769	691	0	correct_rejection	NA	0
4	Triplet	36	684	1170	6	0	0	994477	692	0	correct_rejection	NA	0
4	Triplet	37	685	1171	4	0	0	995186	692	0	correct_rejection	NA	0
4	Triplet	38	686	1172	5	0	0	995894	692	0	correct_rejection	NA	0
4	Triplet	39	687	1173	0	1	1	996603	692	0	miss	NA	0
4	Triplet	40	688	1174	6	0	0	997312	691	0	correct_rejection	NA	0
4	Triplet	41	689	1175	7	0	0	998020	692	0	correct_rejection	NA	0
4	Triplet	42	690	1176	8	0	0	998729	691	0	correct_rejection	NA	0
4	Triplet	43	691	1177	9	0	0	999437	692	0	correct_rejection	NA	0
4	Triplet	44	692	1178	7	0	0	1000146	692	0	correct_rejection	NA	0
4	Triplet	45	693	1179	8	0	0	1000854	692	0	correct_rejection	NA	0
4	Triplet	46	694	1180	9	0	0	1001563	692	0	correct_rejection	NA	0
4	Triplet	47	695	1181	9	0	0	1002272	691	0	correct_rejection	NA	0
4	Triplet	48	696	1182	8	0	0	1002980	692	0	correct_rejection	NA	0
4	Triplet	49	697	1183	0	1	1	1003689	691	1	hit	296	0
4	Triplet	50	698	1184	7	0	0	1004397	692	0	correct_rejection	NA	0
4	Triplet	51	699	1185	9	0	0	1005106	691	0	correct_rejection	NA	0
4	Triplet	52	700	1186	8	0	0	1005814	692	0	correct_rejection	NA	0
4	Triplet	53	701	1187	7	0	0	1006523	692	0	correct_rejection	NA	0
4	Triplet	54	702	1188	7	0	0	1007232	691	0	correct_rejection	NA	0
4	Triplet	55	703	1189	0	1	1	1007940	692	1	hit	410	0
4	Triplet	56	704	1190	8	0	0	1008649	691	0	correct_rejection	NA	0
4	Triplet	57	705	1191	9	0	0	1009357	692	0	correct_rejection	NA	0
4	Triplet	58	706	1192	7	0	0	1010066	691	0	correct_rejection	NA	0
4	Triplet	59	707	1193	8	0	0	1010774	692	0	correct_rejection	NA	0
4	Triplet	60	708	1194	0	1	1	1011483	692	1	hit	340	0
4	Triplet	61	709	1195	9	0	0	1012191	692	0	correct_rejection	NA	0
4	Triplet	62	710	1196	6	0	0	1012900	692	0	correct_rejection	NA	0
4	Triplet	63	711	1197	5	0	0	1013609	691	0	correct_rejection	NA	0
4	Triplet	64	712	1198	4	0	0	1014317	692	0	correct_rejection	NA	0
4	Triplet	65	713	1199	6	0	0	1015026	691	0	correct_rejection	NA	0
4	Triplet	66	714	1200	5	0	0	1015734	692	0	correct_rejection	NA	0
4	Triplet	67	715	1201	4	0	0	1016443	692	0	correct_rejection	NA	0
4	Triplet	68	716	1202	0	1	2	1017151	692	1	hit	480	0
4	Triplet	69	717	1203	4	0	0	1017860	692	0	correct_rejection	NA	0
4	Triplet	70	718	1204	5	0	0	1018569	691	0	correct_rejection	NA	0
4	Triplet	71	719	1205	6	0	0	1019277	692	0	correct_rejection	NA	0
4	Triplet	72	720	1206	4	0	0	1019986	691	0	correct_rejection	NA	0
4	Triplet	73	721	1207	5	0	0	1020694	692	0	correct_rejection	NA	0
4	Triplet	74	722	1208	6	0	0	1021403	692	0	correct_rejection	NA	0
4	Triplet	75	723	1209	6	0	0	1022111	692	0	correct_rejection	NA	0
4	Triplet	76	724	1210	5	0	0	1022820	692	0	correct_rejection	NA	0
4	Triplet	77	725	1211	0	1	1	1023529	691	1	hit	339	0
4	Triplet	78	726	1212	4	0	0	1024237	692	0	correct_rejection	NA	0
4	Triplet	79	727	1213	7	0	0	1024946	691	0	correct_rejection	NA	0
4	Triplet	80	728	1214	8	0	0	1025654	692	0	correct_rejection	NA	0
4	Triplet	81	729	1215	9	0	0	1026363	692	0	correct_rejection	NA	0
4	Triplet	82	730	1216	4	0	0	1027071	692	0	correct_rejection	NA	0
4	Triplet	83	731	1217	5	0	0	1027780	692	0	correct_rejection	NA	0
4	Triplet	84	732	1218	6	0	0	1028489	691	0	correct_rejection	NA	0
4	Triplet	85	733	1219	9	0	0	1029197	692	0	correct_rejection	NA	0
4	Triplet	86	734	1220	8	0	0	1029906	691	0	correct_rejection	NA	0
4	Triplet	87	735	1221	7	0	0	1030614	692	0	correct_rejection	NA	0
4	Triplet	88	736	1222	9	0	0	1031323	691	0	correct_rejection	NA	0
4	Triplet	89	737	1223	8	0	0	1032031	692	0	correct_rejection	NA	0
4	Triplet	90	738	1224	7	0	0	1032740	692	0	correct_rejection	NA	0
4	Triplet	91	739	1225	7	0	0	1033448	692	0	correct_rejection	NA	0
4	Triplet	92	740	1226	8	0	0	1034157	692	0	correct_rejection	NA	0
4	Triplet	93	741	1227	9	0	0	1034866	691	0	correct_rejection	NA	0
4	Triplet	94	742	1228	9	0	0	1035574	692	0	correct_rejection	NA	0
4	Triplet	95	743	1229	8	0	0	1036283	691	0	correct_rejection	NA	0
4	Triplet	96	744	1230	7	0	0	1036991	692	0	correct_rejection	NA	0
4	Triplet	97	745	1231	6	0	0	1037700	692	0	correct_rejection	NA	0
4	Triplet	98	746	1232	5	0	0	1038408	692	0	correct_rejection	NA	0
4	Triplet	99	747	1233	4	0	0	1039117	692	0	correct_rejection	NA	0
4	Triplet	100	748	1234	9	0	0	1039826	691	0	correct_rejection	NA	0
4	Triplet	101	749	1235	8	0	0	1040534	692	0	correct_rejection	NA	0
4	Triplet	102	750	1236	0	1	1	1041243	691	1	hit	463	0
4	Triplet	103	751	1237	7	0	0	1041951	692	0	correct_rejection	NA	0
4	Triplet	104	752	1238	4	0	0	1042660	692	0	correct_rejection	NA	0
4	Triplet	105	753	1239	5	0	0	1043368	692	0	correct_rejection	NA	0
4	Triplet	106	754	1240	6	0	0	1044077	692	0	correct_rejection	NA	0
4	Triplet	107	755	1241	7	0	0	1044786	691	0	correct_rejection	NA	0
4	Triplet	108	756	1242	8	0	0	1045494	692	0	correct_rejection	NA	0
4	Triplet	109	757	1243	9	0	0	1046203	691	0	correct_rejection	NA	0
4	Triplet	110	758	1244	0	1	2	1046911	692	0	miss	NA	0
4	Triplet	111	759	1245	9	0	0	1047620	692	0	correct_rejection	NA	0
4	Triplet	112	760	1246	8	0	0	1048328	692	0	correct_rejection	NA	0
4	Triplet	113	761	1247	7	0	0	1049037	692	0	correct_rejection	NA	0
4	Triplet	114	762	1248	4	0	0	1049746	691	0	correct_rejection	NA	0
4	Triplet	115	763	1249	5	0	0	1050454	692	0	correct_rejection	NA	0
4	Triplet	116	764	1250	6	0	0	1051163	691	0	correct_rejection	NA	0
4	Triplet	117	765	1251	0	1	2	1051871	692	1	hit	469	0
4	Triplet	118	766	1252	4	0	0	1052580	691	0	correct_rejection	NA	0
4	Triplet	119	767	1253	5	0	0	1053288	692	0	correct_rejection	NA	0
4	Triplet	120	768	1254	6	0	0	1053997	692	0	correct_rejection	NA	0
4	Triplet	121	769	1255	9	0	0	1054705	692	0	correct_rejection	NA	0
4	Triplet	122	770	1256	8	0	0	1055414	692	0	correct_rejection	NA	0
4	Triplet	123	771	1257	0	1	1	1056123	691	1	hit	332	0
4	Triplet	124	772	1258	7	0	0	1056831	692	0	correct_rejection	NA	0
4	Triplet	125	773	1259	7	0	0	1057540	691	0	correct_rejection	NA	0
4	Triplet	126	774	1260	8	0	0	1058248	692	0	correct_rejection	NA	0
4	Triplet	127	775	1261	9	0	0	1058957	692	0	correct_rejection	NA	0
4	Triplet	128	776	1262	0	1	2	1059665	692	1	hit	375	0
4	Triplet	129	777	1263	6	0	0	1060374	692	0	correct_rejection	NA	0
4	Triplet	130	778	1264	5	0	0	1061083	691	0	correct_rejection	NA	0
4	Triplet	131	779	1265	4	0	0	1061791	692	0	correct_rejection	NA	0
4	Triplet	132	780	1266	7	0	0	1062500	691	0	correct_rejection	NA	0
4	Triplet	133	781	1267	8	0	0	1063208	692	0	correct_rejection	NA	0
4	Triplet	134	782	1268	9	0	0	1063917	692	0	correct_rejection	NA	0
4	Triplet	135	783	1269	7	0	0	1064625	692	0	correct_rejection	NA	0
4	Triplet	136	784	1270	8	0	0	1065334	692	0	correct_rejection	NA	0
4	Triplet	137	785	1271	9	0	0	1066043	691	0	correct_rejection	NA	0
4	Triplet	138	786	1272	4	0	0	1066751	692	0	correct_rejection	NA	0
4	Triplet	139	787	1273	0	1	1	1067460	691	1	hit	415	0
4	Triplet	140	788	1274	5	0	0	1068168	692	0	correct_rejection	NA	0
4	Triplet	141	789	1275	6	0	0	1068877	692	0	correct_rejection	NA	0
4	Triplet	142	790	1276	0	1	2	1069585	692	1	hit	471	0
4	Triplet	143	791	1277	6	0	0	1070294	692	0	correct_rejection	NA	0
4	Triplet	144	792	1278	5	0	0	1071003	691	0	correct_rejection	NA	0
4	Triplet	145	793	1279	4	0	0	1071711	692	0	correct_rejection	NA	0
4	Triplet	146	794	1280	6	0	0	1072420	691	0	correct_rejection	NA	0
4	Triplet	147	795	1281	5	0	0	1073128	692	0	correct_rejection	NA	0
4	Triplet	148	796	1282	4	0	0	1073837	691	0	correct_rejection	NA	0
4	Triplet	149	797	1283	0	1	2	1074545	692	1	hit	381	0
4	Triplet	150	798	1284	9	0	0	1075254	692	0	correct_rejection	NA	0
4	Triplet	151	799	1285	8	0	0	1075962	692	0	correct_rejection	NA	0
4	Triplet	152	800	1286	7	0	0	1076671	692	0	correct_rejection	NA	0
4	Triplet	153	801	1287	0	1	2	1077380	691	1	hit	442	0
4	Triplet	154	802	1288	9	0	0	1078088	692	0	correct_rejection	NA	0
4	Triplet	155	803	1289	8	0	0	1078797	691	0	correct_rejection	NA	0
4	Triplet	156	804	1290	7	0	0	1079505	692	0	correct_rejection	NA	0
4	Triplet	157	805	1291	6	0	0	1080214	692	0	correct_rejection	NA	0
4	Triplet	158	806	1292	5	0	0	1080922	692	0	correct_rejection	NA	0
4	Triplet	159	807	1293	4	0	0	1081631	692	0	correct_rejection	NA	0
4	Triplet	160	808	1294	4	0	0	1082340	691	0	correct_rejection	NA	0
4	Triplet	161	809	1295	5	0	0	1083048	692	0	correct_rejection	NA	0
4	Triplet	162	810	1296	6	0	0	1083757	691	0	correct_rejection	NA	0
4	Correct	1	325	1297	4	0	0	1093752	691	0	correct_rejection	NA	7799
4	Correct	2	326	1298	5	0	0	1094460	692	0	correct_rejection	NA	0
4	Correct	3	327	1299	6	0	0	1095169	692	0	correct_rejection	NA	0
4	Correct	4	328	1300	4	0	0	1095877	692	0	correct_rejection	NA	0
4	Correct	5	329	1301	5	0	0	1096586	692	0	correct_rejection	NA	0
4	Correct	6	330	1302	6	0	0	1097295	691	0	correct_rejection	NA	0
4	Correct	7	331	1303	4	0	0	1098003	692	0	correct_rejection	NA	0
4	Correct	8	332	1304	5	0	0	1098712	691	0	correct_rejection	NA	0
4	Correct	9	333	1305	6	0	0	1099420	692	0	correct_rejection	NA	0
4	Correct	10	334	1306	0	1	3	1100129	691	1	hit	420	0
4	Correct	11	335	1307	6	0	0	1100837	692	0	correct_rejection	NA	0
4	Correct	12	336	1308	5	0	0	1101546	692	0	correct_rejection	NA	0
4	Correct	13	337	1309	4	0	0	1102254	692	0	correct_rejection	NA	0
4	Correct	14	338	1310	6	0	0	1102963	692	0	correct_rejection	NA	0
4	Correct	15	339	1311	5	0	0	1103672	691	0	correct_rejection	NA	0
4	Correct	16	340	1312	4	0	0	1104380	692	0	correct_rejection	NA	0
4	Correct	17	341	1313	6	0	0	1105089	691	0	correct_rejection	NA	0
4	Correct	18	342	1314	0	1	1	1105797	692	1	hit	397	0
4	Correct	19	343	1315	5	0	0	1106506	692	0	correct_rejection	NA	0
4	Correct	20	344	1316	4	0	0	1107214	692	0	correct_rejection	NA	0
4	Correct	21	345	1317	9	0	0	1107923	692	0	correct_rejection	NA	0
4	Correct	22	346	1318	8	0	0	1108632	691	0	correct_rejection	NA	0
4	Correct	23	347	1319	7	0	0	1109340	692	0	correct_rejection	NA	0
4	Correct	24	348	1320	0	1	2	1110049	691	0	miss	NA	0
4	Correct	25	349	1321	9	0	0	1110757	692	0	correct_rejection	NA	0
4	Correct	26	350	1322	8	0	0	1111466	692	0	correct_rejection	NA	0
4	Correct	27	351	1323	7	0	0	1112174	692	0	correct_rejection	NA	0
4	Correct	28	352	1324	9	0	0	1112883	692	0	correct_rejection	NA	0
4	Correct	29	353	1325	8	0	0	1113592	691	0	correct_rejection	NA	0
4	Correct	30	354	1326	7	0	0	1114300	692	0	correct_rejection	NA	0
4	Correct	31	355	1327	7	0	0	1115009	691	0	correct_rejection	NA	0
4	Correct	32	356	1328	8	0	0	1115717	692	0	correct_rejection	NA	0
4	Correct	33	357	1329	9	0	0	1116426	692	0	correct_rejection	NA	0
4	Correct	34	358	1330	7	0	0	1117134	692	0	correct_rejection	NA	0
4	Correct	35	359	1331	8	0	0	1117843	692	0	correct_rejection	NA	0
4	Correct	36	360	1332	9	0	0	1118552	691	0	correct_rejection	NA	0
4	Correct	37	361	1333	7	0	0	1119260	692	0	correct_rejection	NA	0
4	Correct	38	362	1334	0	1	1	1119969	691	0	miss	NA	0
4	Correct	39	363	1335	8	0	0	1120677	692	0	correct_rejection	NA	0
4	Correct	40	364	1336	9	0	0	1121386	691	0	correct_rejection	NA	0
4	Correct	41	365	1337	4	0	0	1122094	692	0	correct_rejection	NA	0
4	Correct	42	366	1338	5	0	0	1122803	692	0	correct_rejection	NA	0
4	Correct	43	367	1339	6	0	0	1123512	691	0	correct_rejection	NA	0
4	Correct	44	368	1340	4	0	0	1124220	692	0	correct_rejection	NA	0
4	Correct	45	369	1341	5	0	0	1124929	691	0	correct_rejection	NA	0
4	Correct	46	370	1342	6	0	0	1125637	692	0	correct_rejection	NA	0
4	Correct	47	371	1343	4	0	0	1126346	691	0	correct_rejection	NA	0
4	Correct	48	372	1344	0	1	1	1127054	692	1	hit	301	0
4	Correct	49	373	1345	5	0	0	1127763	692	0	correct_rejection	NA	0
4	Correct	50	374	1346	6	0	0	1128471	692	0	correct_rejection	NA	0
4	Correct	51	375	1347	6	0	0	1129180	692	0	correct_rejection	NA	0
4	Correct	52	376	1348	5	0	0	1129889	691	0	correct_rejection	NA	0
4	Correct	53	377	1349	4	0	0	1130597	692	0	correct_rejection	NA	0
4	Correct	54	378	1350	6	0	0	1131306	691	0	correct_rejection	NA	0
4	Correct	55	379	1351	5	0	0	1132014	692	0	correct_rejection	NA	0
4	Correct	56	380	1352	4	0	0	1132723	692	0	correct_rejection	NA	0
4	Correct	57	381	1353	6	0	0	1133431	692	0	correct_rejection	NA	0
4	Correct	58	382	1354	5	0	0	1134140	692	0	correct_rejection	NA	0
4	Correct	59	383	1355	4	0	0	1134849	691	0	correct_rejection	NA	0
4	Correct	60	384	1356	9	0	0	1135557	692	0	correct_rejection	NA	0
4	Correct	61	385	1357	8	0	0	1136266	691	0	correct_rejection	NA	0
4	Correct	62	386	1358	7	0	0	1136974	692	0	correct_rejection	NA	0
4	Correct	63	387	1359	9	0	0	1137683	692	0	correct_rejection	NA	0
4	Correct	64	388	1360	8	0	0	1138391	692	0	correct_rejection	NA	0
4	Correct	65	389	1361	0	1	1	1139100	692	1	hit	327	0
4	Correct	66	390	1362	7	0	0	1139809	691	0	correct_rejection	NA	0
4	Correct	67	391	1363	9	0	0	1140517	692	0	correct_rejection	NA	0
4	Correct	68	392	1364	8	0	0	1141226	691	0	correct_rejection	NA	0
4	Correct	69	393	1365	7	0	0	1141934	692	0	correct_rejection	NA	0
4	Correct	70	394	1366	7	0	0	1142643	691	0	correct_rejection	NA	0
4	Correct	71	395	1367	8	0	0	1143351	692	0	correct_rejection	NA	0
4	Correct	72	396	1368	9	0	0	1144060	692	0	correct_rejection	NA	0
4	Correct	73	397	1369	0	1	2	1144769	691	1	hit	301	0
4	Correct	74	398	1370	7	0	0	1145477	692	0	correct_rejection	NA	0
4	Correct	75	399	1371	8	0	0	1146186	691	0	correct_rejection	NA	0
4	Correct	76	400	1372	0	1	1	1146894	692	1	hit	375	0
4	Correct	77	401	1373	9	0	0	1147603	691	0	correct_rejection	NA	0
4	Correct	78	402	1374	7	0	0	1148311	692	0	correct_rejection	NA	0
4	Correct	79	403	1375	8	0	0	1149020	692	0	correct_rejection	NA	0
4	Correct	80	404	1376	0	1	1	1149728	692	1	hit	318	0
4	Correct	81	405	1377	9	0	0	1150437	692	0	correct_rejection	NA	0
4	Correct	82	406	1378	4	0	0	1151146	691	0	correct_rejection	NA	0
4	Correct	83	407	1379	5	0	0	1151854	692	0	correct_rejection	NA	0
4	Correct	84	408	1380	0	1	1	1152563	691	1	hit	314	0
4	Correct	85	409	1381	6	0	0	1153271	692	0	correct_rejection	NA	0
4	Correct	86	410	1382	4	0	0	1153980	692	0	correct_rejection	NA	0
4	Correct	87	411	1383	5	0	0	1154688	692	0	correct_rejection	NA	0
4	Correct	88	412	1384	6	0	0	1155397	692	0	correct_rejection	NA	0
4	Correct	89	413	1385	4	0	0	1156106	691	0	correct_rejection	NA	0
4	Correct	90	414	1386	5	0	0	1156814	692	0	correct_rejection	NA	0
4	Correct	91	415	1387	6	0	0	1157523	691	0	correct_rejection	NA	0
4	Correct	92	416	1388	6	0	0	1158231	692	0	correct_rejection	NA	0
4	Correct	93	417	1389	5	0	0	1158940	692	0	correct_rejection	NA	0
4	Correct	94	418	1390	4	0	0	1159648	692	0	correct_rejection	NA	0
4	Correct	95	419	1391	6	0	0	1160357	692	0	correct_rejection	NA	0
4	Correct	96	420	1392	5	0	0	1161066	691	0	correct_rejection	NA	0
4	Correct	97	421	1393	4	0	0	1161774	692	0	correct_rejection	NA	0
4	Correct	98	422	1394	6	0	0	1162483	691	0	correct_rejection	NA	0
4	Correct	99	423	1395	5	0	0	1163191	692	0	correct_rejection	NA	0
4	Correct	100	424	1396	4	0	0	1163900	692	0	correct_rejection	NA	0
4	Correct	101	425	1397	9	0	0	1164608	692	0	correct_rejection	NA	0
4	Correct	102	426	1398	8	0	0	1165317	692	0	correct_rejection	NA	0
4	Correct	103	427	1399	7	0	0	1166026	691	0	correct_rejection	NA	0
4	Correct	104	428	1400	0	1	2	1166734	692	0	miss	NA	0
4	Correct	105	429	1401	9	0	0	1167443	691	1	false_alarm	0	0
4	Correct	106	430	1402	8	0	0	1168151	692	0	correct_rejection	NA	0
4	Correct	107	431	1403	7	0	0	1168860	691	0	correct_rejection	NA	0
4	Correct	108	432	1404	9	0	0	1169568	692	0	correct_rejection	NA	0
4	Correct	109	433	1405	8	0	0	1170277	692	0	correct_rejection	NA	0
4	Correct	110	434	1406	7	0	0	1170985	692	0	correct_rejection	NA	0
4	Correct	111	435	1407	0	1	3	1171694	692	1	hit	351	0
4	Correct	112	436	1408	7	0	0	1172403	691	0	correct_rejection	NA	0
4	Correct	113	437	1409	8	0	0	1173111	692	0	correct_rejection	NA	0
4	Correct	114	438	1410	9	0	0	1173820	691	0	correct_rejection	NA	0
4	Correct	115	439	1411	7	0	0	1174528	692	0	correct_rejection	NA	0
4	Correct	116	440	1412	0	1	1	1175237	692	1	hit	298	0
4	Correct	117	441	1413	8	0	0	1175945	692	0	correct_rejection	NA	0
4	Correct	118	442	1414	9	0	0	1176654	692	0	correct_rejection	NA	0
4	Correct	119	443	1415	7	0	0	1177363	691	0	correct_rejection	NA	0
4	Correct	120	444	1416	0	1	1	1178071	692	1	hit	344	0
4	Correct	121	445	1417	8	0	0	1178780	691	0	correct_rejection	NA	0
4	Correct	122	446	1418	9	0	0	1179488	692	0	correct_rejection	NA	0
4	Correct	123	447	1419	4	0	0	1180197	692	0	correct_rejection	NA	0
4	Correct	124	448	1420	5	0	0	1180905	692	0	correct_rejection	NA	0
4	Correct	125	449	1421	6	0	0	1181614	692	0	correct_rejection	NA	0
4	Correct	126	450	1422	4	0	0	1182323	691	0	correct_rejection	NA	0
4	Correct	127	451	1423	0	1	1	1183031	692	1	hit	392	0
4	Correct	128	452	1424	5	0	0	1183740	691	0	correct_rejection	NA	0
4	Correct	129	453	1425	6	0	0	1184448	692	0	correct_rejection	NA	0
4	Correct	130	454	1426	4	0	0	1185157	692	0	correct_rejection	NA	0
4	Correct	131	455	1427	5	0	0	1185865	692	0	correct_rejection	NA	0
4	Correct	132	456	1428	6	0	0	1186574	692	0	correct_rejection	NA	0
4	Correct	133	457	1429	6	0	0	1187283	691	0	correct_rejection	NA	0
4	Correct	134	458	1430	5	0	0	1187991	692	0	correct_rejection	NA	0
4	Correct	135	459	1431	0	1	1	1188700	691	1	hit	353	0
4	Correct	136	460	1432	4	0	0	1189408	692	0	correct_rejection	NA	0
4	Correct	137	461	1433	6	0	0	1190117	691	0	correct_rejection	NA	0
4	Correct	138	462	1434	5	0	0	1190825	692	0	correct_rejection	NA	0
4	Correct	139	463	1435	4	0	0	1191534	692	0	correct_rejection	NA	0
4	Correct	140	464	1436	6	0	0	1192242	692	0	correct_rejection	NA	0
4	Correct	141	465	1437	5	0	0	1192951	692	0	correct_rejection	NA	0
4	Correct	142	466	1438	4	0	0	1193660	691	0	correct_rejection	NA	0
4	Correct	143	467	1439	9	0	0	1194368	692	0	correct_rejection	NA	0
4	Correct	144	468	1440	8	0	0	1195077	691	0	correct_rejection	NA	0
4	Correct	145	469	1441	7	0	0	1195785	692	0	correct_rejection	NA	0
4	Correct	146	470	1442	9	0	0	1196494	692	0	correct_rejection	NA	0
4	Correct	147	471	1443	0	1	1	1197202	692	1	hit	347	0
4	Correct	148	472	1444	8	0	0	1197911	692	0	correct_rejection	NA	0
4	Correct	149	473	1445	7	0	0	1198620	691	0	correct_rejection	NA	0
4	Correct	150	474	1446	9	0	0	1199328	692	0	correct_rejection	NA	0
4	Correct	151	475	1447	8	0	0	1200037	691	0	correct_rejection	NA	0
4	Correct	152	476	1448	7	0	0	1200745	692	0	correct_rejection	NA	0
4	Correct	153	477	1449	7	0	0	1201454	692	0	correct_rejection	NA	0
4	Correct	154	478	1450	8	0	0	1202162	692	0	correct_rejection	NA	0
4	Correct	155	479	1451	9	0	0	1202871	692	0	correct_rejection	NA	0
4	Correct	156	480	1452	0	1	2	1203580	691	1	hit	438	0
4	Correct	157	481	1453	7	0	0	1204288	692	0	correct_rejection	NA	0
4	Correct	158	482	1454	8	0	0	1204997	691	0	correct_rejection	NA	0
4	Correct	159	483	1455	9	0	0	1205705	692	0	correct_rejection	NA	0
4	Correct	160	484	1456	7	0	0	1206414	692	0	correct_rejection	NA	0
4	Correct	161	485	1457	8	0	0	1207122	692	0	correct_rejection	NA	0
4	Correct	162	486	1458	9	0	0	1207831	692	0	correct_rejection	NA	0
4	Single	1	1	1459	9	0	0	1217909	692	0	correct_rejection	NA	7958
4	Single	2	2	1460	5	0	0	1218618	692	0	correct_rejection	NA	0
4	Single	3	3	1461	4	0	0	1219326	692	0	correct_rejection	NA	0
4	Single	4	4	1462	7	0	0	1220035	692	0	correct_rejection	NA	0
4	Single	5	5	1463	9	0	0	1220744	691	0	correct_rejection	NA	0
4	Single	6	6	1464	4	0	0	1221452	692	0	correct_rejection	NA	0
4	Single	7	7	1465	4	0	0	1222161	691	0	correct_rejection	NA	0
4	Single	8	8	1466	5	0	0	1222869	692	0	correct_rejection	NA	0
4	Single	9	9	1467	0	1	1	1223578	692	1	hit	428	0
4	Single	10	10	1468	8	0	0	1224286	692	0	correct_rejection	NA	0
4	Single	11	11	1469	7	0	0	1224995	692	0	correct_rejection	NA	0
4	Single	12	12	1470	5	0	0	1225704	691	0	correct_rejection	NA	0
4	Single	13	13	1471	7	0	0	1226412	692	0	correct_rejection	NA	0
4	Single	14	14	1472	0	1	1	1227121	691	1	hit	357	0
4	Single	15	15	1473	7	0	0	1227829	692	0	correct_rejection	NA	0
4	Single	16	16	1474	8	0	0	1228538	691	0	correct_rejection	NA	0
4	Single	17	17	1475	9	0	0	1229246	692	0	correct_rejection	NA	0
4	Single	18	18	1476	8	0	0	1229955	692	0	correct_rejection	NA	0
4	Single	19	19	1477	6	0	0	1230663	692	0	correct_rejection	NA	0
4	Single	20	20	1478	4	0	0	1231372	692	0	correct_rejection	NA	0
4	Single	21	21	1479	0	1	1	1232081	691	1	hit	418	0
4	Single	22	22	1480	9	0	0	1232789	692	0	correct_rejection	NA	0
4	Single	23	23	1481	9	0	0	1233498	691	0	correct_rejection	NA	0
4	Single	24	24	1482	7	0	0	1234206	692	0	correct_rejection	NA	0
4	Single	25	25	1483	0	1	1	1234915	692	1	hit	599	0
4	Single	26	26	1484	6	0	0	1235623	692	0	correct_rejection	NA	0
4	Single	27	27	1485	6	0	0	1236332	692	0	correct_rejection	NA	0
4	Single	28	28	1486	8	0	0	1237041	691	0	correct_rejection	NA	0
4	Single	29	29	1487	5	0	0	1237749	692	0	correct_rejection	NA	0
4	Single	30	30	1488	6	0	0	1238458	691	0	correct_rejection	NA	0
4	Single	31	31	1489	0	1	1	1239166	692	1	hit	430	0
4	Single	32	32	1490	7	0	0	1239875	692	0	correct_rejection	NA	0
4	Single	33	33	1491	4	0	0	1240583	692	0	correct_rejection	NA	0
4	Single	34	34	1492	8	0	0	1241292	692	0	correct_rejection	NA	0
4	Single	35	35	1493	8	0	0	1242001	691	0	correct_rejection	NA	0
4	Single	36	36	1494	4	0	0	1242709	692	0	correct_rejection	NA	0
4	Single	37	37	1495	6	0	0	1243418	691	0	correct_rejection	NA	0
4	Single	38	38	1496	5	0	0	1244126	692	0	correct_rejection	NA	0
4	Single	39	39	1497	5	0	0	1244835	692	0	correct_rejection	NA	0
4	Single	40	40	1498	9	0	0	1245543	692	0	correct_rejection	NA	0
4	Single	41	41	1499	6	0	0	1246252	692	0	correct_rejection	NA	0
4	Single	42	42	1500	4	0	0	1246961	691	0	correct_rejection	NA	0
4	Single	43	43	1501	9	0	0	1247669	692	0	correct_rejection	NA	0
4	Single	44	44	1502	8	0	0	1248378	691	0	correct_rejection	NA	0
4	Single	45	45	1503	8	0	0	1249086	692	0	correct_rejection	NA	0
4	Single	46	46	1504	6	0	0	1249795	691	0	correct_rejection	NA	0
4	Single	47	47	1505	9	0	0	1250503	692	0	correct_rejection	NA	0
4	Single	48	48	1506	6	0	0	1251212	692	0	correct_rejection	NA	0
4	Single	49	49	1507	6	0	0	1251920	692	0	correct_rejection	NA	0
4	Single	50	50	1508	7	0	0	1252629	692	0	correct_rejection	NA	0
4	Single	51	51	1509	5	0	0	1253338	691	0	correct_rejection	NA	0
4	Single	52	52	1510	6	0	0	1254046	692	0	correct_rejection	NA	0
4	Single	53	53	1511	5	0	0	1254755	691	0	correct_rejection	NA	0
4	Single	54	54	1512	8	0	0	1255463	692	0	correct_rejection	NA	0
4	Single	55	55	1513	4	0	0	1256172	692	0	correct_rejection	NA	0
4	Single	56	56	1514	5	0	0	1256880	692	0	correct_rejection	NA	0
4	Single	57	57	1515	4	0	0	1257589	692	0	correct_rejection	NA	0
4	Single	58	58	1516	8	0	0	1258298	691	0	correct_rejection	NA	0
4	Single	59	59	1517	7	0	0	1259006	692	0	correct_rejection	NA	0
4	Single	60	60	1518	7	0	0	1259715	691	0	correct_rejection	NA	0
4	Single	61	61	1519	6	0	0	1260423	692	0	correct_rejection	NA	0
4	Single	62	62	1520	8	0	0	1261132	692	0	correct_rejection	NA	0
4	Single	63	63	1521	9	0	0	1261840	692	0	correct_rejection	NA	0
4	Single	64	64	1522	7	0	0	1262549	692	0	correct_rejection	NA	0
4	Single	65	65	1523	9	0	0	1263258	691	0	correct_rejection	NA	0
4	Single	66	66	1524	5	0	0	1263966	692	0	correct_rejection	NA	0
4	Single	67	67	1525	5	0	0	1264675	691	0	correct_rejection	NA	0
4	Single	68	68	1526	7	0	0	1265383	692	0	correct_rejection	NA	0
4	Single	69	69	1527	4	0	0	1266092	692	0	correct_rejection	NA	0
4	Single	70	70	1528	6	0	0	1266800	692	0	correct_rejection	NA	0
4	Single	71	71	1529	4	0	0	1267509	692	0	correct_rejection	NA	0
4	Single	72	72	1530	0	1	1	1268218	691	1	hit	575	0
4	Single	73	73	1531	4	0	0	1268926	692	0	correct_rejection	NA	0
4	Single	74	74	1532	7	0	0	1269635	691	0	correct_rejection	NA	0
4	Single	75	75	1533	0	1	1	1270343	692	0	miss	NA	0
4	Single	76	76	1534	8	0	0	1271052	691	1	false_alarm	29	0
4	Single	77	77	1535	5	0	0	1271760	692	0	correct_rejection	NA	0
4	Single	78	78	1536	9	0	0	1272469	692	0	correct_rejection	NA	0
4	Single	79	79	1537	9	0	0	1273177	692	0	correct_rejection	NA	0
4	Single	80	80	1538	4	0	0	1273886	692	0	correct_rejection	NA	0
4	Single	81	81	1539	9	0	0	1274595	691	0	correct_rejection	NA	0
4	Single	82	82	1540	0	1	1	1275303	692	1	hit	389	0
4	Single	83	83	1541	6	0	0	1276012	691	0	correct_rejection	NA	0
4	Single	84	84	1542	4	0	0	1276720	692	0	correct_rejection	NA	0
4	Single	85	85	1543	6	0	0	1277429	692	0	correct_rejection	NA	0
4	Single	86	86	1544	8	0	0	1278137	692	0	correct_rejection	NA	0
4	Single	87	87	1545	0	1	1	1278846	692	1	hit	436	0
4	Single	88	88	1546	8	0	0	1279555	691	0	correct_rejection	NA	0
4	Single	89	89	1547	5	0	0	1280263	692	0	correct_rejection	NA	0
4	Single	90	90	1548	7	0	0	1280972	691	0	correct_rejection	NA	0
4	Single	91	91	1549	8	0	0	1281680	692	0	correct_rejection	NA	0
4	Single	92	92	1550	6	0	0	1282389	692	0	correct_rejection	NA	0
4	Single	93	93	1551	7	0	0	1283097	692	0	correct_rejection	NA	0
4	Single	94	94	1552	9	0	0	1283806	692	0	correct_rejection	NA	0
4	Single	95	95	1553	8	0	0	1284515	691	0	correct_rejection	NA	0
4	Single	96	96	1554	7	0	0	1285223	692	0	correct_rejection	NA	0
4	Single	97	97	1555	6	0	0	1285932	691	0	correct_rejection	NA	0
4	Single	98	98	1556	9	0	0	1286640	692	0	correct_rejection	NA	0
4	Single	99	99	1557	0	1	1	1287349	692	1	hit	403	0
4	Single	100	100	1558	7	0	0	1288057	692	0	correct_rejection	NA	0
4	Single	101	101	1559	7	0	0	1288766	692	0	correct_rejection	NA	0
4	Single	102	102	1560	4	0	0	1289475	691	0	correct_rejection	NA	0
4	Single	103	103	1561	5	0	0	1290183	692	0	correct_rejection	NA	0
4	Single	104	104	1562	5	0	0	1290892	691	0	correct_rejection	NA	0
4	Single	105	105	1563	8	0	0	1291600	692	0	correct_rejection	NA	0
4	Single	106	106	1564	9	0	0	1292309	692	0	correct_rejection	NA	0
4	Single	107	107	1565	0	1	1	1293017	692	1	hit	407	0
4	Single	108	108	1566	9	0	0	1293726	692	0	correct_rejection	NA	0
4	Single	109	109	1567	4	0	0	1294435	691	0	correct_rejection	NA	0
4	Single	110	110	1568	0	1	1	1295143	692	1	hit	418	0
4	Single	111	111	1569	8	0	0	1295852	691	0	correct_rejection	NA	0
4	Single	112	112	1570	4	0	0	1296560	692	0	correct_rejection	NA	0
4	Single	113	113	1571	0	1	1	1297269	691	1	hit	379	0
4	Single	114	114	1572	7	0	0	1297977	692	0	correct_rejection	NA	0
4	Single	115	115	1573	5	0	0	1298686	692	0	correct_rejection	NA	0
4	Single	116	116	1574	9	0	0	1299394	692	0	correct_rejection	NA	0
4	Single	117	117	1575	5	0	0	1300103	692	0	correct_rejection	NA	0
4	Single	118	118	1576	6	0	0	1300812	691	0	correct_rejection	NA	0
4	Single	119	119	1577	6	0	0	1301520	692	0	correct_rejection	NA	0
4	Single	120	120	1578	5	0	0	1302229	691	0	correct_rejection	NA	0
4	Single	121	121	1579	0	1	1	1302937	692	0	miss	NA	0
4	Single	122	122	1580	4	0	0	1303646	692	0	correct_rejection	NA	0
4	Single	123	123	1581	9	0	0	1304354	692	0	correct_rejection	NA	0
4	Single	124	124	1582	7	0	0	1305063	692	0	correct_rejection	NA	0
4	Single	125	125	1583	6	0	0	1305772	691	0	correct_rejection	NA	0
4	Single	126	126	1584	4	0	0	1306480	692	0	correct_rejection	NA	0
4	Single	127	127	1585	9	0	0	1307189	691	0	correct_rejection	NA	0
4	Single	128	128	1586	4	0	0	1307897	692	0	correct_rejection	NA	0
4	Single	129	129	1587	4	0	0	1308606	692	0	correct_rejection	NA	0
4	Single	130	130	1588	8	0	0	1309314	692	0	correct_rejection	NA	0
4	Single	131	131	1589	5	0	0	1310023	692	0	correct_rejection	NA	0
4	Single	132	132	1590	8	0	0	1310732	691	0	correct_rejection	NA	0
4	Single	133	133	1591	6	0	0	1311440	692	0	correct_rejection	NA	0
4	Single	134	134	1592	8	0	0	1312149	691	0	correct_rejection	NA	0
4	Single	135	135	1593	4	0	0	1312857	692	0	correct_rejection	NA	0
4	Single	136	136	1594	6	0	0	1313566	692	0	correct_rejection	NA	0
4	Single	137	137	1595	0	1	1	1314274	692	1	hit	594	0
4	Single	138	138	1596	6	0	0	1314983	692	0	correct_rejection	NA	0
4	Single	139	139	1597	9	0	0	1315692	691	0	correct_rejection	NA	0
4	Single	140	140	1598	5	0	0	1316400	692	0	correct_rejection	NA	0
4	Single	141	141	1599	4	0	0	1317109	691	0	correct_rejection	NA	0
4	Single	142	142	1600	5	0	0	1317817	692	0	correct_rejection	NA	0
4	Single	143	143	1601	0	1	1	1318526	691	1	hit	348	0
4	Single	144	144	1602	6	0	0	1319234	692	0	correct_rejection	NA	0
4	Single	145	145	1603	7	0	0	1319943	692	0	correct_rejection	NA	0
4	Single	146	146	1604	8	0	0	1320651	692	0	correct_rejection	NA	0
4	Single	147	147	1605	8	0	0	1321360	692	0	correct_rejection	NA	0
4	Single	148	148	1606	7	0	0	1322069	691	0	correct_rejection	NA	0
4	Single	149	149	1607	4	0	0	1322777	692	0	correct_rejection	NA	0
4	Single	150	150	1608	7	0	0	1323486	691	0	correct_rejection	NA	0
4	Single	151	151	1609	9	0	0	1324194	692	0	correct_rejection	NA	0
4	Single	152	152	1610	6	0	0	1324903	692	0	correct_rejection	NA	0
4	Single	153	153	1611	5	0	0	1325611	692	0	correct_rejection	NA	0
4	Single	154	154	1612	0	1	1	1326320	692	1	hit	387	0
4	Single	155	155	1613	7	0	0	1327029	691	0	correct_rejection	NA	0
4	Single	156	156	1614	7	0	0	1327737	692	0	correct_rejection	NA	0
4	Single	157	157	1615	0	1	1	1328446	691	1	hit	562	0
4	Single	158	158	1616	5	0	0	1329154	692	0	correct_rejection	NA	0
4	Single	159	159	1617	5	0	0	1329863	692	0	correct_rejection	NA	0
4	Single	160	160	1618	9	0	0	1330571	692	0	correct_rejection	NA	0
4	Single	161	161	1619	8	0	0	1331280	692	0	correct_rejection	NA	0
4	Single	162	162	1620	9	0	0	1331989	691	0	correct_rejection	NA	0
trigger nr 1244 at 1333908
trigger nr 1249 at 1419899
4	Triplet	1	1	1621	9	0	0	1427770	692	0	correct_rejection	NA	7829
