ID	block	trial_block	trial_cat	trial_total	number	violation	level_violation	onset	duration	Response	Hit_Miss	RT	pre_trial_fixcross_ISI
first_trigger_at: 11233
trigger nr 3 at 13233
5	Single	1	487	1	7	0	0	20415	691	0	correct_rejection	NA	7149
5	Single	2	488	2	4	0	0	21123	692	0	correct_rejection	NA	0
5	Single	3	489	3	5	0	0	21832	691	0	correct_rejection	NA	0
5	Single	4	490	4	0	1	1	22540	692	1	hit	314	0
5	Single	5	491	5	5	0	0	23249	692	0	correct_rejection	NA	0
5	Single	6	492	6	7	0	0	23957	692	0	correct_rejection	NA	0
5	Single	7	493	7	6	0	0	24666	692	0	correct_rejection	NA	0
5	Single	8	494	8	4	0	0	25375	691	0	correct_rejection	NA	0
5	Single	9	495	9	9	0	0	26083	692	0	correct_rejection	NA	0
5	Single	10	496	10	0	1	1	26792	691	1	hit	344	0
5	Single	11	497	11	5	0	0	27500	692	0	correct_rejection	NA	0
5	Single	12	498	12	9	0	0	28209	691	0	correct_rejection	NA	0
5	Single	13	499	13	0	1	1	28917	692	1	hit	331	0
5	Single	14	500	14	4	0	0	29626	692	0	correct_rejection	NA	0
5	Single	15	501	15	8	0	0	30334	692	0	correct_rejection	NA	0
5	Single	16	502	16	5	0	0	31043	692	0	correct_rejection	NA	0
5	Single	17	503	17	8	0	0	31752	691	0	correct_rejection	NA	0
5	Single	18	504	18	4	0	0	32460	692	0	correct_rejection	NA	0
5	Single	19	505	19	7	0	0	33169	691	0	correct_rejection	NA	0
5	Single	20	506	20	8	0	0	33877	692	0	correct_rejection	NA	0
5	Single	21	507	21	6	0	0	34586	692	0	correct_rejection	NA	0
5	Single	22	508	22	8	0	0	35294	692	0	correct_rejection	NA	0
5	Single	23	509	23	9	0	0	36003	692	0	correct_rejection	NA	0
5	Single	24	510	24	7	0	0	36712	691	0	correct_rejection	NA	0
5	Single	25	511	25	0	1	1	37420	692	1	hit	309	0
5	Single	26	512	26	5	0	0	38129	691	0	correct_rejection	NA	0
5	Single	27	513	27	6	0	0	38837	692	0	correct_rejection	NA	0
5	Single	28	514	28	9	0	0	39546	692	0	correct_rejection	NA	0
5	Single	29	515	29	6	0	0	40254	692	0	correct_rejection	NA	0
5	Single	30	516	30	6	0	0	40963	692	0	correct_rejection	NA	0
5	Single	31	517	31	5	0	0	41672	691	0	correct_rejection	NA	0
5	Single	32	518	32	4	0	0	42380	692	0	correct_rejection	NA	0
5	Single	33	519	33	4	0	0	43089	691	0	correct_rejection	NA	0
5	Single	34	520	34	0	1	1	43797	692	1	hit	311	0
5	Single	35	521	35	6	0	0	44506	692	0	correct_rejection	NA	0
5	Single	36	522	36	7	0	0	45214	692	0	correct_rejection	NA	0
5	Single	37	523	37	7	0	0	45923	692	0	correct_rejection	NA	0
5	Single	38	524	38	9	0	0	46632	691	0	correct_rejection	NA	0
5	Single	39	525	39	9	0	0	47340	692	0	correct_rejection	NA	0
5	Single	40	526	40	8	0	0	48049	691	0	correct_rejection	NA	0
5	Single	41	527	41	8	0	0	48757	692	0	correct_rejection	NA	0
5	Single	42	528	42	5	0	0	49466	691	0	correct_rejection	NA	0
5	Single	43	529	43	9	0	0	50174	692	0	correct_rejection	NA	0
5	Single	44	530	44	9	0	0	50883	692	0	correct_rejection	NA	0
5	Single	45	531	45	7	0	0	51592	691	0	correct_rejection	NA	0
5	Single	46	532	46	0	1	1	52300	692	1	hit	375	0
5	Single	47	533	47	9	0	0	53009	691	0	correct_rejection	NA	0
5	Single	48	534	48	5	0	0	53717	692	0	correct_rejection	NA	0
5	Single	49	535	49	5	0	0	54426	691	0	correct_rejection	NA	0
5	Single	50	536	50	0	1	1	55134	692	1	hit	375	0
5	Single	51	537	51	8	0	0	55843	692	0	correct_rejection	NA	0
5	Single	52	538	52	7	0	0	56551	692	0	correct_rejection	NA	0
5	Single	53	539	53	5	0	0	57260	692	0	correct_rejection	NA	0
5	Single	54	540	54	4	0	0	57969	691	0	correct_rejection	NA	0
5	Single	55	541	55	5	0	0	58677	692	0	correct_rejection	NA	0
5	Single	56	542	56	7	0	0	59386	691	0	correct_rejection	NA	0
5	Single	57	543	57	7	0	0	60094	692	0	correct_rejection	NA	0
5	Single	58	544	58	4	0	0	60803	692	0	correct_rejection	NA	0
5	Single	59	545	59	9	0	0	61511	692	0	correct_rejection	NA	0
5	Single	60	546	60	6	0	0	62220	692	0	correct_rejection	NA	0
5	Single	61	547	61	7	0	0	62929	691	0	correct_rejection	NA	0
5	Single	62	548	62	8	0	0	63637	692	0	correct_rejection	NA	0
5	Single	63	549	63	4	0	0	64346	691	0	correct_rejection	NA	0
5	Single	64	550	64	6	0	0	65054	692	0	correct_rejection	NA	0
5	Single	65	551	65	5	0	0	65763	692	0	correct_rejection	NA	0
5	Single	66	552	66	6	0	0	66471	692	0	correct_rejection	NA	0
5	Single	67	553	67	6	0	0	67180	692	0	correct_rejection	NA	0
5	Single	68	554	68	9	0	0	67889	691	1	false_alarm	342	0
5	Single	69	555	69	8	0	0	68597	692	0	correct_rejection	NA	0
5	Single	70	556	70	9	0	0	69306	691	0	correct_rejection	NA	0
5	Single	71	557	71	4	0	0	70014	692	0	correct_rejection	NA	0
5	Single	72	558	72	4	0	0	70723	692	0	correct_rejection	NA	0
5	Single	73	559	73	8	0	0	71431	692	0	correct_rejection	NA	0
5	Single	74	560	74	6	0	0	72140	692	0	correct_rejection	NA	0
5	Single	75	561	75	4	0	0	72849	691	0	correct_rejection	NA	0
5	Single	76	562	76	7	0	0	73557	692	0	correct_rejection	NA	0
5	Single	77	563	77	6	0	0	74266	691	0	correct_rejection	NA	0
5	Single	78	564	78	8	0	0	74974	692	0	correct_rejection	NA	0
5	Single	79	565	79	8	0	0	75683	691	0	correct_rejection	NA	0
5	Single	80	566	80	4	0	0	76391	692	0	correct_rejection	NA	0
5	Single	81	567	81	7	0	0	77100	692	0	correct_rejection	NA	0
5	Single	82	568	82	5	0	0	77809	691	0	correct_rejection	NA	0
5	Single	83	569	83	5	0	0	78517	692	0	correct_rejection	NA	0
5	Single	84	570	84	4	0	0	79226	691	0	correct_rejection	NA	0
5	Single	85	571	85	0	1	1	79934	692	1	hit	400	0
5	Single	86	572	86	8	0	0	80643	691	0	correct_rejection	NA	0
5	Single	87	573	87	9	0	0	81351	692	0	correct_rejection	NA	0
5	Single	88	574	88	0	1	1	82060	692	0	miss	NA	0
5	Single	89	575	89	6	0	0	82768	692	1	false_alarm	105	0
5	Single	90	576	90	9	0	0	83477	692	0	correct_rejection	NA	0
5	Single	91	577	91	9	0	0	84186	691	0	correct_rejection	NA	0
5	Single	92	578	92	5	0	0	84894	692	0	correct_rejection	NA	0
5	Single	93	579	93	8	0	0	85603	691	0	correct_rejection	NA	0
5	Single	94	580	94	5	0	0	86311	692	0	correct_rejection	NA	0
5	Single	95	581	95	6	0	0	87020	692	0	correct_rejection	NA	0
5	Single	96	582	96	7	0	0	87728	692	0	correct_rejection	NA	0
5	Single	97	583	97	9	0	0	88437	692	0	correct_rejection	NA	0
5	Single	98	584	98	4	0	0	89146	691	0	correct_rejection	NA	0
5	Single	99	585	99	6	0	0	89854	692	0	correct_rejection	NA	0
5	Single	100	586	100	8	0	0	90563	691	0	correct_rejection	NA	0
5	Single	101	587	101	0	1	1	91271	692	1	hit	359	0
5	Single	102	588	102	4	0	0	91980	692	0	correct_rejection	NA	0
5	Single	103	589	103	5	0	0	92688	692	0	correct_rejection	NA	0
5	Single	104	590	104	9	0	0	93397	692	0	correct_rejection	NA	0
5	Single	105	591	105	8	0	0	94106	691	0	correct_rejection	NA	0
5	Single	106	592	106	7	0	0	94814	692	0	correct_rejection	NA	0
5	Single	107	593	107	0	1	1	95523	691	1	hit	451	0
5	Single	108	594	108	6	0	0	96231	692	0	correct_rejection	NA	0
5	Single	109	595	109	6	0	0	96940	692	0	correct_rejection	NA	0
5	Single	110	596	110	4	0	0	97648	692	0	correct_rejection	NA	0
5	Single	111	597	111	0	1	1	98357	692	1	hit	532	0
5	Single	112	598	112	4	0	0	99066	691	0	correct_rejection	NA	0
5	Single	113	599	113	9	0	0	99774	692	0	correct_rejection	NA	0
5	Single	114	600	114	7	0	0	100483	691	0	correct_rejection	NA	0
5	Single	115	601	115	7	0	0	101191	692	0	correct_rejection	NA	0
5	Single	116	602	116	0	1	1	101900	691	1	hit	271	0
5	Single	117	603	117	8	0	0	102608	692	0	correct_rejection	NA	0
5	Single	118	604	118	8	0	0	103317	692	0	correct_rejection	NA	0
5	Single	119	605	119	6	0	0	104025	692	0	correct_rejection	NA	0
5	Single	120	606	120	5	0	0	104734	692	0	correct_rejection	NA	0
5	Single	121	607	121	7	0	0	105443	691	0	correct_rejection	NA	0
5	Single	122	608	122	0	1	1	106151	692	1	hit	364	0
5	Single	123	609	123	7	0	0	106860	691	0	correct_rejection	NA	0
5	Single	124	610	124	8	0	0	107568	692	0	correct_rejection	NA	0
5	Single	125	611	125	5	0	0	108277	692	0	correct_rejection	NA	0
5	Single	126	612	126	0	1	1	108985	692	1	hit	328	0
5	Single	127	613	127	7	0	0	109694	692	0	correct_rejection	NA	0
5	Single	128	614	128	6	0	0	110403	691	0	correct_rejection	NA	0
5	Single	129	615	129	4	0	0	111111	692	0	correct_rejection	NA	0
5	Single	130	616	130	5	0	0	111820	691	0	correct_rejection	NA	0
5	Single	131	617	131	5	0	0	112528	692	0	correct_rejection	NA	0
5	Single	132	618	132	6	0	0	113237	692	0	correct_rejection	NA	0
5	Single	133	619	133	8	0	0	113945	692	0	correct_rejection	NA	0
5	Single	134	620	134	0	1	1	114654	692	1	hit	314	0
5	Single	135	621	135	6	0	0	115363	691	0	correct_rejection	NA	0
5	Single	136	622	136	9	0	0	116071	692	0	correct_rejection	NA	0
5	Single	137	623	137	4	0	0	116780	691	0	correct_rejection	NA	0
5	Single	138	624	138	8	0	0	117488	692	0	correct_rejection	NA	0
5	Single	139	625	139	7	0	0	118197	692	0	correct_rejection	NA	0
5	Single	140	626	140	0	1	1	118905	692	1	hit	310	0
5	Single	141	627	141	4	0	0	119614	692	0	correct_rejection	NA	0
5	Single	142	628	142	6	0	0	120323	691	0	correct_rejection	NA	0
5	Single	143	629	143	6	0	0	121031	692	0	correct_rejection	NA	0
5	Single	144	630	144	7	0	0	121740	691	0	correct_rejection	NA	0
5	Single	145	631	145	5	0	0	122448	692	0	correct_rejection	NA	0
5	Single	146	632	146	8	0	0	123157	692	0	correct_rejection	NA	0
5	Single	147	633	147	9	0	0	123865	692	0	correct_rejection	NA	0
5	Single	148	634	148	8	0	0	124574	692	0	correct_rejection	NA	0
5	Single	149	635	149	8	0	0	125283	691	0	correct_rejection	NA	0
5	Single	150	636	150	4	0	0	125991	692	0	correct_rejection	NA	0
5	Single	151	637	151	9	0	0	126700	691	0	correct_rejection	NA	0
5	Single	152	638	152	5	0	0	127408	692	0	correct_rejection	NA	0
5	Single	153	639	153	4	0	0	128117	691	0	correct_rejection	NA	0
5	Single	154	640	154	4	0	0	128825	692	0	correct_rejection	NA	0
5	Single	155	641	155	7	0	0	129534	692	0	correct_rejection	NA	0
5	Single	156	642	156	9	0	0	130242	692	0	correct_rejection	NA	0
5	Single	157	643	157	9	0	0	130951	692	0	correct_rejection	NA	0
5	Single	158	644	158	6	0	0	131660	691	0	correct_rejection	NA	0
5	Single	159	645	159	5	0	0	132368	692	0	correct_rejection	NA	0
5	Single	160	646	160	0	1	1	133077	691	1	hit	366	0
5	Single	161	647	161	9	0	0	133785	692	0	correct_rejection	NA	0
5	Single	162	648	162	7	0	0	134494	692	0	correct_rejection	NA	0
5	Correct	1	649	163	4	0	0	144214	691	0	correct_rejection	NA	7949
5	Correct	2	650	164	5	0	0	144922	692	0	correct_rejection	NA	0
5	Correct	3	651	165	6	0	0	145631	692	0	correct_rejection	NA	0
5	Correct	4	652	166	4	0	0	146339	692	0	correct_rejection	NA	0
5	Correct	5	653	167	5	0	0	147048	692	0	correct_rejection	NA	0
5	Correct	6	654	168	6	0	0	147757	691	0	correct_rejection	NA	0
5	Correct	7	655	169	4	0	0	148465	692	0	correct_rejection	NA	0
5	Correct	8	656	170	5	0	0	149174	691	0	correct_rejection	NA	0
5	Correct	9	657	171	6	0	0	149882	692	0	correct_rejection	NA	0
5	Correct	10	658	172	6	0	0	150591	692	0	correct_rejection	NA	0
5	Correct	11	659	173	5	0	0	151299	692	0	correct_rejection	NA	0
5	Correct	12	660	174	4	0	0	152008	692	0	correct_rejection	NA	0
5	Correct	13	661	175	6	0	0	152717	691	0	correct_rejection	NA	0
5	Correct	14	662	176	5	0	0	153425	692	0	correct_rejection	NA	0
5	Correct	15	663	177	4	0	0	154134	691	0	correct_rejection	NA	0
5	Correct	16	664	178	6	0	0	154842	692	0	correct_rejection	NA	0
5	Correct	17	665	179	5	0	0	155551	692	0	correct_rejection	NA	0
5	Correct	18	666	180	4	0	0	156259	692	0	correct_rejection	NA	0
5	Correct	19	667	181	9	0	0	156968	692	0	correct_rejection	NA	0
5	Correct	20	668	182	8	0	0	157677	691	0	correct_rejection	NA	0
5	Correct	21	669	183	7	0	0	158385	692	0	correct_rejection	NA	0
5	Correct	22	670	184	0	1	2	159094	691	1	hit	430	0
5	Correct	23	671	185	9	0	0	159802	692	0	correct_rejection	NA	0
5	Correct	24	672	186	8	0	0	160511	692	0	correct_rejection	NA	0
5	Correct	25	673	187	7	0	0	161219	692	0	correct_rejection	NA	0
5	Correct	26	674	188	9	0	0	161928	692	0	correct_rejection	NA	0
5	Correct	27	675	189	8	0	0	162637	691	0	correct_rejection	NA	0
5	Correct	28	676	190	7	0	0	163345	692	0	correct_rejection	NA	0
5	Correct	29	677	191	7	0	0	164054	691	0	correct_rejection	NA	0
5	Correct	30	678	192	8	0	0	164762	692	0	correct_rejection	NA	0
5	Correct	31	679	193	9	0	0	165471	691	0	correct_rejection	NA	0
5	Correct	32	680	194	7	0	0	166179	692	0	correct_rejection	NA	0
5	Correct	33	681	195	8	0	0	166888	692	0	correct_rejection	NA	0
5	Correct	34	682	196	9	0	0	167597	691	0	correct_rejection	NA	0
5	Correct	35	683	197	0	1	2	168305	692	1	hit	320	0
5	Correct	36	684	198	7	0	0	169014	691	0	correct_rejection	NA	0
5	Correct	37	685	199	8	0	0	169722	692	0	correct_rejection	NA	0
5	Correct	38	686	200	9	0	0	170431	691	0	correct_rejection	NA	0
5	Correct	39	687	201	0	1	4	171139	692	1	hit	402	0
5	Correct	40	688	202	4	0	0	171848	692	0	correct_rejection	NA	0
5	Correct	41	689	203	5	0	0	172556	692	0	correct_rejection	NA	0
5	Correct	42	690	204	6	0	0	173265	692	0	correct_rejection	NA	0
5	Correct	43	691	205	4	0	0	173974	691	0	correct_rejection	NA	0
5	Correct	44	692	206	0	1	1	174682	692	1	hit	436	0
5	Correct	45	693	207	5	0	0	175391	691	0	correct_rejection	NA	0
5	Correct	46	694	208	6	0	0	176099	692	0	correct_rejection	NA	0
5	Correct	47	695	209	4	0	0	176808	692	0	correct_rejection	NA	0
5	Correct	48	696	210	5	0	0	177516	692	0	correct_rejection	NA	0
5	Correct	49	697	211	6	0	0	178225	692	0	correct_rejection	NA	0
5	Correct	50	698	212	6	0	0	178934	691	0	correct_rejection	NA	0
5	Correct	51	699	213	5	0	0	179642	692	0	correct_rejection	NA	0
5	Correct	52	700	214	4	0	0	180351	691	0	correct_rejection	NA	0
5	Correct	53	701	215	6	0	0	181059	692	0	correct_rejection	NA	0
5	Correct	54	702	216	5	0	0	181768	692	0	correct_rejection	NA	0
5	Correct	55	703	217	4	0	0	182476	692	0	correct_rejection	NA	0
5	Correct	56	704	218	6	0	0	183185	692	0	correct_rejection	NA	0
5	Correct	57	705	219	5	0	0	183894	691	0	correct_rejection	NA	0
5	Correct	58	706	220	0	1	1	184602	692	1	hit	299	0
5	Correct	59	707	221	4	0	0	185311	691	0	correct_rejection	NA	0
5	Correct	60	708	222	9	0	0	186019	692	0	correct_rejection	NA	0
5	Correct	61	709	223	8	0	0	186728	692	0	correct_rejection	NA	0
5	Correct	62	710	224	7	0	0	187436	692	0	correct_rejection	NA	0
5	Correct	63	711	225	9	0	0	188145	692	0	correct_rejection	NA	0
5	Correct	64	712	226	0	1	1	188854	691	1	hit	351	0
5	Correct	65	713	227	8	0	0	189562	692	0	correct_rejection	NA	0
5	Correct	66	714	228	7	0	0	190271	691	0	correct_rejection	NA	0
5	Correct	67	715	229	9	0	0	190979	692	0	correct_rejection	NA	0
5	Correct	68	716	230	8	0	0	191688	691	0	correct_rejection	NA	0
5	Correct	69	717	231	7	0	0	192396	692	0	correct_rejection	NA	0
5	Correct	70	718	232	7	0	0	193105	692	0	correct_rejection	NA	0
5	Correct	71	719	233	8	0	0	193813	692	0	correct_rejection	NA	0
5	Correct	72	720	234	9	0	0	194522	692	0	correct_rejection	NA	0
5	Correct	73	721	235	7	0	0	195231	691	0	correct_rejection	NA	0
5	Correct	74	722	236	8	0	0	195939	692	0	correct_rejection	NA	0
5	Correct	75	723	237	9	0	0	196648	691	0	correct_rejection	NA	0
5	Correct	76	724	238	7	0	0	197356	692	0	correct_rejection	NA	0
5	Correct	77	725	239	0	1	1	198065	692	1	hit	314	0
5	Correct	78	726	240	8	0	0	198773	692	0	correct_rejection	NA	0
5	Correct	79	727	241	9	0	0	199482	692	0	correct_rejection	NA	0
5	Correct	80	728	242	4	0	0	200191	691	0	correct_rejection	NA	0
5	Correct	81	729	243	5	0	0	200899	692	0	correct_rejection	NA	0
5	Correct	82	730	244	6	0	0	201608	691	0	correct_rejection	NA	0
5	Correct	83	731	245	4	0	0	202316	692	0	correct_rejection	NA	0
5	Correct	84	732	246	5	0	0	203025	692	0	correct_rejection	NA	0
5	Correct	85	733	247	6	0	0	203733	692	0	correct_rejection	NA	0
5	Correct	86	734	248	4	0	0	204442	692	0	correct_rejection	NA	0
5	Correct	87	735	249	5	0	0	205151	691	0	correct_rejection	NA	0
5	Correct	88	736	250	6	0	0	205859	692	0	correct_rejection	NA	0
5	Correct	89	737	251	6	0	0	206568	691	0	correct_rejection	NA	0
5	Correct	90	738	252	5	0	0	207276	692	0	correct_rejection	NA	0
5	Correct	91	739	253	4	0	0	207985	692	0	correct_rejection	NA	0
5	Correct	92	740	254	6	0	0	208693	692	0	correct_rejection	NA	0
5	Correct	93	741	255	0	1	1	209402	692	1	hit	481	0
5	Correct	94	742	256	5	0	0	210111	691	0	correct_rejection	NA	0
5	Correct	95	743	257	4	0	0	210819	692	0	correct_rejection	NA	0
5	Correct	96	744	258	6	0	0	211528	691	0	correct_rejection	NA	0
5	Correct	97	745	259	5	0	0	212236	692	0	correct_rejection	NA	0
5	Correct	98	746	260	4	0	0	212945	692	0	correct_rejection	NA	0
5	Correct	99	747	261	0	1	3	213653	692	1	hit	336	0
5	Correct	100	748	262	9	0	0	214362	692	0	correct_rejection	NA	0
5	Correct	101	749	263	8	0	0	215071	691	0	correct_rejection	NA	0
5	Correct	102	750	264	7	0	0	215779	692	0	correct_rejection	NA	0
5	Correct	103	751	265	9	0	0	216488	691	0	correct_rejection	NA	0
5	Correct	104	752	266	8	0	0	217196	692	0	correct_rejection	NA	0
5	Correct	105	753	267	7	0	0	217905	691	0	correct_rejection	NA	0
5	Correct	106	754	268	9	0	0	218613	692	0	correct_rejection	NA	0
5	Correct	107	755	269	8	0	0	219322	692	0	correct_rejection	NA	0
5	Correct	108	756	270	7	0	0	220030	692	0	correct_rejection	NA	0
5	Correct	109	757	271	0	1	3	220739	692	1	hit	297	0
5	Correct	110	758	272	7	0	0	221448	691	0	correct_rejection	NA	0
5	Correct	111	759	273	8	0	0	222156	692	0	correct_rejection	NA	0
5	Correct	112	760	274	9	0	0	222865	691	0	correct_rejection	NA	0
5	Correct	113	761	275	0	1	2	223573	692	1	hit	363	0
5	Correct	114	762	276	7	0	0	224282	692	0	correct_rejection	NA	0
5	Correct	115	763	277	8	0	0	224990	692	0	correct_rejection	NA	0
5	Correct	116	764	278	9	0	0	225699	692	0	correct_rejection	NA	0
5	Correct	117	765	279	7	0	0	226408	691	0	correct_rejection	NA	0
5	Correct	118	766	280	8	0	0	227116	692	0	correct_rejection	NA	0
5	Correct	119	767	281	9	0	0	227825	691	0	correct_rejection	NA	0
5	Correct	120	768	282	4	0	0	228533	692	0	correct_rejection	NA	0
5	Correct	121	769	283	0	1	1	229242	692	1	hit	298	0
5	Correct	122	770	284	5	0	0	229950	692	0	correct_rejection	NA	0
5	Correct	123	771	285	6	0	0	230659	692	0	correct_rejection	NA	0
5	Correct	124	772	286	4	0	0	231368	691	0	correct_rejection	NA	0
5	Correct	125	773	287	5	0	0	232076	692	0	correct_rejection	NA	0
5	Correct	126	774	288	0	1	1	232785	691	1	hit	345	0
5	Correct	127	775	289	6	0	0	233493	692	0	correct_rejection	NA	0
5	Correct	128	776	290	4	0	0	234202	692	0	correct_rejection	NA	0
5	Correct	129	777	291	5	0	0	234910	692	0	correct_rejection	NA	0
5	Correct	130	778	292	6	0	0	235619	692	0	correct_rejection	NA	0
5	Correct	131	779	293	6	0	0	236328	691	0	correct_rejection	NA	0
5	Correct	132	780	294	5	0	0	237036	692	0	correct_rejection	NA	0
5	Correct	133	781	295	0	1	1	237745	691	1	hit	285	0
5	Correct	134	782	296	4	0	0	238453	692	0	correct_rejection	NA	0
5	Correct	135	783	297	6	0	0	239162	691	0	correct_rejection	NA	0
5	Correct	136	784	298	0	1	1	239870	692	1	hit	398	0
5	Correct	137	785	299	5	0	0	240579	692	0	correct_rejection	NA	0
5	Correct	138	786	300	4	0	0	241288	691	0	correct_rejection	NA	0
5	Correct	139	787	301	6	0	0	241996	692	0	correct_rejection	NA	0
5	Correct	140	788	302	5	0	0	242705	691	0	correct_rejection	NA	0
5	Correct	141	789	303	4	0	0	243413	692	0	correct_rejection	NA	0
5	Correct	142	790	304	9	0	0	244122	691	0	correct_rejection	NA	0
5	Correct	143	791	305	8	0	0	244830	692	0	correct_rejection	NA	0
5	Correct	144	792	306	0	1	1	245539	692	1	hit	318	0
5	Correct	145	793	307	7	0	0	246247	692	0	correct_rejection	NA	0
5	Correct	146	794	308	9	0	0	246956	692	0	correct_rejection	NA	0
5	Correct	147	795	309	8	0	0	247665	691	0	correct_rejection	NA	0
5	Correct	148	796	310	7	0	0	248373	692	0	correct_rejection	NA	0
5	Correct	149	797	311	9	0	0	249082	691	0	correct_rejection	NA	0
5	Correct	150	798	312	8	0	0	249790	692	0	correct_rejection	NA	0
5	Correct	151	799	313	7	0	0	250499	692	0	correct_rejection	NA	0
5	Correct	152	800	314	7	0	0	251207	692	0	correct_rejection	NA	0
5	Correct	153	801	315	8	0	0	251916	692	0	correct_rejection	NA	0
5	Correct	154	802	316	9	0	0	252625	691	0	correct_rejection	NA	0
5	Correct	155	803	317	7	0	0	253333	692	0	correct_rejection	NA	0
5	Correct	156	804	318	8	0	0	254042	691	0	correct_rejection	NA	0
5	Correct	157	805	319	0	1	1	254750	692	1	hit	318	0
5	Correct	158	806	320	9	0	0	255459	692	0	correct_rejection	NA	0
5	Correct	159	807	321	7	0	0	256167	692	0	correct_rejection	NA	0
5	Correct	160	808	322	8	0	0	256876	692	0	correct_rejection	NA	0
5	Correct	161	809	323	0	1	1	257585	691	1	hit	339	0
5	Correct	162	810	324	9	0	0	258293	692	0	correct_rejection	NA	0
5	Nonet	1	487	325	7	0	0	267888	692	0	correct_rejection	NA	7619
5	Nonet	2	488	326	8	0	0	268597	691	0	correct_rejection	NA	0
5	Nonet	3	489	327	9	0	0	269305	692	0	correct_rejection	NA	0
5	Nonet	4	490	328	0	1	2	270014	691	1	hit	292	0
5	Nonet	5	491	329	7	0	0	270722	692	0	correct_rejection	NA	0
5	Nonet	6	492	330	8	0	0	271431	691	0	correct_rejection	NA	0
5	Nonet	7	493	331	9	0	0	272139	692	0	correct_rejection	NA	0
5	Nonet	8	494	332	7	0	0	272848	692	0	correct_rejection	NA	0
5	Nonet	9	495	333	8	0	0	273557	691	0	correct_rejection	NA	0
5	Nonet	10	496	334	9	0	0	274265	692	0	correct_rejection	NA	0
5	Nonet	11	497	335	7	0	0	274974	691	0	correct_rejection	NA	0
5	Nonet	12	498	336	8	0	0	275682	692	0	correct_rejection	NA	0
5	Nonet	13	499	337	0	1	1	276391	691	1	hit	320	0
5	Nonet	14	500	338	9	0	0	277099	692	0	correct_rejection	NA	0
5	Nonet	15	501	339	7	0	0	277808	692	0	correct_rejection	NA	0
5	Nonet	16	502	340	0	1	1	278516	692	1	hit	452	0
5	Nonet	17	503	341	8	0	0	279225	692	0	correct_rejection	NA	0
5	Nonet	18	504	342	9	0	0	279934	691	0	correct_rejection	NA	0
5	Nonet	19	505	343	7	0	0	280642	692	0	correct_rejection	NA	0
5	Nonet	20	506	344	8	0	0	281351	691	0	correct_rejection	NA	0
5	Nonet	21	507	345	9	0	0	282059	692	0	correct_rejection	NA	0
5	Nonet	22	508	346	9	0	0	282768	692	0	correct_rejection	NA	0
5	Nonet	23	509	347	8	0	0	283476	692	0	correct_rejection	NA	0
5	Nonet	24	510	348	7	0	0	284185	692	0	correct_rejection	NA	0
5	Nonet	25	511	349	9	0	0	284894	691	0	correct_rejection	NA	0
5	Nonet	26	512	350	8	0	0	285602	692	0	correct_rejection	NA	0
5	Nonet	27	513	351	7	0	0	286311	691	0	correct_rejection	NA	0
5	Nonet	28	514	352	9	0	0	287019	692	0	correct_rejection	NA	0
5	Nonet	29	515	353	0	1	1	287728	692	1	hit	348	0
5	Nonet	30	516	354	8	0	0	288436	692	0	correct_rejection	NA	0
5	Nonet	31	517	355	7	0	0	289145	692	0	correct_rejection	NA	0
5	Nonet	32	518	356	9	0	0	289854	691	0	correct_rejection	NA	0
5	Nonet	33	519	357	8	0	0	290562	692	0	correct_rejection	NA	0
5	Nonet	34	520	358	7	0	0	291271	691	0	correct_rejection	NA	0
5	Nonet	35	521	359	9	0	0	291979	692	0	correct_rejection	NA	0
5	Nonet	36	522	360	0	1	1	292688	692	1	hit	353	0
5	Nonet	37	523	361	8	0	0	293396	692	0	correct_rejection	NA	0
5	Nonet	38	524	362	7	0	0	294105	692	0	correct_rejection	NA	0
5	Nonet	39	525	363	9	0	0	294814	691	0	correct_rejection	NA	0
5	Nonet	40	526	364	8	0	0	295522	692	0	correct_rejection	NA	0
5	Nonet	41	527	365	7	0	0	296231	691	0	correct_rejection	NA	0
5	Nonet	42	528	366	4	0	0	296939	692	0	correct_rejection	NA	0
5	Nonet	43	529	367	5	0	0	297648	691	0	correct_rejection	NA	0
5	Nonet	44	530	368	6	0	0	298356	692	0	correct_rejection	NA	0
5	Nonet	45	531	369	4	0	0	299065	692	0	correct_rejection	NA	0
5	Nonet	46	532	370	5	0	0	299773	692	0	correct_rejection	NA	0
5	Nonet	47	533	371	0	1	1	300482	692	1	hit	304	0
5	Nonet	48	534	372	6	0	0	301191	691	0	correct_rejection	NA	0
5	Nonet	49	535	373	4	0	0	301899	692	0	correct_rejection	NA	0
5	Nonet	50	536	374	5	0	0	302608	691	0	correct_rejection	NA	0
5	Nonet	51	537	375	6	0	0	303316	692	0	correct_rejection	NA	0
5	Nonet	52	538	376	6	0	0	304025	692	0	correct_rejection	NA	0
5	Nonet	53	539	377	5	0	0	304733	692	0	correct_rejection	NA	0
5	Nonet	54	540	378	4	0	0	305442	692	0	correct_rejection	NA	0
5	Nonet	55	541	379	6	0	0	306151	691	0	correct_rejection	NA	0
5	Nonet	56	542	380	5	0	0	306859	692	0	correct_rejection	NA	0
5	Nonet	57	543	381	4	0	0	307568	691	0	correct_rejection	NA	0
5	Nonet	58	544	382	6	0	0	308276	692	0	correct_rejection	NA	0
5	Nonet	59	545	383	5	0	0	308985	692	0	correct_rejection	NA	0
5	Nonet	60	546	384	4	0	0	309693	692	0	correct_rejection	NA	0
5	Nonet	61	547	385	4	0	0	310402	692	0	correct_rejection	NA	0
5	Nonet	62	548	386	5	0	0	311111	691	0	correct_rejection	NA	0
5	Nonet	63	549	387	6	0	0	311819	692	0	correct_rejection	NA	0
5	Nonet	64	550	388	4	0	0	312528	691	0	correct_rejection	NA	0
5	Nonet	65	551	389	5	0	0	313236	692	0	correct_rejection	NA	0
5	Nonet	66	552	390	6	0	0	313945	692	0	correct_rejection	NA	0
5	Nonet	67	553	391	0	1	2	314653	692	1	hit	359	0
5	Nonet	68	554	392	4	0	0	315362	692	0	correct_rejection	NA	0
5	Nonet	69	555	393	5	0	0	316071	691	0	correct_rejection	NA	0
5	Nonet	70	556	394	6	0	0	316779	692	0	correct_rejection	NA	0
5	Nonet	71	557	395	7	0	0	317488	691	0	correct_rejection	NA	0
5	Nonet	72	558	396	8	0	0	318196	692	0	correct_rejection	NA	0
5	Nonet	73	559	397	9	0	0	318905	692	0	correct_rejection	NA	0
5	Nonet	74	560	398	7	0	0	319613	692	0	correct_rejection	NA	0
5	Nonet	75	561	399	8	0	0	320322	692	0	correct_rejection	NA	0
5	Nonet	76	562	400	9	0	0	321031	691	0	correct_rejection	NA	0
5	Nonet	77	563	401	7	0	0	321739	692	0	correct_rejection	NA	0
5	Nonet	78	564	402	8	0	0	322448	691	0	correct_rejection	NA	0
5	Nonet	79	565	403	9	0	0	323156	692	0	correct_rejection	NA	0
5	Nonet	80	566	404	6	0	0	323865	691	0	correct_rejection	NA	0
5	Nonet	81	567	405	5	0	0	324573	692	0	correct_rejection	NA	0
5	Nonet	82	568	406	0	1	1	325282	692	1	hit	314	0
5	Nonet	83	569	407	4	0	0	325990	692	0	correct_rejection	NA	0
5	Nonet	84	570	408	6	0	0	326699	692	0	correct_rejection	NA	0
5	Nonet	85	571	409	5	0	0	327408	691	0	correct_rejection	NA	0
5	Nonet	86	572	410	4	0	0	328116	692	0	correct_rejection	NA	0
5	Nonet	87	573	411	0	1	2	328825	691	1	hit	438	0
5	Nonet	88	574	412	6	0	0	329533	692	0	correct_rejection	NA	0
5	Nonet	89	575	413	5	0	0	330242	692	0	correct_rejection	NA	0
5	Nonet	90	576	414	4	0	0	330950	692	0	correct_rejection	NA	0
5	Nonet	91	577	415	9	0	0	331659	692	0	correct_rejection	NA	0
5	Nonet	92	578	416	8	0	0	332368	691	0	correct_rejection	NA	0
5	Nonet	93	579	417	7	0	0	333076	692	0	correct_rejection	NA	0
5	Nonet	94	580	418	9	0	0	333785	691	0	correct_rejection	NA	0
5	Nonet	95	581	419	8	0	0	334493	692	0	correct_rejection	NA	0
5	Nonet	96	582	420	7	0	0	335202	692	0	correct_rejection	NA	0
5	Nonet	97	583	421	0	1	2	335910	692	1	hit	313	0
5	Nonet	98	584	422	9	0	0	336619	692	0	correct_rejection	NA	0
5	Nonet	99	585	423	8	0	0	337328	691	0	correct_rejection	NA	0
5	Nonet	100	586	424	7	0	0	338036	692	0	correct_rejection	NA	0
5	Nonet	101	587	425	6	0	0	338745	691	0	correct_rejection	NA	0
5	Nonet	102	588	426	5	0	0	339453	692	0	correct_rejection	NA	0
5	Nonet	103	589	427	0	1	1	340162	692	1	hit	394	0
5	Nonet	104	590	428	4	0	0	340870	692	0	correct_rejection	NA	0
5	Nonet	105	591	429	6	0	0	341579	692	0	correct_rejection	NA	0
5	Nonet	106	592	430	5	0	0	342288	691	0	correct_rejection	NA	0
5	Nonet	107	593	431	4	0	0	342996	692	0	correct_rejection	NA	0
5	Nonet	108	594	432	6	0	0	343705	691	0	correct_rejection	NA	0
5	Nonet	109	595	433	5	0	0	344413	692	0	correct_rejection	NA	0
5	Nonet	110	596	434	4	0	0	345122	692	0	correct_rejection	NA	0
5	Nonet	111	597	435	6	0	0	345830	692	0	correct_rejection	NA	0
5	Nonet	112	598	436	5	0	0	346539	692	0	correct_rejection	NA	0
5	Nonet	113	599	437	4	0	0	347248	691	0	correct_rejection	NA	0
5	Nonet	114	600	438	6	0	0	347956	692	0	correct_rejection	NA	0
5	Nonet	115	601	439	5	0	0	348665	691	0	correct_rejection	NA	0
5	Nonet	116	602	440	4	0	0	349373	692	0	correct_rejection	NA	0
5	Nonet	117	603	441	6	0	0	350082	691	0	correct_rejection	NA	0
5	Nonet	118	604	442	0	1	1	350790	692	1	hit	322	0
5	Nonet	119	605	443	5	0	0	351499	692	0	correct_rejection	NA	0
5	Nonet	120	606	444	4	0	0	352207	692	0	correct_rejection	NA	0
5	Nonet	121	607	445	7	0	0	352916	692	0	correct_rejection	NA	0
5	Nonet	122	608	446	8	0	0	353625	691	0	correct_rejection	NA	0
5	Nonet	123	609	447	0	1	1	354333	692	1	hit	476	0
5	Nonet	124	610	448	9	0	0	355042	691	0	correct_rejection	NA	0
5	Nonet	125	611	449	7	0	0	355750	692	0	correct_rejection	NA	0
5	Nonet	126	612	450	0	1	1	356459	692	1	hit	330	0
5	Nonet	127	613	451	8	0	0	357167	692	0	correct_rejection	NA	0
5	Nonet	128	614	452	9	0	0	357876	692	0	correct_rejection	NA	0
5	Nonet	129	615	453	0	1	2	358585	691	1	hit	316	0
5	Nonet	130	616	454	7	0	0	359293	692	0	correct_rejection	NA	0
5	Nonet	131	617	455	8	0	0	360002	691	0	correct_rejection	NA	0
5	Nonet	132	618	456	9	0	0	360710	692	0	correct_rejection	NA	0
5	Nonet	133	619	457	4	0	0	361419	692	0	correct_rejection	NA	0
5	Nonet	134	620	458	5	0	0	362127	692	0	correct_rejection	NA	0
5	Nonet	135	621	459	6	0	0	362836	692	0	correct_rejection	NA	0
5	Nonet	136	622	460	4	0	0	363545	691	0	correct_rejection	NA	0
5	Nonet	137	623	461	5	0	0	364253	692	0	correct_rejection	NA	0
5	Nonet	138	624	462	6	0	0	364962	691	0	correct_rejection	NA	0
5	Nonet	139	625	463	4	0	0	365670	692	0	correct_rejection	NA	0
5	Nonet	140	626	464	5	0	0	366379	692	0	correct_rejection	NA	0
5	Nonet	141	627	465	6	0	0	367087	692	0	correct_rejection	NA	0
5	Nonet	142	628	466	4	0	0	367796	692	0	correct_rejection	NA	0
5	Nonet	143	629	467	5	0	0	368505	691	0	correct_rejection	NA	0
5	Nonet	144	630	468	6	0	0	369213	692	0	correct_rejection	NA	0
5	Nonet	145	631	469	4	0	0	369922	691	0	correct_rejection	NA	0
5	Nonet	146	632	470	0	1	1	370630	692	1	hit	383	0
5	Nonet	147	633	471	5	0	0	371339	691	0	correct_rejection	NA	0
5	Nonet	148	634	472	6	0	0	372047	692	0	correct_rejection	NA	0
5	Nonet	149	635	473	0	1	2	372756	692	1	hit	336	0
5	Nonet	150	636	474	4	0	0	373465	691	0	correct_rejection	NA	0
5	Nonet	151	637	475	5	0	0	374173	692	0	correct_rejection	NA	0
5	Nonet	152	638	476	6	0	0	374882	691	0	correct_rejection	NA	0
5	Nonet	153	639	477	9	0	0	375590	692	0	correct_rejection	NA	0
5	Nonet	154	640	478	8	0	0	376299	691	0	correct_rejection	NA	0
5	Nonet	155	641	479	7	0	0	377007	692	0	correct_rejection	NA	0
5	Nonet	156	642	480	9	0	0	377716	692	0	correct_rejection	NA	0
5	Nonet	157	643	481	8	0	0	378424	692	0	correct_rejection	NA	0
5	Nonet	158	644	482	7	0	0	379133	692	0	correct_rejection	NA	0
5	Nonet	159	645	483	9	0	0	379842	691	0	correct_rejection	NA	0
5	Nonet	160	646	484	8	0	0	380550	692	0	correct_rejection	NA	0
5	Nonet	161	647	485	0	1	1	381259	691	1	hit	444	0
5	Nonet	162	648	486	7	0	0	381967	692	0	correct_rejection	NA	0
5	Triplet	1	649	487	4	0	0	391987	692	0	correct_rejection	NA	7718
5	Triplet	2	650	488	5	0	0	392696	692	0	correct_rejection	NA	0
5	Triplet	3	651	489	6	0	0	393404	692	0	correct_rejection	NA	0
5	Triplet	4	652	490	6	0	0	394113	692	0	correct_rejection	NA	0
5	Triplet	5	653	491	5	0	0	394822	691	0	correct_rejection	NA	0
5	Triplet	6	654	492	4	0	0	395530	692	0	correct_rejection	NA	0
5	Triplet	7	655	493	4	0	0	396239	691	0	correct_rejection	NA	0
5	Triplet	8	656	494	5	0	0	396947	692	0	correct_rejection	NA	0
5	Triplet	9	657	495	6	0	0	397656	692	0	correct_rejection	NA	0
5	Triplet	10	658	496	9	0	0	398364	692	0	correct_rejection	NA	0
5	Triplet	11	659	497	0	1	1	399073	692	1	hit	401	0
5	Triplet	12	660	498	8	0	0	399782	691	0	correct_rejection	NA	0
5	Triplet	13	661	499	7	0	0	400490	692	0	correct_rejection	NA	0
5	Triplet	14	662	500	6	0	0	401199	691	0	correct_rejection	NA	0
5	Triplet	15	663	501	0	1	1	401907	692	1	hit	390	0
5	Triplet	16	664	502	5	0	0	402616	691	0	correct_rejection	NA	0
5	Triplet	17	665	503	4	0	0	403324	692	0	correct_rejection	NA	0
5	Triplet	18	666	504	6	0	0	404033	692	0	correct_rejection	NA	0
5	Triplet	19	667	505	5	0	0	404742	691	0	correct_rejection	NA	0
5	Triplet	20	668	506	4	0	0	405450	692	0	correct_rejection	NA	0
5	Triplet	21	669	507	7	0	0	406159	691	0	correct_rejection	NA	0
5	Triplet	22	670	508	8	0	0	406867	692	0	correct_rejection	NA	0
5	Triplet	23	671	509	9	0	0	407576	691	0	correct_rejection	NA	0
5	Triplet	24	672	510	6	0	0	408284	692	0	correct_rejection	NA	0
5	Triplet	25	673	511	0	1	1	408993	692	1	hit	292	0
5	Triplet	26	674	512	5	0	0	409701	692	0	correct_rejection	NA	0
5	Triplet	27	675	513	4	0	0	410410	692	0	correct_rejection	NA	0
5	Triplet	28	676	514	9	0	0	411119	691	0	correct_rejection	NA	0
5	Triplet	29	677	515	8	0	0	411827	692	0	correct_rejection	NA	0
5	Triplet	30	678	516	7	0	0	412536	691	0	correct_rejection	NA	0
5	Triplet	31	679	517	7	0	0	413244	692	0	correct_rejection	NA	0
5	Triplet	32	680	518	8	0	0	413953	692	0	correct_rejection	NA	0
5	Triplet	33	681	519	9	0	0	414661	692	0	correct_rejection	NA	0
5	Triplet	34	682	520	4	0	0	415370	692	0	correct_rejection	NA	0
5	Triplet	35	683	521	5	0	0	416079	691	0	correct_rejection	NA	0
5	Triplet	36	684	522	6	0	0	416787	692	0	correct_rejection	NA	0
5	Triplet	37	685	523	4	0	0	417496	691	0	correct_rejection	NA	0
5	Triplet	38	686	524	5	0	0	418204	692	0	correct_rejection	NA	0
5	Triplet	39	687	525	0	1	1	418913	692	1	hit	333	0
5	Triplet	40	688	526	6	0	0	419621	692	0	correct_rejection	NA	0
5	Triplet	41	689	527	7	0	0	420330	692	0	correct_rejection	NA	0
5	Triplet	42	690	528	8	0	0	421039	691	0	correct_rejection	NA	0
5	Triplet	43	691	529	9	0	0	421747	692	0	correct_rejection	NA	0
5	Triplet	44	692	530	7	0	0	422456	691	0	correct_rejection	NA	0
5	Triplet	45	693	531	8	0	0	423164	692	0	correct_rejection	NA	0
5	Triplet	46	694	532	9	0	0	423873	692	0	correct_rejection	NA	0
5	Triplet	47	695	533	9	0	0	424581	692	0	correct_rejection	NA	0
5	Triplet	48	696	534	8	0	0	425290	692	0	correct_rejection	NA	0
5	Triplet	49	697	535	0	1	1	425999	691	1	hit	314	0
5	Triplet	50	698	536	7	0	0	426707	692	0	correct_rejection	NA	0
5	Triplet	51	699	537	9	0	0	427416	691	0	correct_rejection	NA	0
5	Triplet	52	700	538	8	0	0	428124	692	0	correct_rejection	NA	0
5	Triplet	53	701	539	7	0	0	428833	691	0	correct_rejection	NA	0
5	Triplet	54	702	540	7	0	0	429541	692	0	correct_rejection	NA	0
5	Triplet	55	703	541	0	1	1	430250	692	1	hit	314	0
5	Triplet	56	704	542	8	0	0	430959	691	0	correct_rejection	NA	0
5	Triplet	57	705	543	9	0	0	431667	692	0	correct_rejection	NA	0
5	Triplet	58	706	544	7	0	0	432376	691	0	correct_rejection	NA	0
5	Triplet	59	707	545	8	0	0	433084	692	0	correct_rejection	NA	0
5	Triplet	60	708	546	0	1	1	433793	691	1	hit	311	0
5	Triplet	61	709	547	9	0	0	434501	692	0	correct_rejection	NA	0
5	Triplet	62	710	548	6	0	0	435210	692	0	correct_rejection	NA	0
5	Triplet	63	711	549	5	0	0	435918	692	0	correct_rejection	NA	0
5	Triplet	64	712	550	4	0	0	436627	692	0	correct_rejection	NA	0
5	Triplet	65	713	551	6	0	0	437336	691	0	correct_rejection	NA	0
5	Triplet	66	714	552	5	0	0	438044	692	0	correct_rejection	NA	0
5	Triplet	67	715	553	4	0	0	438753	691	0	correct_rejection	NA	0
5	Triplet	68	716	554	0	1	2	439461	692	1	hit	281	0
5	Triplet	69	717	555	4	0	0	440170	692	0	correct_rejection	NA	0
5	Triplet	70	718	556	5	0	0	440878	692	0	correct_rejection	NA	0
5	Triplet	71	719	557	6	0	0	441587	692	0	correct_rejection	NA	0
5	Triplet	72	720	558	4	0	0	442296	691	0	correct_rejection	NA	0
5	Triplet	73	721	559	5	0	0	443004	692	0	correct_rejection	NA	0
5	Triplet	74	722	560	6	0	0	443713	691	0	correct_rejection	NA	0
5	Triplet	75	723	561	6	0	0	444421	692	0	correct_rejection	NA	0
5	Triplet	76	724	562	5	0	0	445130	692	0	correct_rejection	NA	0
5	Triplet	77	725	563	0	1	1	445838	692	1	hit	314	0
5	Triplet	78	726	564	4	0	0	446547	692	0	correct_rejection	NA	0
5	Triplet	79	727	565	7	0	0	447256	691	0	correct_rejection	NA	0
5	Triplet	80	728	566	8	0	0	447964	692	0	correct_rejection	NA	0
5	Triplet	81	729	567	9	0	0	448673	691	0	correct_rejection	NA	0
5	Triplet	82	730	568	4	0	0	449381	692	0	correct_rejection	NA	0
5	Triplet	83	731	569	5	0	0	450090	692	0	correct_rejection	NA	0
5	Triplet	84	732	570	6	0	0	450798	692	0	correct_rejection	NA	0
5	Triplet	85	733	571	9	0	0	451507	692	0	correct_rejection	NA	0
5	Triplet	86	734	572	8	0	0	452216	691	0	correct_rejection	NA	0
5	Triplet	87	735	573	7	0	0	452924	692	0	correct_rejection	NA	0
5	Triplet	88	736	574	9	0	0	453633	691	0	correct_rejection	NA	0
5	Triplet	89	737	575	8	0	0	454341	692	0	correct_rejection	NA	0
5	Triplet	90	738	576	7	0	0	455050	691	0	correct_rejection	NA	0
5	Triplet	91	739	577	7	0	0	455758	692	0	correct_rejection	NA	0
5	Triplet	92	740	578	8	0	0	456467	692	0	correct_rejection	NA	0
5	Triplet	93	741	579	9	0	0	457176	691	0	correct_rejection	NA	0
5	Triplet	94	742	580	9	0	0	457884	692	0	correct_rejection	NA	0
5	Triplet	95	743	581	8	0	0	458593	691	0	correct_rejection	NA	0
5	Triplet	96	744	582	7	0	0	459301	692	0	correct_rejection	NA	0
5	Triplet	97	745	583	6	0	0	460010	691	0	correct_rejection	NA	0
5	Triplet	98	746	584	5	0	0	460718	692	0	correct_rejection	NA	0
5	Triplet	99	747	585	4	0	0	461427	692	0	correct_rejection	NA	0
5	Triplet	100	748	586	9	0	0	462135	692	0	correct_rejection	NA	0
5	Triplet	101	749	587	8	0	0	462844	692	0	correct_rejection	NA	0
5	Triplet	102	750	588	0	1	1	463553	691	1	hit	410	0
5	Triplet	103	751	589	7	0	0	464261	692	0	correct_rejection	NA	0
5	Triplet	104	752	590	4	0	0	464970	691	0	correct_rejection	NA	0
5	Triplet	105	753	591	5	0	0	465678	692	0	correct_rejection	NA	0
5	Triplet	106	754	592	6	0	0	466387	692	0	correct_rejection	NA	0
5	Triplet	107	755	593	7	0	0	467095	692	0	correct_rejection	NA	0
5	Triplet	108	756	594	8	0	0	467804	692	0	correct_rejection	NA	0
5	Triplet	109	757	595	9	0	0	468513	691	0	correct_rejection	NA	0
5	Triplet	110	758	596	0	1	2	469221	692	1	hit	428	0
5	Triplet	111	759	597	9	0	0	469930	691	0	correct_rejection	NA	0
5	Triplet	112	760	598	8	0	0	470638	692	0	correct_rejection	NA	0
5	Triplet	113	761	599	7	0	0	471347	692	0	correct_rejection	NA	0
5	Triplet	114	762	600	4	0	0	472055	692	0	correct_rejection	NA	0
5	Triplet	115	763	601	5	0	0	472764	692	0	correct_rejection	NA	0
5	Triplet	116	764	602	6	0	0	473473	691	0	correct_rejection	NA	0
5	Triplet	117	765	603	0	1	2	474181	692	1	hit	360	0
5	Triplet	118	766	604	4	0	0	474890	691	0	correct_rejection	NA	0
5	Triplet	119	767	605	5	0	0	475598	692	0	correct_rejection	NA	0
5	Triplet	120	768	606	6	0	0	476307	692	0	correct_rejection	NA	0
5	Triplet	121	769	607	9	0	0	477015	692	0	correct_rejection	NA	0
5	Triplet	122	770	608	8	0	0	477724	692	0	correct_rejection	NA	0
5	Triplet	123	771	609	0	1	1	478433	691	1	hit	329	0
5	Triplet	124	772	610	7	0	0	479141	692	0	correct_rejection	NA	0
5	Triplet	125	773	611	7	0	0	479850	691	0	correct_rejection	NA	0
5	Triplet	126	774	612	8	0	0	480558	692	0	correct_rejection	NA	0
5	Triplet	127	775	613	9	0	0	481267	691	0	correct_rejection	NA	0
5	Triplet	128	776	614	0	1	2	481975	692	1	hit	363	0
5	Triplet	129	777	615	6	0	0	482684	692	0	correct_rejection	NA	0
5	Triplet	130	778	616	5	0	0	483392	692	0	correct_rejection	NA	0
5	Triplet	131	779	617	4	0	0	484101	692	0	correct_rejection	NA	0
5	Triplet	132	780	618	7	0	0	484810	691	0	correct_rejection	NA	0
5	Triplet	133	781	619	8	0	0	485518	692	0	correct_rejection	NA	0
5	Triplet	134	782	620	9	0	0	486227	691	0	correct_rejection	NA	0
5	Triplet	135	783	621	7	0	0	486935	692	0	correct_rejection	NA	0
5	Triplet	136	784	622	8	0	0	487644	692	0	correct_rejection	NA	0
5	Triplet	137	785	623	9	0	0	488352	692	0	correct_rejection	NA	0
5	Triplet	138	786	624	4	0	0	489061	692	0	correct_rejection	NA	0
5	Triplet	139	787	625	0	1	1	489770	691	1	hit	349	0
5	Triplet	140	788	626	5	0	0	490478	692	0	correct_rejection	NA	0
5	Triplet	141	789	627	6	0	0	491187	691	0	correct_rejection	NA	0
5	Triplet	142	790	628	0	1	2	491895	692	1	hit	426	0
5	Triplet	143	791	629	6	0	0	492604	692	0	correct_rejection	NA	0
5	Triplet	144	792	630	5	0	0	493312	692	0	correct_rejection	NA	0
5	Triplet	145	793	631	4	0	0	494021	692	0	correct_rejection	NA	0
5	Triplet	146	794	632	6	0	0	494730	691	0	correct_rejection	NA	0
5	Triplet	147	795	633	5	0	0	495438	692	0	correct_rejection	NA	0
5	Triplet	148	796	634	4	0	0	496147	691	0	correct_rejection	NA	0
5	Triplet	149	797	635	0	1	2	496855	692	1	hit	295	0
5	Triplet	150	798	636	9	0	0	497564	692	0	correct_rejection	NA	0
5	Triplet	151	799	637	8	0	0	498272	692	0	correct_rejection	NA	0
5	Triplet	152	800	638	7	0	0	498981	692	0	correct_rejection	NA	0
5	Triplet	153	801	639	0	1	2	499690	691	1	hit	366	0
5	Triplet	154	802	640	9	0	0	500398	692	0	correct_rejection	NA	0
5	Triplet	155	803	641	8	0	0	501107	691	0	correct_rejection	NA	0
5	Triplet	156	804	642	7	0	0	501815	692	0	correct_rejection	NA	0
5	Triplet	157	805	643	6	0	0	502524	692	0	correct_rejection	NA	0
5	Triplet	158	806	644	5	0	0	503232	692	0	correct_rejection	NA	0
5	Triplet	159	807	645	4	0	0	503941	692	0	correct_rejection	NA	0
5	Triplet	160	808	646	4	0	0	504650	691	0	correct_rejection	NA	0
5	Triplet	161	809	647	5	0	0	505358	692	0	correct_rejection	NA	0
5	Triplet	162	810	648	6	0	0	506067	691	0	correct_rejection	NA	0
5	Nonet	1	1	649	9	0	0	514686	692	0	correct_rejection	NA	6429
5	Nonet	2	2	650	8	0	0	515395	691	0	correct_rejection	NA	0
5	Nonet	3	3	651	7	0	0	516103	692	0	correct_rejection	NA	0
5	Nonet	4	4	652	9	0	0	516812	692	0	correct_rejection	NA	0
5	Nonet	5	5	653	8	0	0	517520	692	0	correct_rejection	NA	0
5	Nonet	6	6	654	7	0	0	518229	692	0	correct_rejection	NA	0
5	Nonet	7	7	655	9	0	0	518938	691	0	correct_rejection	NA	0
5	Nonet	8	8	656	8	0	0	519646	692	0	correct_rejection	NA	0
5	Nonet	9	9	657	7	0	0	520355	691	0	correct_rejection	NA	0
5	Nonet	10	10	658	6	0	0	521063	692	0	correct_rejection	NA	0
5	Nonet	11	11	659	5	0	0	521772	692	0	correct_rejection	NA	0
5	Nonet	12	12	660	4	0	0	522480	692	0	correct_rejection	NA	0
5	Nonet	13	13	661	6	0	0	523189	692	0	correct_rejection	NA	0
5	Nonet	14	14	662	5	0	0	523898	691	0	correct_rejection	NA	0
5	Nonet	15	15	663	4	0	0	524606	692	0	correct_rejection	NA	0
5	Nonet	16	16	664	6	0	0	525315	691	0	correct_rejection	NA	0
5	Nonet	17	17	665	0	1	1	526023	692	0	miss	NA	0
5	Nonet	18	18	666	5	0	0	526732	692	1	false_alarm	0	0
5	Nonet	19	19	667	4	0	0	527440	692	0	correct_rejection	NA	0
5	Nonet	20	20	668	6	0	0	528149	692	0	correct_rejection	NA	0
5	Nonet	21	21	669	5	0	0	528858	691	0	correct_rejection	NA	0
5	Nonet	22	22	670	0	1	1	529566	692	1	hit	551	0
5	Nonet	23	23	671	4	0	0	530275	691	0	correct_rejection	NA	0
5	Nonet	24	24	672	6	0	0	530983	692	0	correct_rejection	NA	0
5	Nonet	25	25	673	5	0	0	531692	691	0	correct_rejection	NA	0
5	Nonet	26	26	674	4	0	0	532400	692	0	correct_rejection	NA	0
5	Nonet	27	27	675	6	0	0	533109	692	0	correct_rejection	NA	0
5	Nonet	28	28	676	5	0	0	533817	692	0	correct_rejection	NA	0
5	Nonet	29	29	677	4	0	0	534526	692	0	correct_rejection	NA	0
5	Nonet	30	30	678	9	0	0	535235	691	0	correct_rejection	NA	0
5	Nonet	31	31	679	8	0	0	535943	692	0	correct_rejection	NA	0
5	Nonet	32	32	680	0	1	1	536652	691	1	hit	347	0
5	Nonet	33	33	681	7	0	0	537360	692	0	correct_rejection	NA	0
5	Nonet	34	34	682	9	0	0	538069	692	0	correct_rejection	NA	0
5	Nonet	35	35	683	8	0	0	538777	692	0	correct_rejection	NA	0
5	Nonet	36	36	684	7	0	0	539486	692	0	correct_rejection	NA	0
5	Nonet	37	37	685	9	0	0	540195	691	0	correct_rejection	NA	0
5	Nonet	38	38	686	8	0	0	540903	692	0	correct_rejection	NA	0
5	Nonet	39	39	687	7	0	0	541612	691	0	correct_rejection	NA	0
5	Nonet	40	40	688	4	0	0	542320	692	0	correct_rejection	NA	0
5	Nonet	41	41	689	5	0	0	543029	692	0	correct_rejection	NA	0
5	Nonet	42	42	690	6	0	0	543737	692	0	correct_rejection	NA	0
5	Nonet	43	43	691	0	1	2	544446	692	1	hit	347	0
5	Nonet	44	44	692	4	0	0	545155	691	0	correct_rejection	NA	0
5	Nonet	45	45	693	5	0	0	545863	692	0	correct_rejection	NA	0
5	Nonet	46	46	694	6	0	0	546572	691	0	correct_rejection	NA	0
5	Nonet	47	47	695	0	1	2	547280	692	1	hit	435	0
5	Nonet	48	48	696	4	0	0	547989	692	0	correct_rejection	NA	0
5	Nonet	49	49	697	5	0	0	548697	692	0	correct_rejection	NA	0
5	Nonet	50	50	698	6	0	0	549406	692	0	correct_rejection	NA	0
5	Nonet	51	51	699	4	0	0	550115	691	0	correct_rejection	NA	0
5	Nonet	52	52	700	5	0	0	550823	692	0	correct_rejection	NA	0
5	Nonet	53	53	701	0	1	1	551532	691	1	hit	461	0
5	Nonet	54	54	702	6	0	0	552240	692	0	correct_rejection	NA	0
5	Nonet	55	55	703	4	0	0	552949	691	0	correct_rejection	NA	0
5	Nonet	56	56	704	5	0	0	553657	692	0	correct_rejection	NA	0
5	Nonet	57	57	705	6	0	0	554366	692	0	correct_rejection	NA	0
5	Nonet	58	58	706	4	0	0	555075	691	0	correct_rejection	NA	0
5	Nonet	59	59	707	5	0	0	555783	692	0	correct_rejection	NA	0
5	Nonet	60	60	708	6	0	0	556492	691	0	correct_rejection	NA	0
5	Nonet	61	61	709	7	0	0	557200	692	0	correct_rejection	NA	0
5	Nonet	62	62	710	8	0	0	557909	691	0	correct_rejection	NA	0
5	Nonet	63	63	711	9	0	0	558617	692	0	correct_rejection	NA	0
5	Nonet	64	64	712	7	0	0	559326	692	0	correct_rejection	NA	0
5	Nonet	65	65	713	8	0	0	560034	692	0	correct_rejection	NA	0
5	Nonet	66	66	714	0	1	1	560743	692	1	hit	339	0
5	Nonet	67	67	715	9	0	0	561452	691	0	correct_rejection	NA	0
5	Nonet	68	68	716	7	0	0	562160	692	0	correct_rejection	NA	0
5	Nonet	69	69	717	8	0	0	562869	691	0	correct_rejection	NA	0
5	Nonet	70	70	718	9	0	0	563577	692	0	correct_rejection	NA	0
5	Nonet	71	71	719	4	0	0	564286	692	0	correct_rejection	NA	0
5	Nonet	72	72	720	5	0	0	564994	692	0	correct_rejection	NA	0
5	Nonet	73	73	721	6	0	0	565703	692	0	correct_rejection	NA	0
5	Nonet	74	74	722	4	0	0	566412	691	0	correct_rejection	NA	0
5	Nonet	75	75	723	5	0	0	567120	692	0	correct_rejection	NA	0
5	Nonet	76	76	724	6	0	0	567829	691	0	correct_rejection	NA	0
5	Nonet	77	77	725	4	0	0	568537	692	0	correct_rejection	NA	0
5	Nonet	78	78	726	5	0	0	569246	692	0	correct_rejection	NA	0
5	Nonet	79	79	727	6	0	0	569954	692	0	correct_rejection	NA	0
5	Nonet	80	80	728	9	0	0	570663	692	0	correct_rejection	NA	0
5	Nonet	81	81	729	8	0	0	571372	691	0	correct_rejection	NA	0
5	Nonet	82	82	730	0	1	1	572080	692	1	hit	416	0
5	Nonet	83	83	731	7	0	0	572789	691	0	correct_rejection	NA	0
5	Nonet	84	84	732	9	0	0	573497	692	0	correct_rejection	NA	0
5	Nonet	85	85	733	8	0	0	574206	692	0	correct_rejection	NA	0
5	Nonet	86	86	734	0	1	1	574914	692	1	hit	579	0
5	Nonet	87	87	735	7	0	0	575623	692	0	correct_rejection	NA	0
5	Nonet	88	88	736	9	0	0	576332	691	0	correct_rejection	NA	0
5	Nonet	89	89	737	8	0	0	577040	692	0	correct_rejection	NA	0
5	Nonet	90	90	738	7	0	0	577749	691	0	correct_rejection	NA	0
5	Nonet	91	91	739	0	1	3	578457	692	1	hit	346	0
5	Nonet	92	92	740	9	0	0	579166	691	0	correct_rejection	NA	0
5	Nonet	93	93	741	8	0	0	579874	692	0	correct_rejection	NA	0
5	Nonet	94	94	742	7	0	0	580583	692	0	correct_rejection	NA	0
5	Nonet	95	95	743	9	0	0	581292	691	0	correct_rejection	NA	0
5	Nonet	96	96	744	8	0	0	582000	692	0	correct_rejection	NA	0
5	Nonet	97	97	745	7	0	0	582709	691	0	correct_rejection	NA	0
5	Nonet	98	98	746	9	0	0	583417	692	0	correct_rejection	NA	0
5	Nonet	99	99	747	8	0	0	584126	691	0	correct_rejection	NA	0
5	Nonet	100	100	748	7	0	0	584834	692	0	correct_rejection	NA	0
5	Nonet	101	101	749	7	0	0	585543	692	0	correct_rejection	NA	0
5	Nonet	102	102	750	0	1	1	586251	692	1	hit	378	0
5	Nonet	103	103	751	8	0	0	586960	692	0	correct_rejection	NA	0
5	Nonet	104	104	752	9	0	0	587669	691	0	correct_rejection	NA	0
5	Nonet	105	105	753	7	0	0	588377	692	0	correct_rejection	NA	0
5	Nonet	106	106	754	8	0	0	589086	691	0	correct_rejection	NA	0
5	Nonet	107	107	755	9	0	0	589794	692	0	correct_rejection	NA	0
5	Nonet	108	108	756	7	0	0	590503	692	0	correct_rejection	NA	0
5	Nonet	109	109	757	8	0	0	591211	692	0	correct_rejection	NA	0
5	Nonet	110	110	758	9	0	0	591920	692	0	correct_rejection	NA	0
5	Nonet	111	111	759	6	0	0	592629	691	0	correct_rejection	NA	0
5	Nonet	112	112	760	5	0	0	593337	692	0	correct_rejection	NA	0
5	Nonet	113	113	761	0	1	1	594046	691	1	hit	308	0
5	Nonet	114	114	762	4	0	0	594754	692	0	correct_rejection	NA	0
5	Nonet	115	115	763	6	0	0	595463	692	0	correct_rejection	NA	0
5	Nonet	116	116	764	5	0	0	596171	692	0	correct_rejection	NA	0
5	Nonet	117	117	765	4	0	0	596880	692	0	correct_rejection	NA	0
5	Nonet	118	118	766	0	1	2	597589	691	1	hit	342	0
5	Nonet	119	119	767	6	0	0	598297	692	0	correct_rejection	NA	0
5	Nonet	120	120	768	5	0	0	599006	691	0	correct_rejection	NA	0
5	Nonet	121	121	769	4	0	0	599714	692	0	correct_rejection	NA	0
5	Nonet	122	122	770	4	0	0	600423	692	0	correct_rejection	NA	0
5	Nonet	123	123	771	5	0	0	601131	692	0	correct_rejection	NA	0
5	Nonet	124	124	772	6	0	0	601840	692	0	correct_rejection	NA	0
5	Nonet	125	125	773	4	0	0	602549	691	0	correct_rejection	NA	0
5	Nonet	126	126	774	5	0	0	603257	692	0	correct_rejection	NA	0
5	Nonet	127	127	775	0	1	1	603966	691	1	hit	390	0
5	Nonet	128	128	776	6	0	0	604674	692	0	correct_rejection	NA	0
5	Nonet	129	129	777	4	0	0	605383	691	0	correct_rejection	NA	0
5	Nonet	130	130	778	0	1	1	606091	692	1	hit	364	0
5	Nonet	131	131	779	5	0	0	606800	692	0	correct_rejection	NA	0
5	Nonet	132	132	780	6	0	0	607509	691	0	correct_rejection	NA	0
5	Nonet	133	133	781	6	0	0	608217	692	0	correct_rejection	NA	0
5	Nonet	134	134	782	5	0	0	608926	691	0	correct_rejection	NA	0
5	Nonet	135	135	783	4	0	0	609634	692	0	correct_rejection	NA	0
5	Nonet	136	136	784	6	0	0	610343	691	0	correct_rejection	NA	0
5	Nonet	137	137	785	5	0	0	611051	692	0	correct_rejection	NA	0
5	Nonet	138	138	786	4	0	0	611760	692	0	correct_rejection	NA	0
5	Nonet	139	139	787	6	0	0	612468	692	0	correct_rejection	NA	0
5	Nonet	140	140	788	5	0	0	613177	692	0	correct_rejection	NA	0
5	Nonet	141	141	789	4	0	0	613886	691	0	correct_rejection	NA	0
5	Nonet	142	142	790	7	0	0	614594	692	0	correct_rejection	NA	0
5	Nonet	143	143	791	8	0	0	615303	691	0	correct_rejection	NA	0
5	Nonet	144	144	792	0	1	1	616011	692	1	hit	332	0
5	Nonet	145	145	793	9	0	0	616720	692	0	correct_rejection	NA	0
5	Nonet	146	146	794	7	0	0	617428	692	0	correct_rejection	NA	0
5	Nonet	147	147	795	8	0	0	618137	692	0	correct_rejection	NA	0
5	Nonet	148	148	796	9	0	0	618846	691	0	correct_rejection	NA	0
5	Nonet	149	149	797	0	1	2	619554	692	1	hit	507	0
5	Nonet	150	150	798	7	0	0	620263	691	0	correct_rejection	NA	0
5	Nonet	151	151	799	8	0	0	620971	692	0	correct_rejection	NA	0
5	Nonet	152	152	800	9	0	0	621680	692	0	correct_rejection	NA	0
5	Nonet	153	153	801	7	0	0	622388	692	0	correct_rejection	NA	0
5	Nonet	154	154	802	8	0	0	623097	692	0	correct_rejection	NA	0
5	Nonet	155	155	803	9	0	0	623806	691	0	correct_rejection	NA	0
5	Nonet	156	156	804	7	0	0	624514	692	0	correct_rejection	NA	0
5	Nonet	157	157	805	8	0	0	625223	691	0	correct_rejection	NA	0
5	Nonet	158	158	806	9	0	0	625931	692	0	correct_rejection	NA	0
5	Nonet	159	159	807	0	1	2	626640	692	1	hit	276	0
5	Nonet	160	160	808	7	0	0	627348	692	0	correct_rejection	NA	0
5	Nonet	161	161	809	8	0	0	628057	692	0	correct_rejection	NA	0
5	Nonet	162	162	810	9	0	0	628766	691	0	correct_rejection	NA	0
trigger nr 621 at 631218
trigger nr 627 at 708534
5	Single	1	1	811	9	0	0	716536	692	0	correct_rejection	NA	7959
5	Single	2	2	812	5	0	0	717245	691	0	correct_rejection	NA	0
5	Single	3	3	813	4	0	0	717953	692	0	correct_rejection	NA	0
5	Single	4	4	814	7	0	0	718662	692	0	correct_rejection	NA	0
5	Single	5	5	815	9	0	0	719370	692	0	correct_rejection	NA	0
5	Single	6	6	816	4	0	0	720079	692	0	correct_rejection	NA	0
5	Single	7	7	817	4	0	0	720788	691	0	correct_rejection	NA	0
5	Single	8	8	818	5	0	0	721496	692	0	correct_rejection	NA	0
5	Single	9	9	819	0	1	1	722205	691	1	hit	363	0
5	Single	10	10	820	8	0	0	722913	692	0	correct_rejection	NA	0
5	Single	11	11	821	7	0	0	723622	692	0	correct_rejection	NA	0
5	Single	12	12	822	5	0	0	724330	692	0	correct_rejection	NA	0
5	Single	13	13	823	7	0	0	725039	692	0	correct_rejection	NA	0
5	Single	14	14	824	0	1	1	725748	691	1	hit	318	0
5	Single	15	15	825	7	0	0	726456	692	0	correct_rejection	NA	0
5	Single	16	16	826	8	0	0	727165	691	0	correct_rejection	NA	0
5	Single	17	17	827	9	0	0	727873	692	0	correct_rejection	NA	0
5	Single	18	18	828	8	0	0	728582	692	0	correct_rejection	NA	0
5	Single	19	19	829	6	0	0	729290	692	0	correct_rejection	NA	0
5	Single	20	20	830	4	0	0	729999	692	0	correct_rejection	NA	0
5	Single	21	21	831	0	1	1	730708	691	1	hit	324	0
5	Single	22	22	832	9	0	0	731416	692	0	correct_rejection	NA	0
5	Single	23	23	833	9	0	0	732125	691	0	correct_rejection	NA	0
5	Single	24	24	834	7	0	0	732833	692	0	correct_rejection	NA	0
5	Single	25	25	835	0	1	1	733542	692	1	hit	392	0
5	Single	26	26	836	6	0	0	734250	692	0	correct_rejection	NA	0
5	Single	27	27	837	6	0	0	734959	692	0	correct_rejection	NA	0
5	Single	28	28	838	8	0	0	735668	691	0	correct_rejection	NA	0
5	Single	29	29	839	5	0	0	736376	692	0	correct_rejection	NA	0
5	Single	30	30	840	6	0	0	737085	691	0	correct_rejection	NA	0
5	Single	31	31	841	0	1	1	737793	692	1	hit	325	0
5	Single	32	32	842	7	0	0	738502	691	0	correct_rejection	NA	0
5	Single	33	33	843	4	0	0	739210	692	0	correct_rejection	NA	0
5	Single	34	34	844	8	0	0	739919	692	0	correct_rejection	NA	0
5	Single	35	35	845	8	0	0	740627	692	0	correct_rejection	NA	0
5	Single	36	36	846	4	0	0	741336	692	0	correct_rejection	NA	0
5	Single	37	37	847	6	0	0	742045	691	0	correct_rejection	NA	0
5	Single	38	38	848	5	0	0	742753	692	0	correct_rejection	NA	0
5	Single	39	39	849	5	0	0	743462	691	0	correct_rejection	NA	0
5	Single	40	40	850	9	0	0	744170	692	0	correct_rejection	NA	0
5	Single	41	41	851	6	0	0	744879	692	0	correct_rejection	NA	0
5	Single	42	42	852	4	0	0	745587	692	0	correct_rejection	NA	0
5	Single	43	43	853	9	0	0	746296	692	0	correct_rejection	NA	0
5	Single	44	44	854	8	0	0	747005	691	0	correct_rejection	NA	0
5	Single	45	45	855	8	0	0	747713	692	0	correct_rejection	NA	0
5	Single	46	46	856	6	0	0	748422	691	0	correct_rejection	NA	0
5	Single	47	47	857	9	0	0	749130	692	0	correct_rejection	NA	0
5	Single	48	48	858	6	0	0	749839	692	0	correct_rejection	NA	0
5	Single	49	49	859	6	0	0	750547	692	0	correct_rejection	NA	0
5	Single	50	50	860	7	0	0	751256	692	0	correct_rejection	NA	0
5	Single	51	51	861	5	0	0	751965	691	0	correct_rejection	NA	0
5	Single	52	52	862	6	0	0	752673	692	0	correct_rejection	NA	0
5	Single	53	53	863	5	0	0	753382	691	0	correct_rejection	NA	0
5	Single	54	54	864	8	0	0	754090	692	0	correct_rejection	NA	0
5	Single	55	55	865	4	0	0	754799	692	0	correct_rejection	NA	0
5	Single	56	56	866	5	0	0	755507	692	0	correct_rejection	NA	0
5	Single	57	57	867	4	0	0	756216	692	0	correct_rejection	NA	0
5	Single	58	58	868	8	0	0	756925	691	0	correct_rejection	NA	0
5	Single	59	59	869	7	0	0	757633	692	0	correct_rejection	NA	0
5	Single	60	60	870	7	0	0	758342	691	0	correct_rejection	NA	0
5	Single	61	61	871	6	0	0	759050	692	0	correct_rejection	NA	0
5	Single	62	62	872	8	0	0	759759	691	0	correct_rejection	NA	0
5	Single	63	63	873	9	0	0	760467	692	0	correct_rejection	NA	0
5	Single	64	64	874	7	0	0	761176	692	0	correct_rejection	NA	0
5	Single	65	65	875	9	0	0	761885	691	0	correct_rejection	NA	0
5	Single	66	66	876	5	0	0	762593	692	0	correct_rejection	NA	0
5	Single	67	67	877	5	0	0	763302	691	0	correct_rejection	NA	0
5	Single	68	68	878	7	0	0	764010	692	0	correct_rejection	NA	0
5	Single	69	69	879	4	0	0	764719	691	0	correct_rejection	NA	0
5	Single	70	70	880	6	0	0	765427	692	0	correct_rejection	NA	0
5	Single	71	71	881	4	0	0	766136	692	0	correct_rejection	NA	0
5	Single	72	72	882	0	1	1	766844	692	1	hit	313	0
5	Single	73	73	883	4	0	0	767553	692	0	correct_rejection	NA	0
5	Single	74	74	884	7	0	0	768262	691	0	correct_rejection	NA	0
5	Single	75	75	885	0	1	1	768970	692	1	hit	382	0
5	Single	76	76	886	8	0	0	769679	691	0	correct_rejection	NA	0
5	Single	77	77	887	5	0	0	770387	692	0	correct_rejection	NA	0
5	Single	78	78	888	9	0	0	771096	692	0	correct_rejection	NA	0
5	Single	79	79	889	9	0	0	771804	692	0	correct_rejection	NA	0
5	Single	80	80	890	4	0	0	772513	692	0	correct_rejection	NA	0
5	Single	81	81	891	9	0	0	773222	691	0	correct_rejection	NA	0
5	Single	82	82	892	0	1	1	773930	692	1	hit	352	0
5	Single	83	83	893	6	0	0	774639	691	0	correct_rejection	NA	0
5	Single	84	84	894	4	0	0	775347	692	0	correct_rejection	NA	0
5	Single	85	85	895	6	0	0	776056	692	0	correct_rejection	NA	0
5	Single	86	86	896	8	0	0	776764	692	0	correct_rejection	NA	0
5	Single	87	87	897	0	1	1	777473	692	1	hit	395	0
5	Single	88	88	898	8	0	0	778182	691	0	correct_rejection	NA	0
5	Single	89	89	899	5	0	0	778890	692	0	correct_rejection	NA	0
5	Single	90	90	900	7	0	0	779599	691	0	correct_rejection	NA	0
5	Single	91	91	901	8	0	0	780307	692	0	correct_rejection	NA	0
5	Single	92	92	902	6	0	0	781016	692	0	correct_rejection	NA	0
5	Single	93	93	903	7	0	0	781724	692	0	correct_rejection	NA	0
5	Single	94	94	904	9	0	0	782433	692	0	correct_rejection	NA	0
5	Single	95	95	905	8	0	0	783142	691	0	correct_rejection	NA	0
5	Single	96	96	906	7	0	0	783850	692	0	correct_rejection	NA	0
5	Single	97	97	907	6	0	0	784559	691	0	correct_rejection	NA	0
5	Single	98	98	908	9	0	0	785267	692	0	correct_rejection	NA	0
5	Single	99	99	909	0	1	1	785976	691	1	hit	361	0
5	Single	100	100	910	7	0	0	786684	692	0	correct_rejection	NA	0
5	Single	101	101	911	7	0	0	787393	692	0	correct_rejection	NA	0
5	Single	102	102	912	4	0	0	788101	692	0	correct_rejection	NA	0
5	Single	103	103	913	5	0	0	788810	692	0	correct_rejection	NA	0
5	Single	104	104	914	5	0	0	789519	691	0	correct_rejection	NA	0
5	Single	105	105	915	8	0	0	790227	692	0	correct_rejection	NA	0
5	Single	106	106	916	9	0	0	790936	691	0	correct_rejection	NA	0
5	Single	107	107	917	0	1	1	791644	692	1	hit	420	0
5	Single	108	108	918	9	0	0	792353	692	0	correct_rejection	NA	0
5	Single	109	109	919	4	0	0	793061	692	0	correct_rejection	NA	0
5	Single	110	110	920	0	1	1	793770	692	1	hit	557	0
5	Single	111	111	921	8	0	0	794479	691	0	correct_rejection	NA	0
5	Single	112	112	922	4	0	0	795187	692	0	correct_rejection	NA	0
5	Single	113	113	923	0	1	1	795896	691	1	hit	361	0
5	Single	114	114	924	7	0	0	796604	692	0	correct_rejection	NA	0
5	Single	115	115	925	5	0	0	797313	692	0	correct_rejection	NA	0
5	Single	116	116	926	9	0	0	798021	692	0	correct_rejection	NA	0
5	Single	117	117	927	5	0	0	798730	692	0	correct_rejection	NA	0
5	Single	118	118	928	6	0	0	799439	691	0	correct_rejection	NA	0
5	Single	119	119	929	6	0	0	800147	692	0	correct_rejection	NA	0
5	Single	120	120	930	5	0	0	800856	691	0	correct_rejection	NA	0
5	Single	121	121	931	0	1	1	801564	692	1	hit	320	0
5	Single	122	122	932	4	0	0	802273	692	0	correct_rejection	NA	0
5	Single	123	123	933	9	0	0	802981	692	0	correct_rejection	NA	0
5	Single	124	124	934	7	0	0	803690	692	0	correct_rejection	NA	0
5	Single	125	125	935	6	0	0	804399	691	0	correct_rejection	NA	0
5	Single	126	126	936	4	0	0	805107	692	0	correct_rejection	NA	0
5	Single	127	127	937	9	0	0	805816	691	0	correct_rejection	NA	0
5	Single	128	128	938	4	0	0	806524	692	0	correct_rejection	NA	0
5	Single	129	129	939	4	0	0	807233	691	0	correct_rejection	NA	0
5	Single	130	130	940	8	0	0	807941	692	0	correct_rejection	NA	0
5	Single	131	131	941	5	0	0	808650	692	0	correct_rejection	NA	0
5	Single	132	132	942	8	0	0	809359	691	0	correct_rejection	NA	0
5	Single	133	133	943	6	0	0	810067	692	0	correct_rejection	NA	0
5	Single	134	134	944	8	0	0	810776	691	0	correct_rejection	NA	0
5	Single	135	135	945	4	0	0	811484	692	0	correct_rejection	NA	0
5	Single	136	136	946	6	0	0	812193	691	0	correct_rejection	NA	0
5	Single	137	137	947	0	1	1	812901	692	1	hit	346	0
5	Single	138	138	948	6	0	0	813610	692	0	correct_rejection	NA	0
5	Single	139	139	949	9	0	0	814318	692	0	correct_rejection	NA	0
5	Single	140	140	950	5	0	0	815027	692	0	correct_rejection	NA	0
5	Single	141	141	951	4	0	0	815736	691	0	correct_rejection	NA	0
5	Single	142	142	952	5	0	0	816444	692	0	correct_rejection	NA	0
5	Single	143	143	953	0	1	1	817153	691	1	hit	341	0
5	Single	144	144	954	6	0	0	817861	692	0	correct_rejection	NA	0
5	Single	145	145	955	7	0	0	818570	692	0	correct_rejection	NA	0
5	Single	146	146	956	8	0	0	819278	692	0	correct_rejection	NA	0
5	Single	147	147	957	8	0	0	819987	692	0	correct_rejection	NA	0
5	Single	148	148	958	7	0	0	820696	691	0	correct_rejection	NA	0
5	Single	149	149	959	4	0	0	821404	692	0	correct_rejection	NA	0
5	Single	150	150	960	7	0	0	822113	691	0	correct_rejection	NA	0
5	Single	151	151	961	9	0	0	822821	692	0	correct_rejection	NA	0
5	Single	152	152	962	6	0	0	823530	692	0	correct_rejection	NA	0
5	Single	153	153	963	5	0	0	824238	692	0	correct_rejection	NA	0
5	Single	154	154	964	0	1	1	824947	692	1	hit	349	0
5	Single	155	155	965	7	0	0	825656	691	0	correct_rejection	NA	0
5	Single	156	156	966	7	0	0	826364	692	0	correct_rejection	NA	0
5	Single	157	157	967	0	1	1	827073	691	1	hit	591	0
5	Single	158	158	968	5	0	0	827781	692	0	correct_rejection	NA	0
5	Single	159	159	969	5	0	0	828490	692	0	correct_rejection	NA	0
5	Single	160	160	970	9	0	0	829198	692	0	correct_rejection	NA	0
5	Single	161	161	971	8	0	0	829907	692	0	correct_rejection	NA	0
5	Single	162	162	972	9	0	0	830616	691	0	correct_rejection	NA	0
5	Triplet	1	163	973	6	0	0	840469	691	0	correct_rejection	NA	7899
5	Triplet	2	164	974	5	0	0	841177	692	0	correct_rejection	NA	0
5	Triplet	3	165	975	4	0	0	841886	692	0	correct_rejection	NA	0
5	Triplet	4	166	976	0	1	2	842594	692	1	hit	389	0
5	Triplet	5	167	977	6	0	0	843303	692	0	correct_rejection	NA	0
5	Triplet	6	168	978	5	0	0	844012	691	0	correct_rejection	NA	0
5	Triplet	7	169	979	0	1	1	844720	692	1	hit	341	0
5	Triplet	8	170	980	4	0	0	845429	691	0	correct_rejection	NA	0
5	Triplet	9	171	981	4	0	0	846137	692	0	correct_rejection	NA	0
5	Triplet	10	172	982	5	0	0	846846	692	0	correct_rejection	NA	0
5	Triplet	11	173	983	0	1	1	847554	692	1	hit	339	0
5	Triplet	12	174	984	6	0	0	848263	692	0	correct_rejection	NA	0
5	Triplet	13	175	985	9	0	0	848972	691	0	correct_rejection	NA	0
5	Triplet	14	176	986	8	0	0	849680	692	0	correct_rejection	NA	0
5	Triplet	15	177	987	7	0	0	850389	691	0	correct_rejection	NA	0
5	Triplet	16	178	988	6	0	0	851097	692	0	correct_rejection	NA	0
5	Triplet	17	179	989	0	1	1	851806	692	1	hit	314	0
5	Triplet	18	180	990	5	0	0	852514	692	0	correct_rejection	NA	0
5	Triplet	19	181	991	4	0	0	853223	692	0	correct_rejection	NA	0
5	Triplet	20	182	992	9	0	0	853932	691	0	correct_rejection	NA	0
5	Triplet	21	183	993	8	0	0	854640	692	0	correct_rejection	NA	0
5	Triplet	22	184	994	7	0	0	855349	691	0	correct_rejection	NA	0
5	Triplet	23	185	995	0	1	2	856057	692	1	hit	317	0
5	Triplet	24	186	996	7	0	0	856766	692	0	correct_rejection	NA	0
5	Triplet	25	187	997	8	0	0	857474	692	0	correct_rejection	NA	0
5	Triplet	26	188	998	9	0	0	858183	692	0	correct_rejection	NA	0
5	Triplet	27	189	999	6	0	0	858892	691	0	correct_rejection	NA	0
5	Triplet	28	190	1000	5	0	0	859600	692	0	correct_rejection	NA	0
5	Triplet	29	191	1001	0	1	1	860309	691	1	hit	302	0
5	Triplet	30	192	1002	4	0	0	861017	692	0	correct_rejection	NA	0
5	Triplet	31	193	1003	7	0	0	861726	692	0	correct_rejection	NA	0
5	Triplet	32	194	1004	8	0	0	862434	692	0	correct_rejection	NA	0
5	Triplet	33	195	1005	9	0	0	863143	692	0	correct_rejection	NA	0
5	Triplet	34	196	1006	7	0	0	863852	691	0	correct_rejection	NA	0
5	Triplet	35	197	1007	8	0	0	864560	692	0	correct_rejection	NA	0
5	Triplet	36	198	1008	9	0	0	865269	691	0	correct_rejection	NA	0
5	Triplet	37	199	1009	9	0	0	865977	692	0	correct_rejection	NA	0
5	Triplet	38	200	1010	8	0	0	866686	691	0	correct_rejection	NA	0
5	Triplet	39	201	1011	7	0	0	867394	692	0	correct_rejection	NA	0
5	Triplet	40	202	1012	9	0	0	868103	692	0	correct_rejection	NA	0
5	Triplet	41	203	1013	8	0	0	868811	692	0	correct_rejection	NA	0
5	Triplet	42	204	1014	0	1	1	869520	692	1	hit	378	0
5	Triplet	43	205	1015	7	0	0	870229	691	0	correct_rejection	NA	0
5	Triplet	44	206	1016	4	0	0	870937	692	0	correct_rejection	NA	0
5	Triplet	45	207	1017	5	0	0	871646	691	0	correct_rejection	NA	0
5	Triplet	46	208	1018	6	0	0	872354	692	0	correct_rejection	NA	0
5	Triplet	47	209	1019	4	0	0	873063	692	0	correct_rejection	NA	0
5	Triplet	48	210	1020	5	0	0	873771	692	0	correct_rejection	NA	0
5	Triplet	49	211	1021	6	0	0	874480	692	0	correct_rejection	NA	0
5	Triplet	50	212	1022	7	0	0	875189	691	0	correct_rejection	NA	0
5	Triplet	51	213	1023	8	0	0	875897	692	0	correct_rejection	NA	0
5	Triplet	52	214	1024	9	0	0	876606	691	0	correct_rejection	NA	0
5	Triplet	53	215	1025	4	0	0	877314	692	0	correct_rejection	NA	0
5	Triplet	54	216	1026	5	0	0	878023	692	0	correct_rejection	NA	0
5	Triplet	55	217	1027	6	0	0	878731	692	0	correct_rejection	NA	0
5	Triplet	56	218	1028	7	0	0	879440	692	0	correct_rejection	NA	0
5	Triplet	57	219	1029	0	1	1	880149	691	1	hit	392	0
5	Triplet	58	220	1030	8	0	0	880857	692	0	correct_rejection	NA	0
5	Triplet	59	221	1031	9	0	0	881566	691	0	correct_rejection	NA	0
5	Triplet	60	222	1032	0	1	2	882274	692	1	hit	423	0
5	Triplet	61	223	1033	6	0	0	882983	692	0	correct_rejection	NA	0
5	Triplet	62	224	1034	5	0	0	883691	692	0	correct_rejection	NA	0
5	Triplet	63	225	1035	4	0	0	884400	692	0	correct_rejection	NA	0
5	Triplet	64	226	1036	6	0	0	885109	691	0	correct_rejection	NA	0
5	Triplet	65	227	1037	5	0	0	885817	692	0	correct_rejection	NA	0
5	Triplet	66	228	1038	4	0	0	886526	691	0	correct_rejection	NA	0
5	Triplet	67	229	1039	9	0	0	887234	692	0	correct_rejection	NA	0
5	Triplet	68	230	1040	8	0	0	887943	691	0	correct_rejection	NA	0
5	Triplet	69	231	1041	7	0	0	888651	692	0	correct_rejection	NA	0
5	Triplet	70	232	1042	4	0	0	889360	692	0	correct_rejection	NA	0
5	Triplet	71	233	1043	0	1	1	890069	691	1	hit	336	0
5	Triplet	72	234	1044	5	0	0	890777	692	0	correct_rejection	NA	0
5	Triplet	73	235	1045	6	0	0	891486	691	0	correct_rejection	NA	0
5	Triplet	74	236	1046	7	0	0	892194	692	0	correct_rejection	NA	0
5	Triplet	75	237	1047	8	0	0	892903	691	0	correct_rejection	NA	0
5	Triplet	76	238	1048	9	0	0	893611	692	0	correct_rejection	NA	0
5	Triplet	77	239	1049	7	0	0	894320	692	0	correct_rejection	NA	0
5	Triplet	78	240	1050	8	0	0	895028	692	0	correct_rejection	NA	0
5	Triplet	79	241	1051	9	0	0	895737	692	0	correct_rejection	NA	0
5	Triplet	80	242	1052	4	0	0	896446	691	0	correct_rejection	NA	0
5	Triplet	81	243	1053	5	0	0	897154	692	0	correct_rejection	NA	0
5	Triplet	82	244	1054	6	0	0	897863	691	0	correct_rejection	NA	0
5	Triplet	83	245	1055	6	0	0	898571	692	0	correct_rejection	NA	0
5	Triplet	84	246	1056	5	0	0	899280	692	0	correct_rejection	NA	0
5	Triplet	85	247	1057	4	0	0	899988	692	0	correct_rejection	NA	0
5	Triplet	86	248	1058	7	0	0	900697	692	0	correct_rejection	NA	0
5	Triplet	87	249	1059	8	0	0	901406	691	0	correct_rejection	NA	0
5	Triplet	88	250	1060	9	0	0	902114	692	0	correct_rejection	NA	0
5	Triplet	89	251	1061	9	0	0	902823	691	0	correct_rejection	NA	0
5	Triplet	90	252	1062	8	0	0	903531	692	0	correct_rejection	NA	0
5	Triplet	91	253	1063	7	0	0	904240	692	0	correct_rejection	NA	0
5	Triplet	92	254	1064	6	0	0	904948	692	0	correct_rejection	NA	0
5	Triplet	93	255	1065	5	0	0	905657	692	0	correct_rejection	NA	0
5	Triplet	94	256	1066	4	0	0	906366	691	0	correct_rejection	NA	0
5	Triplet	95	257	1067	4	0	0	907074	692	0	correct_rejection	NA	0
5	Triplet	96	258	1068	5	0	0	907783	691	0	correct_rejection	NA	0
5	Triplet	97	259	1069	6	0	0	908491	692	0	correct_rejection	NA	0
5	Triplet	98	260	1070	4	0	0	909200	692	0	correct_rejection	NA	0
5	Triplet	99	261	1071	5	0	0	909908	692	0	correct_rejection	NA	0
5	Triplet	100	262	1072	6	0	0	910617	692	0	correct_rejection	NA	0
5	Triplet	101	263	1073	9	0	0	911326	691	0	correct_rejection	NA	0
5	Triplet	102	264	1074	8	0	0	912034	692	0	correct_rejection	NA	0
5	Triplet	103	265	1075	7	0	0	912743	691	0	correct_rejection	NA	0
5	Triplet	104	266	1076	0	1	2	913451	692	1	hit	332	0
5	Triplet	105	267	1077	9	0	0	914160	692	0	correct_rejection	NA	0
5	Triplet	106	268	1078	8	0	0	914868	692	0	correct_rejection	NA	0
5	Triplet	107	269	1079	7	0	0	915577	692	0	correct_rejection	NA	0
5	Triplet	108	270	1080	4	0	0	916286	691	0	correct_rejection	NA	0
5	Triplet	109	271	1081	5	0	0	916994	692	0	correct_rejection	NA	0
5	Triplet	110	272	1082	6	0	0	917703	691	0	correct_rejection	NA	0
5	Triplet	111	273	1083	4	0	0	918411	692	0	correct_rejection	NA	0
5	Triplet	112	274	1084	5	0	0	919120	691	0	correct_rejection	NA	0
5	Triplet	113	275	1085	6	0	0	919828	692	0	correct_rejection	NA	0
5	Triplet	114	276	1086	6	0	0	920537	692	0	correct_rejection	NA	0
5	Triplet	115	277	1087	0	1	1	921245	692	1	hit	337	0
5	Triplet	116	278	1088	5	0	0	921954	692	0	correct_rejection	NA	0
5	Triplet	117	279	1089	4	0	0	922663	691	0	correct_rejection	NA	0
5	Triplet	118	280	1090	9	0	0	923371	692	0	correct_rejection	NA	0
5	Triplet	119	281	1091	8	0	0	924080	691	0	correct_rejection	NA	0
5	Triplet	120	282	1092	0	1	1	924788	692	1	hit	512	0
5	Triplet	121	283	1093	7	0	0	925497	692	0	correct_rejection	NA	0
5	Triplet	122	284	1094	9	0	0	926205	692	0	correct_rejection	NA	0
5	Triplet	123	285	1095	0	1	1	926914	692	1	hit	442	0
5	Triplet	124	286	1096	8	0	0	927623	691	0	correct_rejection	NA	0
5	Triplet	125	287	1097	7	0	0	928331	692	0	correct_rejection	NA	0
5	Triplet	126	288	1098	6	0	0	929040	691	0	correct_rejection	NA	0
5	Triplet	127	289	1099	5	0	0	929748	692	0	correct_rejection	NA	0
5	Triplet	128	290	1100	4	0	0	930457	692	0	correct_rejection	NA	0
5	Triplet	129	291	1101	6	0	0	931165	692	0	correct_rejection	NA	0
5	Triplet	130	292	1102	5	0	0	931874	692	0	correct_rejection	NA	0
5	Triplet	131	293	1103	4	0	0	932583	691	0	correct_rejection	NA	0
5	Triplet	132	294	1104	7	0	0	933291	692	0	correct_rejection	NA	0
5	Triplet	133	295	1105	0	1	1	934000	691	1	hit	407	0
5	Triplet	134	296	1106	8	0	0	934708	692	0	correct_rejection	NA	0
5	Triplet	135	297	1107	9	0	0	935417	692	0	correct_rejection	NA	0
5	Triplet	136	298	1108	4	0	0	936125	692	0	correct_rejection	NA	0
5	Triplet	137	299	1109	5	0	0	936834	692	0	correct_rejection	NA	0
5	Triplet	138	300	1110	6	0	0	937543	691	0	correct_rejection	NA	0
5	Triplet	139	301	1111	7	0	0	938251	692	0	correct_rejection	NA	0
5	Triplet	140	302	1112	8	0	0	938960	691	0	correct_rejection	NA	0
5	Triplet	141	303	1113	0	1	1	939668	692	1	hit	359	0
5	Triplet	142	304	1114	9	0	0	940377	691	0	correct_rejection	NA	0
5	Triplet	143	305	1115	9	0	0	941085	692	0	correct_rejection	NA	0
5	Triplet	144	306	1116	8	0	0	941794	692	0	correct_rejection	NA	0
5	Triplet	145	307	1117	7	0	0	942503	691	0	correct_rejection	NA	0
5	Triplet	146	308	1118	4	0	0	943211	692	0	correct_rejection	NA	0
5	Triplet	147	309	1119	5	0	0	943920	691	0	correct_rejection	NA	0
5	Triplet	148	310	1120	6	0	0	944628	692	0	correct_rejection	NA	0
5	Triplet	149	311	1121	9	0	0	945337	691	0	correct_rejection	NA	0
5	Triplet	150	312	1122	0	1	1	946045	692	1	hit	295	0
5	Triplet	151	313	1123	8	0	0	946754	692	0	correct_rejection	NA	0
5	Triplet	152	314	1124	7	0	0	947462	692	0	correct_rejection	NA	0
5	Triplet	153	315	1125	7	0	0	948171	692	0	correct_rejection	NA	0
5	Triplet	154	316	1126	8	0	0	948880	691	0	correct_rejection	NA	0
5	Triplet	155	317	1127	9	0	0	949588	692	0	correct_rejection	NA	0
5	Triplet	156	318	1128	7	0	0	950297	691	0	correct_rejection	NA	0
5	Triplet	157	319	1129	0	1	1	951005	692	1	hit	308	0
5	Triplet	158	320	1130	8	0	0	951714	692	0	correct_rejection	NA	0
5	Triplet	159	321	1131	9	0	0	952422	692	0	correct_rejection	NA	0
5	Triplet	160	322	1132	6	0	0	953131	692	0	correct_rejection	NA	0
5	Triplet	161	323	1133	5	0	0	953840	691	0	correct_rejection	NA	0
5	Triplet	162	324	1134	4	0	0	954548	692	0	correct_rejection	NA	0
5	Correct	1	325	1135	4	0	0	964360	691	0	correct_rejection	NA	7799
5	Correct	2	326	1136	5	0	0	965068	692	0	correct_rejection	NA	0
5	Correct	3	327	1137	6	0	0	965777	692	0	correct_rejection	NA	0
5	Correct	4	328	1138	4	0	0	966485	692	0	correct_rejection	NA	0
5	Correct	5	329	1139	5	0	0	967194	692	0	correct_rejection	NA	0
5	Correct	6	330	1140	6	0	0	967903	691	0	correct_rejection	NA	0
5	Correct	7	331	1141	4	0	0	968611	692	0	correct_rejection	NA	0
5	Correct	8	332	1142	5	0	0	969320	691	0	correct_rejection	NA	0
5	Correct	9	333	1143	6	0	0	970028	692	0	correct_rejection	NA	0
5	Correct	10	334	1144	0	1	3	970737	692	1	hit	367	0
5	Correct	11	335	1145	6	0	0	971445	692	0	correct_rejection	NA	0
5	Correct	12	336	1146	5	0	0	972154	692	0	correct_rejection	NA	0
5	Correct	13	337	1147	4	0	0	972863	691	0	correct_rejection	NA	0
5	Correct	14	338	1148	6	0	0	973571	692	0	correct_rejection	NA	0
5	Correct	15	339	1149	5	0	0	974280	691	0	correct_rejection	NA	0
5	Correct	16	340	1150	4	0	0	974988	692	0	correct_rejection	NA	0
5	Correct	17	341	1151	6	0	0	975697	691	0	correct_rejection	NA	0
5	Correct	18	342	1152	0	1	1	976405	692	1	hit	370	0
5	Correct	19	343	1153	5	0	0	977114	692	0	correct_rejection	NA	0
5	Correct	20	344	1154	4	0	0	977823	691	0	correct_rejection	NA	0
5	Correct	21	345	1155	9	0	0	978531	692	0	correct_rejection	NA	0
5	Correct	22	346	1156	8	0	0	979240	691	0	correct_rejection	NA	0
5	Correct	23	347	1157	7	0	0	979948	692	0	correct_rejection	NA	0
5	Correct	24	348	1158	0	1	2	980657	691	1	hit	328	0
5	Correct	25	349	1159	9	0	0	981365	692	0	correct_rejection	NA	0
5	Correct	26	350	1160	8	0	0	982074	692	0	correct_rejection	NA	0
5	Correct	27	351	1161	7	0	0	982782	692	0	correct_rejection	NA	0
5	Correct	28	352	1162	9	0	0	983491	692	0	correct_rejection	NA	0
5	Correct	29	353	1163	8	0	0	984200	691	0	correct_rejection	NA	0
5	Correct	30	354	1164	7	0	0	984908	692	0	correct_rejection	NA	0
5	Correct	31	355	1165	7	0	0	985617	691	0	correct_rejection	NA	0
5	Correct	32	356	1166	8	0	0	986325	692	0	correct_rejection	NA	0
5	Correct	33	357	1167	9	0	0	987034	692	0	correct_rejection	NA	0
5	Correct	34	358	1168	7	0	0	987742	692	0	correct_rejection	NA	0
5	Correct	35	359	1169	8	0	0	988451	692	0	correct_rejection	NA	0
5	Correct	36	360	1170	9	0	0	989160	691	0	correct_rejection	NA	0
5	Correct	37	361	1171	7	0	0	989868	692	0	correct_rejection	NA	0
5	Correct	38	362	1172	0	1	1	990577	691	1	hit	342	0
5	Correct	39	363	1173	8	0	0	991285	692	0	correct_rejection	NA	0
5	Correct	40	364	1174	9	0	0	991994	692	0	correct_rejection	NA	0
5	Correct	41	365	1175	4	0	0	992702	692	0	correct_rejection	NA	0
5	Correct	42	366	1176	5	0	0	993411	692	0	correct_rejection	NA	0
5	Correct	43	367	1177	6	0	0	994120	691	0	correct_rejection	NA	0
5	Correct	44	368	1178	4	0	0	994828	692	0	correct_rejection	NA	0
5	Correct	45	369	1179	5	0	0	995537	691	0	correct_rejection	NA	0
5	Correct	46	370	1180	6	0	0	996245	692	0	correct_rejection	NA	0
5	Correct	47	371	1181	4	0	0	996954	692	0	correct_rejection	NA	0
5	Correct	48	372	1182	0	1	1	997662	692	1	hit	341	0
5	Correct	49	373	1183	5	0	0	998371	692	0	correct_rejection	NA	0
5	Correct	50	374	1184	6	0	0	999080	691	0	correct_rejection	NA	0
5	Correct	51	375	1185	6	0	0	999788	692	0	correct_rejection	NA	0
5	Correct	52	376	1186	5	0	0	1000497	691	0	correct_rejection	NA	0
5	Correct	53	377	1187	4	0	0	1001205	692	0	correct_rejection	NA	0
5	Correct	54	378	1188	6	0	0	1001914	691	0	correct_rejection	NA	0
5	Correct	55	379	1189	5	0	0	1002622	692	0	correct_rejection	NA	0
5	Correct	56	380	1190	4	0	0	1003331	692	0	correct_rejection	NA	0
5	Correct	57	381	1191	6	0	0	1004040	691	0	correct_rejection	NA	0
5	Correct	58	382	1192	5	0	0	1004748	692	0	correct_rejection	NA	0
5	Correct	59	383	1193	4	0	0	1005457	691	0	correct_rejection	NA	0
5	Correct	60	384	1194	9	0	0	1006165	692	0	correct_rejection	NA	0
5	Correct	61	385	1195	8	0	0	1006874	691	0	correct_rejection	NA	0
5	Correct	62	386	1196	7	0	0	1007582	692	0	correct_rejection	NA	0
5	Correct	63	387	1197	9	0	0	1008291	692	0	correct_rejection	NA	0
5	Correct	64	388	1198	8	0	0	1008999	692	0	correct_rejection	NA	0
5	Correct	65	389	1199	0	1	1	1009708	692	1	hit	389	0
5	Correct	66	390	1200	7	0	0	1010417	691	0	correct_rejection	NA	0
5	Correct	67	391	1201	9	0	0	1011125	692	0	correct_rejection	NA	0
5	Correct	68	392	1202	8	0	0	1011834	691	0	correct_rejection	NA	0
5	Correct	69	393	1203	7	0	0	1012542	692	0	correct_rejection	NA	0
5	Correct	70	394	1204	7	0	0	1013251	692	0	correct_rejection	NA	0
5	Correct	71	395	1205	8	0	0	1013959	692	0	correct_rejection	NA	0
5	Correct	72	396	1206	9	0	0	1014668	692	0	correct_rejection	NA	0
5	Correct	73	397	1207	0	1	2	1015377	691	1	hit	559	0
5	Correct	74	398	1208	7	0	0	1016085	692	0	correct_rejection	NA	0
5	Correct	75	399	1209	8	0	0	1016794	691	0	correct_rejection	NA	0
5	Correct	76	400	1210	0	1	1	1017502	692	1	hit	405	0
5	Correct	77	401	1211	9	0	0	1018211	692	0	correct_rejection	NA	0
5	Correct	78	402	1212	7	0	0	1018919	692	0	correct_rejection	NA	0
5	Correct	79	403	1213	8	0	0	1019628	692	0	correct_rejection	NA	0
5	Correct	80	404	1214	0	1	1	1020337	691	1	hit	298	0
5	Correct	81	405	1215	9	0	0	1021045	692	0	correct_rejection	NA	0
5	Correct	82	406	1216	4	0	0	1021754	691	0	correct_rejection	NA	0
5	Correct	83	407	1217	5	0	0	1022462	692	0	correct_rejection	NA	0
5	Correct	84	408	1218	0	1	1	1023171	692	1	hit	306	0
5	Correct	85	409	1219	6	0	0	1023879	692	0	correct_rejection	NA	0
5	Correct	86	410	1220	4	0	0	1024588	692	0	correct_rejection	NA	0
5	Correct	87	411	1221	5	0	0	1025297	691	0	correct_rejection	NA	0
5	Correct	88	412	1222	6	0	0	1026005	692	0	correct_rejection	NA	0
5	Correct	89	413	1223	4	0	0	1026714	691	0	correct_rejection	NA	0
5	Correct	90	414	1224	5	0	0	1027422	692	0	correct_rejection	NA	0
5	Correct	91	415	1225	6	0	0	1028131	691	0	correct_rejection	NA	0
5	Correct	92	416	1226	6	0	0	1028839	692	0	correct_rejection	NA	0
5	Correct	93	417	1227	5	0	0	1029548	692	0	correct_rejection	NA	0
5	Correct	94	418	1228	4	0	0	1030256	692	0	correct_rejection	NA	0
5	Correct	95	419	1229	6	0	0	1030965	692	0	correct_rejection	NA	0
5	Correct	96	420	1230	5	0	0	1031674	691	0	correct_rejection	NA	0
5	Correct	97	421	1231	4	0	0	1032382	692	0	correct_rejection	NA	0
5	Correct	98	422	1232	6	0	0	1033091	691	0	correct_rejection	NA	0
5	Correct	99	423	1233	5	0	0	1033799	692	0	correct_rejection	NA	0
5	Correct	100	424	1234	4	0	0	1034508	692	0	correct_rejection	NA	0
5	Correct	101	425	1235	9	0	0	1035216	692	0	correct_rejection	NA	0
5	Correct	102	426	1236	8	0	0	1035925	692	0	correct_rejection	NA	0
5	Correct	103	427	1237	7	0	0	1036634	691	0	correct_rejection	NA	0
5	Correct	104	428	1238	0	1	2	1037342	692	1	hit	398	0
5	Correct	105	429	1239	9	0	0	1038051	691	0	correct_rejection	NA	0
5	Correct	106	430	1240	8	0	0	1038759	692	0	correct_rejection	NA	0
5	Correct	107	431	1241	7	0	0	1039468	692	0	correct_rejection	NA	0
5	Correct	108	432	1242	9	0	0	1040176	692	0	correct_rejection	NA	0
5	Correct	109	433	1243	8	0	0	1040885	692	0	correct_rejection	NA	0
5	Correct	110	434	1244	7	0	0	1041594	691	0	correct_rejection	NA	0
5	Correct	111	435	1245	0	1	3	1042302	692	1	hit	380	0
5	Correct	112	436	1246	7	0	0	1043011	691	0	correct_rejection	NA	0
5	Correct	113	437	1247	8	0	0	1043719	692	0	correct_rejection	NA	0
5	Correct	114	438	1248	9	0	0	1044428	692	0	correct_rejection	NA	0
5	Correct	115	439	1249	7	0	0	1045136	692	0	correct_rejection	NA	0
5	Correct	116	440	1250	0	1	1	1045845	692	1	hit	333	0
5	Correct	117	441	1251	8	0	0	1046554	691	0	correct_rejection	NA	0
5	Correct	118	442	1252	9	0	0	1047262	692	0	correct_rejection	NA	0
5	Correct	119	443	1253	7	0	0	1047971	691	0	correct_rejection	NA	0
5	Correct	120	444	1254	0	1	1	1048679	692	1	hit	292	0
5	Correct	121	445	1255	8	0	0	1049388	691	0	correct_rejection	NA	0
5	Correct	122	446	1256	9	0	0	1050096	692	0	correct_rejection	NA	0
5	Correct	123	447	1257	4	0	0	1050805	692	0	correct_rejection	NA	0
5	Correct	124	448	1258	5	0	0	1051514	691	0	correct_rejection	NA	0
5	Correct	125	449	1259	6	0	0	1052222	692	0	correct_rejection	NA	0
5	Correct	126	450	1260	4	0	0	1052931	691	0	correct_rejection	NA	0
5	Correct	127	451	1261	0	1	1	1053639	692	1	hit	313	0
5	Correct	128	452	1262	5	0	0	1054348	691	0	correct_rejection	NA	0
5	Correct	129	453	1263	6	0	0	1055056	692	0	correct_rejection	NA	0
5	Correct	130	454	1264	4	0	0	1055765	692	0	correct_rejection	NA	0
5	Correct	131	455	1265	5	0	0	1056473	692	0	correct_rejection	NA	0
5	Correct	132	456	1266	6	0	0	1057182	692	0	correct_rejection	NA	0
5	Correct	133	457	1267	6	0	0	1057891	691	0	correct_rejection	NA	0
5	Correct	134	458	1268	5	0	0	1058599	692	0	correct_rejection	NA	0
5	Correct	135	459	1269	0	1	1	1059308	691	1	hit	338	0
5	Correct	136	460	1270	4	0	0	1060016	692	0	correct_rejection	NA	0
5	Correct	137	461	1271	6	0	0	1060725	692	0	correct_rejection	NA	0
5	Correct	138	462	1272	5	0	0	1061433	692	0	correct_rejection	NA	0
5	Correct	139	463	1273	4	0	0	1062142	692	0	correct_rejection	NA	0
5	Correct	140	464	1274	6	0	0	1062851	691	0	correct_rejection	NA	0
5	Correct	141	465	1275	5	0	0	1063559	692	0	correct_rejection	NA	0
5	Correct	142	466	1276	4	0	0	1064268	691	0	correct_rejection	NA	0
5	Correct	143	467	1277	9	0	0	1064976	692	0	correct_rejection	NA	0
5	Correct	144	468	1278	8	0	0	1065685	692	0	correct_rejection	NA	0
5	Correct	145	469	1279	7	0	0	1066393	692	0	correct_rejection	NA	0
5	Correct	146	470	1280	9	0	0	1067102	692	0	correct_rejection	NA	0
5	Correct	147	471	1281	0	1	1	1067811	691	1	hit	350	0
5	Correct	148	472	1282	8	0	0	1068519	692	0	correct_rejection	NA	0
5	Correct	149	473	1283	7	0	0	1069228	691	0	correct_rejection	NA	0
5	Correct	150	474	1284	9	0	0	1069936	692	0	correct_rejection	NA	0
5	Correct	151	475	1285	8	0	0	1070645	692	0	correct_rejection	NA	0
5	Correct	152	476	1286	7	0	0	1071353	692	0	correct_rejection	NA	0
5	Correct	153	477	1287	7	0	0	1072062	692	0	correct_rejection	NA	0
5	Correct	154	478	1288	8	0	0	1072771	691	0	correct_rejection	NA	0
5	Correct	155	479	1289	9	0	0	1073479	692	0	correct_rejection	NA	0
5	Correct	156	480	1290	0	1	2	1074188	691	1	hit	383	0
5	Correct	157	481	1291	7	0	0	1074896	692	0	correct_rejection	NA	0
5	Correct	158	482	1292	8	0	0	1075605	691	0	correct_rejection	NA	0
5	Correct	159	483	1293	9	0	0	1076313	692	0	correct_rejection	NA	0
5	Correct	160	484	1294	7	0	0	1077022	692	0	correct_rejection	NA	0
5	Correct	161	485	1295	8	0	0	1077731	691	0	correct_rejection	NA	0
5	Correct	162	486	1296	9	0	0	1078439	692	0	correct_rejection	NA	0
5	Single	1	163	1297	8	0	0	1087559	691	0	correct_rejection	NA	6999
5	Single	2	164	1298	6	0	0	1088267	692	0	correct_rejection	NA	0
5	Single	3	165	1299	7	0	0	1088976	692	0	correct_rejection	NA	0
5	Single	4	166	1300	5	0	0	1089684	692	0	correct_rejection	NA	0
5	Single	5	167	1301	0	1	1	1090393	692	1	hit	335	0
5	Single	6	168	1302	5	0	0	1091102	691	0	correct_rejection	NA	0
5	Single	7	169	1303	7	0	0	1091810	692	0	correct_rejection	NA	0
5	Single	8	170	1304	6	0	0	1092519	691	0	correct_rejection	NA	0
5	Single	9	171	1305	0	1	1	1093227	692	1	hit	406	0
5	Single	10	172	1306	8	0	0	1093936	692	0	correct_rejection	NA	0
5	Single	11	173	1307	7	0	0	1094644	692	0	correct_rejection	NA	0
5	Single	12	174	1308	7	0	0	1095353	692	0	correct_rejection	NA	0
5	Single	13	175	1309	8	0	0	1096062	691	0	correct_rejection	NA	0
5	Single	14	176	1310	8	0	0	1096770	692	0	correct_rejection	NA	0
5	Single	15	177	1311	4	0	0	1097479	691	0	correct_rejection	NA	0
5	Single	16	178	1312	7	0	0	1098187	692	0	correct_rejection	NA	0
5	Single	17	179	1313	0	1	1	1098896	692	1	hit	440	0
5	Single	18	180	1314	9	0	0	1099604	692	0	correct_rejection	NA	0
5	Single	19	181	1315	6	0	0	1100313	692	0	correct_rejection	NA	0
5	Single	20	182	1316	5	0	0	1101022	691	0	correct_rejection	NA	0
5	Single	21	183	1317	9	0	0	1101730	692	0	correct_rejection	NA	0
5	Single	22	184	1318	7	0	0	1102439	691	0	correct_rejection	NA	0
5	Single	23	185	1319	4	0	0	1103147	692	0	correct_rejection	NA	0
5	Single	24	186	1320	4	0	0	1103856	691	0	correct_rejection	NA	0
5	Single	25	187	1321	0	1	1	1104564	692	1	hit	337	0
5	Single	26	188	1322	6	0	0	1105273	692	0	correct_rejection	NA	0
5	Single	27	189	1323	9	0	0	1105982	691	0	correct_rejection	NA	0
5	Single	28	190	1324	9	0	0	1106690	692	0	correct_rejection	NA	0
5	Single	29	191	1325	5	0	0	1107399	691	0	correct_rejection	NA	0
5	Single	30	192	1326	6	0	0	1108107	692	0	correct_rejection	NA	0
5	Single	31	193	1327	6	0	0	1108816	691	0	correct_rejection	NA	0
5	Single	32	194	1328	0	1	1	1109524	692	1	hit	400	0
5	Single	33	195	1329	4	0	0	1110233	692	0	correct_rejection	NA	0
5	Single	34	196	1330	8	0	0	1110941	692	0	correct_rejection	NA	0
5	Single	35	197	1331	5	0	0	1111650	692	0	correct_rejection	NA	0
5	Single	36	198	1332	4	0	0	1112359	691	0	correct_rejection	NA	0
5	Single	37	199	1333	9	0	0	1113067	692	0	correct_rejection	NA	0
5	Single	38	200	1334	4	0	0	1113776	691	0	correct_rejection	NA	0
5	Single	39	201	1335	5	0	0	1114484	692	0	correct_rejection	NA	0
5	Single	40	202	1336	8	0	0	1115193	692	0	correct_rejection	NA	0
5	Single	41	203	1337	9	0	0	1115901	692	0	correct_rejection	NA	0
5	Single	42	204	1338	9	0	0	1116610	692	0	correct_rejection	NA	0
5	Single	43	205	1339	7	0	0	1117319	691	0	correct_rejection	NA	0
5	Single	44	206	1340	6	0	0	1118027	692	0	correct_rejection	NA	0
5	Single	45	207	1341	9	0	0	1118736	691	0	correct_rejection	NA	0
5	Single	46	208	1342	6	0	0	1119444	692	0	correct_rejection	NA	0
5	Single	47	209	1343	8	0	0	1120153	692	0	correct_rejection	NA	0
5	Single	48	210	1344	0	1	1	1120861	692	1	hit	338	0
5	Single	49	211	1345	4	0	0	1121570	692	0	correct_rejection	NA	0
5	Single	50	212	1346	8	0	0	1122279	691	0	correct_rejection	NA	0
5	Single	51	213	1347	8	0	0	1122987	692	0	correct_rejection	NA	0
5	Single	52	214	1348	0	1	1	1123696	691	1	hit	388	0
5	Single	53	215	1349	5	0	0	1124404	692	0	correct_rejection	NA	0
5	Single	54	216	1350	7	0	0	1125113	692	0	correct_rejection	NA	0
5	Single	55	217	1351	7	0	0	1125821	692	0	correct_rejection	NA	0
5	Single	56	218	1352	5	0	0	1126530	692	0	correct_rejection	NA	0
5	Single	57	219	1353	6	0	0	1127239	691	0	correct_rejection	NA	0
5	Single	58	220	1354	4	0	0	1127947	692	0	correct_rejection	NA	0
5	Single	59	221	1355	7	0	0	1128656	691	0	correct_rejection	NA	0
5	Single	60	222	1356	0	1	1	1129364	692	1	hit	326	0
5	Single	61	223	1357	4	0	0	1130073	691	0	correct_rejection	NA	0
5	Single	62	224	1358	6	0	0	1130781	692	0	correct_rejection	NA	0
5	Single	63	225	1359	5	0	0	1131490	692	0	correct_rejection	NA	0
5	Single	64	226	1360	5	0	0	1132199	691	0	correct_rejection	NA	0
5	Single	65	227	1361	8	0	0	1132907	692	0	correct_rejection	NA	0
5	Single	66	228	1362	0	1	1	1133616	691	1	hit	352	0
5	Single	67	229	1363	7	0	0	1134324	692	0	correct_rejection	NA	0
5	Single	68	230	1364	8	0	0	1135033	691	0	correct_rejection	NA	0
5	Single	69	231	1365	9	0	0	1135741	692	0	correct_rejection	NA	0
5	Single	70	232	1366	0	1	1	1136450	692	1	hit	334	0
5	Single	71	233	1367	4	0	0	1137158	692	0	correct_rejection	NA	0
5	Single	72	234	1368	9	0	0	1137867	692	1	false_alarm	394	0
5	Single	73	235	1369	5	0	0	1138576	691	0	correct_rejection	NA	0
5	Single	74	236	1370	4	0	0	1139284	692	0	correct_rejection	NA	0
5	Single	75	237	1371	4	0	0	1139993	691	0	correct_rejection	NA	0
5	Single	76	238	1372	5	0	0	1140701	692	0	correct_rejection	NA	0
5	Single	77	239	1373	0	1	1	1141410	692	1	hit	296	0
5	Single	78	240	1374	9	0	0	1142118	692	0	correct_rejection	NA	0
5	Single	79	241	1375	9	0	0	1142827	692	0	correct_rejection	NA	0
5	Single	80	242	1376	8	0	0	1143536	691	0	correct_rejection	NA	0
5	Single	81	243	1377	6	0	0	1144244	692	0	correct_rejection	NA	0
5	Single	82	244	1378	6	0	0	1144953	691	0	correct_rejection	NA	0
5	Single	83	245	1379	7	0	0	1145661	692	0	correct_rejection	NA	0
5	Single	84	246	1380	7	0	0	1146370	692	0	correct_rejection	NA	0
5	Single	85	247	1381	5	0	0	1147078	692	0	correct_rejection	NA	0
5	Single	86	248	1382	7	0	0	1147787	692	0	correct_rejection	NA	0
5	Single	87	249	1383	9	0	0	1148496	691	0	correct_rejection	NA	0
5	Single	88	250	1384	9	0	0	1149204	692	0	correct_rejection	NA	0
5	Single	89	251	1385	7	0	0	1149913	691	0	correct_rejection	NA	0
5	Single	90	252	1386	7	0	0	1150621	692	0	correct_rejection	NA	0
5	Single	91	253	1387	4	0	0	1151330	692	0	correct_rejection	NA	0
5	Single	92	254	1388	8	0	0	1152038	692	0	correct_rejection	NA	0
5	Single	93	255	1389	7	0	0	1152747	692	0	correct_rejection	NA	0
5	Single	94	256	1390	6	0	0	1153456	691	0	correct_rejection	NA	0
5	Single	95	257	1391	5	0	0	1154164	692	0	correct_rejection	NA	0
5	Single	96	258	1392	6	0	0	1154873	691	0	correct_rejection	NA	0
5	Single	97	259	1393	7	0	0	1155581	692	0	correct_rejection	NA	0
5	Single	98	260	1394	8	0	0	1156290	691	0	correct_rejection	NA	0
5	Single	99	261	1395	5	0	0	1156998	692	0	correct_rejection	NA	0
5	Single	100	262	1396	9	0	0	1157707	692	0	correct_rejection	NA	0
5	Single	101	263	1397	4	0	0	1158415	692	0	correct_rejection	NA	0
5	Single	102	264	1398	4	0	0	1159124	692	0	correct_rejection	NA	0
5	Single	103	265	1399	9	0	0	1159833	691	0	correct_rejection	NA	0
5	Single	104	266	1400	0	1	1	1160541	692	1	hit	394	0
5	Single	105	267	1401	8	0	0	1161250	691	0	correct_rejection	NA	0
5	Single	106	268	1402	9	0	0	1161958	692	0	correct_rejection	NA	0
5	Single	107	269	1403	6	0	0	1162667	692	0	correct_rejection	NA	0
5	Single	108	270	1404	9	0	0	1163375	692	0	correct_rejection	NA	0
5	Single	109	271	1405	0	1	1	1164084	692	1	hit	438	0
5	Single	110	272	1406	5	0	0	1164793	691	0	correct_rejection	NA	0
5	Single	111	273	1407	8	0	0	1165501	692	0	correct_rejection	NA	0
5	Single	112	274	1408	4	0	0	1166210	691	0	correct_rejection	NA	0
5	Single	113	275	1409	5	0	0	1166918	692	0	correct_rejection	NA	0
5	Single	114	276	1410	5	0	0	1167627	692	0	correct_rejection	NA	0
5	Single	115	277	1411	4	0	0	1168335	692	0	correct_rejection	NA	0
5	Single	116	278	1412	6	0	0	1169044	692	0	correct_rejection	NA	0
5	Single	117	279	1413	6	0	0	1169753	691	0	correct_rejection	NA	0
5	Single	118	280	1414	8	0	0	1170461	692	0	correct_rejection	NA	0
5	Single	119	281	1415	8	0	0	1171170	691	0	correct_rejection	NA	0
5	Single	120	282	1416	6	0	0	1171878	692	0	correct_rejection	NA	0
5	Single	121	283	1417	4	0	0	1172587	692	0	correct_rejection	NA	0
5	Single	122	284	1418	8	0	0	1173295	692	0	correct_rejection	NA	0
5	Single	123	285	1419	4	0	0	1174004	692	0	correct_rejection	NA	0
5	Single	124	286	1420	6	0	0	1174713	691	0	correct_rejection	NA	0
5	Single	125	287	1421	0	1	1	1175421	692	1	hit	415	0
5	Single	126	288	1422	9	0	0	1176130	691	0	correct_rejection	NA	0
5	Single	127	289	1423	8	0	0	1176838	692	0	correct_rejection	NA	0
5	Single	128	290	1424	8	0	0	1177547	692	0	correct_rejection	NA	0
5	Single	129	291	1425	0	1	1	1178255	692	1	hit	474	0
5	Single	130	292	1426	9	0	0	1178964	692	0	correct_rejection	NA	0
5	Single	131	293	1427	5	0	0	1179673	691	0	correct_rejection	NA	0
5	Single	132	294	1428	9	0	0	1180381	692	0	correct_rejection	NA	0
5	Single	133	295	1429	7	0	0	1181090	691	0	correct_rejection	NA	0
5	Single	134	296	1430	5	0	0	1181798	692	0	correct_rejection	NA	0
5	Single	135	297	1431	8	0	0	1182507	691	0	correct_rejection	NA	0
5	Single	136	298	1432	5	0	0	1183215	692	0	correct_rejection	NA	0
5	Single	137	299	1433	5	0	0	1183924	692	0	correct_rejection	NA	0
5	Single	138	300	1434	6	0	0	1184632	692	0	correct_rejection	NA	0
5	Single	139	301	1435	8	0	0	1185341	692	0	correct_rejection	NA	0
5	Single	140	302	1436	0	1	1	1186050	691	1	hit	405	0
5	Single	141	303	1437	6	0	0	1186758	692	0	correct_rejection	NA	0
5	Single	142	304	1438	7	0	0	1187467	691	0	correct_rejection	NA	0
5	Single	143	305	1439	9	0	0	1188175	692	0	correct_rejection	NA	0
5	Single	144	306	1440	6	0	0	1188884	692	0	correct_rejection	NA	0
5	Single	145	307	1441	0	1	1	1189592	692	1	hit	364	0
5	Single	146	308	1442	5	0	0	1190301	692	0	correct_rejection	NA	0
5	Single	147	309	1443	4	0	0	1191010	691	0	correct_rejection	NA	0
5	Single	148	310	1444	0	1	1	1191718	692	1	hit	373	0
5	Single	149	311	1445	5	0	0	1192427	691	0	correct_rejection	NA	0
5	Single	150	312	1446	7	0	0	1193135	692	0	correct_rejection	NA	0
5	Single	151	313	1447	8	0	0	1193844	692	0	correct_rejection	NA	0
5	Single	152	314	1448	7	0	0	1194552	692	0	correct_rejection	NA	0
5	Single	153	315	1449	4	0	0	1195261	692	0	correct_rejection	NA	0
5	Single	154	316	1450	4	0	0	1195970	691	0	correct_rejection	NA	0
5	Single	155	317	1451	7	0	0	1196678	692	0	correct_rejection	NA	0
5	Single	156	318	1452	7	0	0	1197387	691	0	correct_rejection	NA	0
5	Single	157	319	1453	6	0	0	1198095	692	0	correct_rejection	NA	0
5	Single	158	320	1454	6	0	0	1198804	692	0	correct_rejection	NA	0
5	Single	159	321	1455	4	0	0	1199512	692	0	correct_rejection	NA	0
5	Single	160	322	1456	9	0	0	1200221	692	0	correct_rejection	NA	0
5	Single	161	323	1457	9	0	0	1200930	691	0	correct_rejection	NA	0
5	Single	162	324	1458	4	0	0	1201638	692	0	correct_rejection	NA	0
5	Nonet	1	649	1459	6	0	0	1211375	691	0	correct_rejection	NA	7809
5	Nonet	2	650	1460	5	0	0	1212083	692	0	correct_rejection	NA	0
5	Nonet	3	651	1461	4	0	0	1212792	691	0	correct_rejection	NA	0
5	Nonet	4	652	1462	6	0	0	1213500	692	0	correct_rejection	NA	0
5	Nonet	5	653	1463	5	0	0	1214209	692	0	correct_rejection	NA	0
5	Nonet	6	654	1464	4	0	0	1214917	692	0	correct_rejection	NA	0
5	Nonet	7	655	1465	6	0	0	1215626	692	0	correct_rejection	NA	0
5	Nonet	8	656	1466	5	0	0	1216335	691	0	correct_rejection	NA	0
5	Nonet	9	657	1467	4	0	0	1217043	692	0	correct_rejection	NA	0
5	Nonet	10	658	1468	9	0	0	1217752	691	0	correct_rejection	NA	0
5	Nonet	11	659	1469	8	0	0	1218460	692	0	correct_rejection	NA	0
5	Nonet	12	660	1470	7	0	0	1219169	692	0	correct_rejection	NA	0
5	Nonet	13	661	1471	9	0	0	1219877	692	0	correct_rejection	NA	0
5	Nonet	14	662	1472	8	0	0	1220586	692	0	correct_rejection	NA	0
5	Nonet	15	663	1473	7	0	0	1221295	691	0	correct_rejection	NA	0
5	Nonet	16	664	1474	0	1	2	1222003	692	1	hit	572	0
5	Nonet	17	665	1475	9	0	0	1222712	691	0	correct_rejection	NA	0
5	Nonet	18	666	1476	8	0	0	1223420	692	0	correct_rejection	NA	0
5	Nonet	19	667	1477	7	0	0	1224129	692	0	correct_rejection	NA	0
5	Nonet	20	668	1478	0	1	3	1224837	692	1	hit	433	0
5	Nonet	21	669	1479	4	0	0	1225546	692	0	correct_rejection	NA	0
5	Nonet	22	670	1480	5	0	0	1226255	691	0	correct_rejection	NA	0
5	Nonet	23	671	1481	0	1	1	1226963	692	1	hit	382	0
5	Nonet	24	672	1482	6	0	0	1227672	691	0	correct_rejection	NA	0
5	Nonet	25	673	1483	4	0	0	1228380	692	0	correct_rejection	NA	0
5	Nonet	26	674	1484	5	0	0	1229089	692	0	correct_rejection	NA	0
5	Nonet	27	675	1485	6	0	0	1229797	692	0	correct_rejection	NA	0
5	Nonet	28	676	1486	4	0	0	1230506	692	0	correct_rejection	NA	0
5	Nonet	29	677	1487	5	0	0	1231215	691	0	correct_rejection	NA	0
5	Nonet	30	678	1488	0	1	1	1231923	692	1	hit	322	0
5	Nonet	31	679	1489	6	0	0	1232632	691	0	correct_rejection	NA	0
5	Nonet	32	680	1490	4	0	0	1233340	692	0	correct_rejection	NA	0
5	Nonet	33	681	1491	5	0	0	1234049	692	0	correct_rejection	NA	0
5	Nonet	34	682	1492	6	0	0	1234757	692	0	correct_rejection	NA	0
5	Nonet	35	683	1493	4	0	0	1235466	692	0	correct_rejection	NA	0
5	Nonet	36	684	1494	5	0	0	1236175	691	0	correct_rejection	NA	0
5	Nonet	37	685	1495	6	0	0	1236883	692	0	correct_rejection	NA	0
5	Nonet	38	686	1496	4	0	0	1237592	691	0	correct_rejection	NA	0
5	Nonet	39	687	1497	5	0	0	1238300	692	0	correct_rejection	NA	0
5	Nonet	40	688	1498	6	0	0	1239009	691	0	correct_rejection	NA	0
5	Nonet	41	689	1499	6	0	0	1239717	692	0	correct_rejection	NA	0
5	Nonet	42	690	1500	5	0	0	1240426	692	0	correct_rejection	NA	0
5	Nonet	43	691	1501	4	0	0	1241134	692	0	correct_rejection	NA	0
5	Nonet	44	692	1502	6	0	0	1241843	692	0	correct_rejection	NA	0
5	Nonet	45	693	1503	5	0	0	1242552	691	0	correct_rejection	NA	0
5	Nonet	46	694	1504	4	0	0	1243260	692	0	correct_rejection	NA	0
5	Nonet	47	695	1505	6	0	0	1243969	691	0	correct_rejection	NA	0
5	Nonet	48	696	1506	5	0	0	1244677	692	0	correct_rejection	NA	0
5	Nonet	49	697	1507	0	1	1	1245386	692	1	hit	331	0
5	Nonet	50	698	1508	4	0	0	1246094	692	0	correct_rejection	NA	0
5	Nonet	51	699	1509	6	0	0	1246803	692	0	correct_rejection	NA	0
5	Nonet	52	700	1510	5	0	0	1247512	691	0	correct_rejection	NA	0
5	Nonet	53	701	1511	4	0	0	1248220	692	0	correct_rejection	NA	0
5	Nonet	54	702	1512	6	0	0	1248929	691	0	correct_rejection	NA	0
5	Nonet	55	703	1513	0	1	1	1249637	692	1	hit	368	0
5	Nonet	56	704	1514	5	0	0	1250346	692	0	correct_rejection	NA	0
5	Nonet	57	705	1515	4	0	0	1251054	692	0	correct_rejection	NA	0
5	Nonet	58	706	1516	0	1	2	1251763	692	0	miss	NA	0
5	Nonet	59	707	1517	6	0	0	1252472	691	0	correct_rejection	NA	0
5	Nonet	60	708	1518	5	0	0	1253180	692	0	correct_rejection	NA	0
5	Nonet	61	709	1519	4	0	0	1253889	691	0	correct_rejection	NA	0
5	Nonet	62	710	1520	4	0	0	1254597	692	0	correct_rejection	NA	0
5	Nonet	63	711	1521	5	0	0	1255306	692	0	correct_rejection	NA	0
5	Nonet	64	712	1522	6	0	0	1256014	692	0	correct_rejection	NA	0
5	Nonet	65	713	1523	4	0	0	1256723	692	0	correct_rejection	NA	0
5	Nonet	66	714	1524	5	0	0	1257432	691	0	correct_rejection	NA	0
5	Nonet	67	715	1525	6	0	0	1258140	692	0	correct_rejection	NA	0
5	Nonet	68	716	1526	4	0	0	1258849	691	0	correct_rejection	NA	0
5	Nonet	69	717	1527	5	0	0	1259557	692	0	correct_rejection	NA	0
5	Nonet	70	718	1528	6	0	0	1260266	692	0	correct_rejection	NA	0
5	Nonet	71	719	1529	7	0	0	1260974	692	0	correct_rejection	NA	0
5	Nonet	72	720	1530	8	0	0	1261683	692	0	correct_rejection	NA	0
5	Nonet	73	721	1531	9	0	0	1262392	691	0	correct_rejection	NA	0
5	Nonet	74	722	1532	0	1	2	1263100	692	1	hit	271	0
5	Nonet	75	723	1533	7	0	0	1263809	691	0	correct_rejection	NA	0
5	Nonet	76	724	1534	8	0	0	1264517	692	0	correct_rejection	NA	0
5	Nonet	77	725	1535	0	1	1	1265226	691	1	hit	416	0
5	Nonet	78	726	1536	9	0	0	1265934	692	0	correct_rejection	NA	0
5	Nonet	79	727	1537	7	0	0	1266643	692	0	correct_rejection	NA	0
5	Nonet	80	728	1538	8	0	0	1267351	692	0	correct_rejection	NA	0
5	Nonet	81	729	1539	9	0	0	1268060	692	0	correct_rejection	NA	0
5	Nonet	82	730	1540	6	0	0	1268769	691	0	correct_rejection	NA	0
5	Nonet	83	731	1541	5	0	0	1269477	692	0	correct_rejection	NA	0
5	Nonet	84	732	1542	4	0	0	1270186	691	0	correct_rejection	NA	0
5	Nonet	85	733	1543	6	0	0	1270894	692	0	correct_rejection	NA	0
5	Nonet	86	734	1544	5	0	0	1271603	692	0	correct_rejection	NA	0
5	Nonet	87	735	1545	4	0	0	1272311	692	0	correct_rejection	NA	0
5	Nonet	88	736	1546	0	1	2	1273020	692	1	hit	314	0
5	Nonet	89	737	1547	6	0	0	1273729	691	0	correct_rejection	NA	0
5	Nonet	90	738	1548	5	0	0	1274437	692	0	correct_rejection	NA	0
5	Nonet	91	739	1549	4	0	0	1275146	691	0	correct_rejection	NA	0
5	Nonet	92	740	1550	7	0	0	1275854	692	0	correct_rejection	NA	0
5	Nonet	93	741	1551	8	0	0	1276563	692	0	correct_rejection	NA	0
5	Nonet	94	742	1552	9	0	0	1277271	692	0	correct_rejection	NA	0
5	Nonet	95	743	1553	7	0	0	1277980	692	0	correct_rejection	NA	0
5	Nonet	96	744	1554	8	0	0	1278689	691	0	correct_rejection	NA	0
5	Nonet	97	745	1555	9	0	0	1279397	692	0	correct_rejection	NA	0
5	Nonet	98	746	1556	7	0	0	1280106	691	0	correct_rejection	NA	0
5	Nonet	99	747	1557	0	1	1	1280814	692	1	hit	381	0
5	Nonet	100	748	1558	8	0	0	1281523	692	0	correct_rejection	NA	0
5	Nonet	101	749	1559	9	0	0	1282231	692	0	correct_rejection	NA	0
5	Nonet	102	750	1560	4	0	0	1282940	692	0	correct_rejection	NA	0
5	Nonet	103	751	1561	0	1	1	1283649	691	1	hit	459	0
5	Nonet	104	752	1562	5	0	0	1284357	692	0	correct_rejection	NA	0
5	Nonet	105	753	1563	6	0	0	1285066	691	0	correct_rejection	NA	0
5	Nonet	106	754	1564	0	1	2	1285774	692	1	hit	338	0
5	Nonet	107	755	1565	4	0	0	1286483	691	0	correct_rejection	NA	0
5	Nonet	108	756	1566	5	0	0	1287191	692	0	correct_rejection	NA	0
5	Nonet	109	757	1567	6	0	0	1287900	692	0	correct_rejection	NA	0
5	Nonet	110	758	1568	4	0	0	1288609	691	0	correct_rejection	NA	0
5	Nonet	111	759	1569	5	0	0	1289317	692	0	correct_rejection	NA	0
5	Nonet	112	760	1570	6	0	0	1290026	691	0	correct_rejection	NA	0
5	Nonet	113	761	1571	9	0	0	1290734	692	0	correct_rejection	NA	0
5	Nonet	114	762	1572	8	0	0	1291443	691	0	correct_rejection	NA	0
5	Nonet	115	763	1573	7	0	0	1292151	692	0	correct_rejection	NA	0
5	Nonet	116	764	1574	9	0	0	1292860	692	0	correct_rejection	NA	0
5	Nonet	117	765	1575	0	1	1	1293568	692	1	hit	341	0
5	Nonet	118	766	1576	8	0	0	1294277	692	0	correct_rejection	NA	0
5	Nonet	119	767	1577	7	0	0	1294986	691	0	correct_rejection	NA	0
5	Nonet	120	768	1578	9	0	0	1295694	692	0	correct_rejection	NA	0
5	Nonet	121	769	1579	8	0	0	1296403	691	0	correct_rejection	NA	0
5	Nonet	122	770	1580	0	1	1	1297111	692	1	hit	366	0
5	Nonet	123	771	1581	7	0	0	1297820	692	0	correct_rejection	NA	0
5	Nonet	124	772	1582	9	0	0	1298528	692	0	correct_rejection	NA	0
5	Nonet	125	773	1583	8	0	0	1299237	692	0	correct_rejection	NA	0
5	Nonet	126	774	1584	7	0	0	1299946	691	0	correct_rejection	NA	0
5	Nonet	127	775	1585	0	1	2	1300654	692	1	hit	520	0
5	Nonet	128	776	1586	9	0	0	1301363	691	0	correct_rejection	NA	0
5	Nonet	129	777	1587	8	0	0	1302071	692	0	correct_rejection	NA	0
5	Nonet	130	778	1588	0	1	1	1302780	692	1	hit	368	0
5	Nonet	131	779	1589	7	0	0	1303488	692	0	correct_rejection	NA	0
5	Nonet	132	780	1590	9	0	0	1304197	692	0	correct_rejection	NA	0
5	Nonet	133	781	1591	8	0	0	1304906	691	0	correct_rejection	NA	0
5	Nonet	134	782	1592	7	0	0	1305614	692	0	correct_rejection	NA	0
5	Nonet	135	783	1593	7	0	0	1306323	691	0	correct_rejection	NA	0
5	Nonet	136	784	1594	8	0	0	1307031	692	0	correct_rejection	NA	0
5	Nonet	137	785	1595	9	0	0	1307740	692	0	correct_rejection	NA	0
5	Nonet	138	786	1596	7	0	0	1308448	692	0	correct_rejection	NA	0
5	Nonet	139	787	1597	8	0	0	1309157	692	0	correct_rejection	NA	0
5	Nonet	140	788	1598	9	0	0	1309866	691	0	correct_rejection	NA	0
5	Nonet	141	789	1599	7	0	0	1310574	692	0	correct_rejection	NA	0
5	Nonet	142	790	1600	8	0	0	1311283	691	0	correct_rejection	NA	0
5	Nonet	143	791	1601	9	0	0	1311991	692	0	correct_rejection	NA	0
5	Nonet	144	792	1602	0	1	3	1312700	691	1	hit	320	0
5	Nonet	145	793	1603	7	0	0	1313408	692	0	correct_rejection	NA	0
5	Nonet	146	794	1604	8	0	0	1314117	692	0	correct_rejection	NA	0
5	Nonet	147	795	1605	9	0	0	1314826	691	0	correct_rejection	NA	0
5	Nonet	148	796	1606	7	0	0	1315534	692	0	correct_rejection	NA	0
5	Nonet	149	797	1607	8	0	0	1316243	691	0	correct_rejection	NA	0
5	Nonet	150	798	1608	9	0	0	1316951	692	0	correct_rejection	NA	0
5	Nonet	151	799	1609	7	0	0	1317660	691	0	correct_rejection	NA	0
5	Nonet	152	800	1610	8	0	0	1318368	692	0	correct_rejection	NA	0
5	Nonet	153	801	1611	9	0	0	1319077	692	0	correct_rejection	NA	0
5	Nonet	154	802	1612	9	0	0	1319785	692	0	correct_rejection	NA	0
5	Nonet	155	803	1613	8	0	0	1320494	692	0	correct_rejection	NA	0
5	Nonet	156	804	1614	7	0	0	1321203	691	0	correct_rejection	NA	0
5	Nonet	157	805	1615	9	0	0	1321911	692	0	correct_rejection	NA	0
5	Nonet	158	806	1616	8	0	0	1322620	691	0	correct_rejection	NA	0
5	Nonet	159	807	1617	7	0	0	1323328	692	0	correct_rejection	NA	0
5	Nonet	160	808	1618	9	0	0	1324037	692	0	correct_rejection	NA	0
5	Nonet	161	809	1619	8	0	0	1324745	692	0	correct_rejection	NA	0
5	Nonet	162	810	1620	7	0	0	1325454	692	0	correct_rejection	NA	0
trigger nr 1246 at 1327519
trigger nr 1289 at 1440191
5	Correct	1	1	1621	4	0	0	1447328	691	0	correct_rejection	NA	7099
5	Correct	2	2	1622	5	0	0	1448036	692	0	correct_rejection	NA	0
5	Correct	3	3	1623	6	0	0	1448745	691	0	correct_rejection	NA	0
5	Correct	4	4	1624	0	1	2	1449453	692	1	hit	288	0
