ID	block	trial_block	trial_cat	trial_total	number	violation	level_violation	onset	duration	Response	Hit_Miss	RT	pre_trial_fixcross_ISI
first_trigger_at: 11238
trigger nr 4 at 14238
6	Triplet	1	163	1	6	0	0	22173	692	0	correct_rejection	NA	7899
6	Triplet	2	164	2	5	0	0	22882	692	0	correct_rejection	NA	0
6	Triplet	3	165	3	4	0	0	23591	691	0	correct_rejection	NA	0
6	Triplet	4	166	4	0	1	2	24299	692	1	hit	418	0
6	Triplet	5	167	5	6	0	0	25008	691	0	correct_rejection	NA	0
6	Triplet	6	168	6	5	0	0	25716	692	0	correct_rejection	NA	0
6	Triplet	7	169	7	0	1	1	26425	692	1	hit	347	0
6	Triplet	8	170	8	4	0	0	27133	692	0	correct_rejection	NA	0
6	Triplet	9	171	9	4	0	0	27842	692	0	correct_rejection	NA	0
6	Triplet	10	172	10	5	0	0	28551	691	0	correct_rejection	NA	0
6	Triplet	11	173	11	0	1	1	29259	692	1	hit	317	0
6	Triplet	12	174	12	6	0	0	29968	691	0	correct_rejection	NA	0
6	Triplet	13	175	13	9	0	0	30676	692	0	correct_rejection	NA	0
6	Triplet	14	176	14	8	0	0	31385	692	0	correct_rejection	NA	0
6	Triplet	15	177	15	7	0	0	32093	692	0	correct_rejection	NA	0
6	Triplet	16	178	16	6	0	0	32802	692	0	correct_rejection	NA	0
6	Triplet	17	179	17	0	1	1	33511	691	1	hit	305	0
6	Triplet	18	180	18	5	0	0	34219	692	0	correct_rejection	NA	0
6	Triplet	19	181	19	4	0	0	34928	691	0	correct_rejection	NA	0
6	Triplet	20	182	20	9	0	0	35636	692	0	correct_rejection	NA	0
6	Triplet	21	183	21	8	0	0	36345	692	0	correct_rejection	NA	0
6	Triplet	22	184	22	7	0	0	37053	692	0	correct_rejection	NA	0
6	Triplet	23	185	23	0	1	2	37762	692	1	hit	285	0
6	Triplet	24	186	24	7	0	0	38471	691	0	correct_rejection	NA	0
6	Triplet	25	187	25	8	0	0	39179	692	0	correct_rejection	NA	0
6	Triplet	26	188	26	9	0	0	39888	691	0	correct_rejection	NA	0
6	Triplet	27	189	27	6	0	0	40596	692	0	correct_rejection	NA	0
6	Triplet	28	190	28	5	0	0	41305	691	0	correct_rejection	NA	0
6	Triplet	29	191	29	0	1	1	42013	692	1	hit	317	0
6	Triplet	30	192	30	4	0	0	42722	692	0	correct_rejection	NA	0
6	Triplet	31	193	31	7	0	0	43430	692	0	correct_rejection	NA	0
6	Triplet	32	194	32	8	0	0	44139	692	0	correct_rejection	NA	0
6	Triplet	33	195	33	9	0	0	44848	691	0	correct_rejection	NA	0
6	Triplet	34	196	34	7	0	0	45556	692	0	correct_rejection	NA	0
6	Triplet	35	197	35	8	0	0	46265	691	0	correct_rejection	NA	0
6	Triplet	36	198	36	9	0	0	46973	692	0	correct_rejection	NA	0
6	Triplet	37	199	37	9	0	0	47682	692	0	correct_rejection	NA	0
6	Triplet	38	200	38	8	0	0	48390	692	0	correct_rejection	NA	0
6	Triplet	39	201	39	7	0	0	49099	692	0	correct_rejection	NA	0
6	Triplet	40	202	40	9	0	0	49808	691	0	correct_rejection	NA	0
6	Triplet	41	203	41	8	0	0	50516	692	0	correct_rejection	NA	0
6	Triplet	42	204	42	0	1	1	51225	691	1	hit	334	0
6	Triplet	43	205	43	7	0	0	51933	692	0	correct_rejection	NA	0
6	Triplet	44	206	44	4	0	0	52642	692	0	correct_rejection	NA	0
6	Triplet	45	207	45	5	0	0	53350	692	0	correct_rejection	NA	0
6	Triplet	46	208	46	6	0	0	54059	692	0	correct_rejection	NA	0
6	Triplet	47	209	47	4	0	0	54768	691	0	correct_rejection	NA	0
6	Triplet	48	210	48	5	0	0	55476	692	0	correct_rejection	NA	0
6	Triplet	49	211	49	6	0	0	56185	691	0	correct_rejection	NA	0
6	Triplet	50	212	50	7	0	0	56893	692	0	correct_rejection	NA	0
6	Triplet	51	213	51	8	0	0	57602	692	0	correct_rejection	NA	0
6	Triplet	52	214	52	9	0	0	58310	692	0	correct_rejection	NA	0
6	Triplet	53	215	53	4	0	0	59019	692	0	correct_rejection	NA	0
6	Triplet	54	216	54	5	0	0	59728	691	0	correct_rejection	NA	0
6	Triplet	55	217	55	6	0	0	60436	692	0	correct_rejection	NA	0
6	Triplet	56	218	56	7	0	0	61145	691	0	correct_rejection	NA	0
6	Triplet	57	219	57	0	1	1	61853	692	1	hit	324	0
6	Triplet	58	220	58	8	0	0	62562	691	0	correct_rejection	NA	0
6	Triplet	59	221	59	9	0	0	63270	692	0	correct_rejection	NA	0
6	Triplet	60	222	60	0	1	2	63979	692	1	hit	515	0
6	Triplet	61	223	61	6	0	0	64688	691	0	correct_rejection	NA	0
6	Triplet	62	224	62	5	0	0	65396	692	0	correct_rejection	NA	0
6	Triplet	63	225	63	4	0	0	66105	691	0	correct_rejection	NA	0
6	Triplet	64	226	64	6	0	0	66813	692	0	correct_rejection	NA	0
6	Triplet	65	227	65	5	0	0	67522	691	0	correct_rejection	NA	0
6	Triplet	66	228	66	4	0	0	68230	692	0	correct_rejection	NA	0
6	Triplet	67	229	67	9	0	0	68939	692	0	correct_rejection	NA	0
6	Triplet	68	230	68	8	0	0	69647	692	0	correct_rejection	NA	0
6	Triplet	69	231	69	7	0	0	70356	692	0	correct_rejection	NA	0
6	Triplet	70	232	70	4	0	0	71065	691	0	correct_rejection	NA	0
6	Triplet	71	233	71	0	1	1	71773	692	1	hit	318	0
6	Triplet	72	234	72	5	0	0	72482	691	0	correct_rejection	NA	0
6	Triplet	73	235	73	6	0	0	73190	692	0	correct_rejection	NA	0
6	Triplet	74	236	74	7	0	0	73899	692	0	correct_rejection	NA	0
6	Triplet	75	237	75	8	0	0	74607	692	0	correct_rejection	NA	0
6	Triplet	76	238	76	9	0	0	75316	692	0	correct_rejection	NA	0
6	Triplet	77	239	77	7	0	0	76025	691	0	correct_rejection	NA	0
6	Triplet	78	240	78	8	0	0	76733	692	0	correct_rejection	NA	0
6	Triplet	79	241	79	9	0	0	77442	691	0	correct_rejection	NA	0
6	Triplet	80	242	80	4	0	0	78150	692	0	correct_rejection	NA	0
6	Triplet	81	243	81	5	0	0	78859	692	0	correct_rejection	NA	0
6	Triplet	82	244	82	6	0	0	79567	692	0	correct_rejection	NA	0
6	Triplet	83	245	83	6	0	0	80276	692	0	correct_rejection	NA	0
6	Triplet	84	246	84	5	0	0	80985	691	0	correct_rejection	NA	0
6	Triplet	85	247	85	4	0	0	81693	692	0	correct_rejection	NA	0
6	Triplet	86	248	86	7	0	0	82402	691	0	correct_rejection	NA	0
6	Triplet	87	249	87	8	0	0	83110	692	0	correct_rejection	NA	0
6	Triplet	88	250	88	9	0	0	83819	692	0	correct_rejection	NA	0
6	Triplet	89	251	89	9	0	0	84527	692	0	correct_rejection	NA	0
6	Triplet	90	252	90	8	0	0	85236	692	0	correct_rejection	NA	0
6	Triplet	91	253	91	7	0	0	85945	691	0	correct_rejection	NA	0
6	Triplet	92	254	92	6	0	0	86653	692	0	correct_rejection	NA	0
6	Triplet	93	255	93	5	0	0	87362	691	0	correct_rejection	NA	0
6	Triplet	94	256	94	4	0	0	88070	692	0	correct_rejection	NA	0
6	Triplet	95	257	95	4	0	0	88779	691	0	correct_rejection	NA	0
6	Triplet	96	258	96	5	0	0	89487	692	0	correct_rejection	NA	0
6	Triplet	97	259	97	6	0	0	90196	692	0	correct_rejection	NA	0
6	Triplet	98	260	98	4	0	0	90905	691	0	correct_rejection	NA	0
6	Triplet	99	261	99	5	0	0	91613	692	0	correct_rejection	NA	0
6	Triplet	100	262	100	6	0	0	92322	691	0	correct_rejection	NA	0
6	Triplet	101	263	101	9	0	0	93030	692	0	correct_rejection	NA	0
6	Triplet	102	264	102	8	0	0	93739	691	0	correct_rejection	NA	0
6	Triplet	103	265	103	7	0	0	94447	692	0	correct_rejection	NA	0
6	Triplet	104	266	104	0	1	2	95156	692	1	hit	340	0
6	Triplet	105	267	105	9	0	0	95864	692	0	correct_rejection	NA	0
6	Triplet	106	268	106	8	0	0	96573	692	0	correct_rejection	NA	0
6	Triplet	107	269	107	7	0	0	97282	691	0	correct_rejection	NA	0
6	Triplet	108	270	108	4	0	0	97990	692	0	correct_rejection	NA	0
6	Triplet	109	271	109	5	0	0	98699	691	0	correct_rejection	NA	0
6	Triplet	110	272	110	6	0	0	99407	692	0	correct_rejection	NA	0
6	Triplet	111	273	111	4	0	0	100116	692	0	correct_rejection	NA	0
6	Triplet	112	274	112	5	0	0	100824	692	0	correct_rejection	NA	0
6	Triplet	113	275	113	6	0	0	101533	692	0	correct_rejection	NA	0
6	Triplet	114	276	114	6	0	0	102242	691	0	correct_rejection	NA	0
6	Triplet	115	277	115	0	1	1	102950	692	1	hit	367	0
6	Triplet	116	278	116	5	0	0	103659	691	0	correct_rejection	NA	0
6	Triplet	117	279	117	4	0	0	104367	692	0	correct_rejection	NA	0
6	Triplet	118	280	118	9	0	0	105076	692	0	correct_rejection	NA	0
6	Triplet	119	281	119	8	0	0	105784	692	0	correct_rejection	NA	0
6	Triplet	120	282	120	0	1	1	106493	692	1	hit	431	0
6	Triplet	121	283	121	7	0	0	107202	691	0	correct_rejection	NA	0
6	Triplet	122	284	122	9	0	0	107910	692	0	correct_rejection	NA	0
6	Triplet	123	285	123	0	1	1	108619	691	1	hit	379	0
6	Triplet	124	286	124	8	0	0	109327	692	0	correct_rejection	NA	0
6	Triplet	125	287	125	7	0	0	110036	692	0	correct_rejection	NA	0
6	Triplet	126	288	126	6	0	0	110744	692	0	correct_rejection	NA	0
6	Triplet	127	289	127	5	0	0	111453	692	0	correct_rejection	NA	0
6	Triplet	128	290	128	4	0	0	112162	691	0	correct_rejection	NA	0
6	Triplet	129	291	129	6	0	0	112870	692	0	correct_rejection	NA	0
6	Triplet	130	292	130	5	0	0	113579	691	0	correct_rejection	NA	0
6	Triplet	131	293	131	4	0	0	114287	692	0	correct_rejection	NA	0
6	Triplet	132	294	132	7	0	0	114996	691	0	correct_rejection	NA	0
6	Triplet	133	295	133	0	1	1	115704	692	1	hit	275	0
6	Triplet	134	296	134	8	0	0	116413	692	0	correct_rejection	NA	0
6	Triplet	135	297	135	9	0	0	117121	692	0	correct_rejection	NA	0
6	Triplet	136	298	136	4	0	0	117830	692	0	correct_rejection	NA	0
6	Triplet	137	299	137	5	0	0	118539	691	0	correct_rejection	NA	0
6	Triplet	138	300	138	6	0	0	119247	692	0	correct_rejection	NA	0
6	Triplet	139	301	139	7	0	0	119956	691	0	correct_rejection	NA	0
6	Triplet	140	302	140	8	0	0	120664	692	0	correct_rejection	NA	0
6	Triplet	141	303	141	0	1	1	121373	692	1	hit	353	0
6	Triplet	142	304	142	9	0	0	122081	692	0	correct_rejection	NA	0
6	Triplet	143	305	143	9	0	0	122790	692	0	correct_rejection	NA	0
6	Triplet	144	306	144	8	0	0	123499	691	0	correct_rejection	NA	0
6	Triplet	145	307	145	7	0	0	124207	692	0	correct_rejection	NA	0
6	Triplet	146	308	146	4	0	0	124916	691	0	correct_rejection	NA	0
6	Triplet	147	309	147	5	0	0	125624	692	0	correct_rejection	NA	0
6	Triplet	148	310	148	6	0	0	126333	692	0	correct_rejection	NA	0
6	Triplet	149	311	149	9	0	0	127041	692	0	correct_rejection	NA	0
6	Triplet	150	312	150	0	1	1	127750	692	1	hit	319	0
6	Triplet	151	313	151	8	0	0	128459	691	0	correct_rejection	NA	0
6	Triplet	152	314	152	7	0	0	129167	692	0	correct_rejection	NA	0
6	Triplet	153	315	153	7	0	0	129876	691	0	correct_rejection	NA	0
6	Triplet	154	316	154	8	0	0	130584	692	0	correct_rejection	NA	0
6	Triplet	155	317	155	9	0	0	131293	692	0	correct_rejection	NA	0
6	Triplet	156	318	156	7	0	0	132001	692	0	correct_rejection	NA	0
6	Triplet	157	319	157	0	1	1	132710	692	1	hit	310	0
6	Triplet	158	320	158	8	0	0	133419	691	0	correct_rejection	NA	0
6	Triplet	159	321	159	9	0	0	134127	692	0	correct_rejection	NA	0
6	Triplet	160	322	160	6	0	0	134836	691	0	correct_rejection	NA	0
6	Triplet	161	323	161	5	0	0	135544	692	0	correct_rejection	NA	0
6	Triplet	162	324	162	4	0	0	136253	692	0	correct_rejection	NA	0
6	Single	1	1	163	9	0	0	146239	692	0	correct_rejection	NA	7959
6	Single	2	2	164	5	0	0	146948	692	0	correct_rejection	NA	0
6	Single	3	3	165	4	0	0	147657	691	0	correct_rejection	NA	0
6	Single	4	4	166	7	0	0	148365	692	0	correct_rejection	NA	0
6	Single	5	5	167	9	0	0	149074	691	0	correct_rejection	NA	0
6	Single	6	6	168	4	0	0	149782	692	0	correct_rejection	NA	0
6	Single	7	7	169	4	0	0	150491	692	0	correct_rejection	NA	0
6	Single	8	8	170	5	0	0	151199	692	0	correct_rejection	NA	0
6	Single	9	9	171	0	1	1	151908	692	1	hit	329	0
6	Single	10	10	172	8	0	0	152617	691	0	correct_rejection	NA	0
6	Single	11	11	173	7	0	0	153325	692	0	correct_rejection	NA	0
6	Single	12	12	174	5	0	0	154034	691	0	correct_rejection	NA	0
6	Single	13	13	175	7	0	0	154742	692	0	correct_rejection	NA	0
6	Single	14	14	176	0	1	1	155451	692	1	hit	365	0
6	Single	15	15	177	7	0	0	156159	692	0	correct_rejection	NA	0
6	Single	16	16	178	8	0	0	156868	692	0	correct_rejection	NA	0
6	Single	17	17	179	9	0	0	157577	691	0	correct_rejection	NA	0
6	Single	18	18	180	8	0	0	158285	692	0	correct_rejection	NA	0
6	Single	19	19	181	6	0	0	158994	691	0	correct_rejection	NA	0
6	Single	20	20	182	4	0	0	159702	692	0	correct_rejection	NA	0
6	Single	21	21	183	0	1	1	160411	691	1	hit	376	0
6	Single	22	22	184	9	0	0	161119	692	0	correct_rejection	NA	0
6	Single	23	23	185	9	0	0	161828	692	0	correct_rejection	NA	0
6	Single	24	24	186	7	0	0	162536	692	0	correct_rejection	NA	0
6	Single	25	25	187	0	1	1	163245	692	1	hit	579	0
6	Single	26	26	188	6	0	0	163954	691	0	correct_rejection	NA	0
6	Single	27	27	189	6	0	0	164662	692	0	correct_rejection	NA	0
6	Single	28	28	190	8	0	0	165371	691	0	correct_rejection	NA	0
6	Single	29	29	191	5	0	0	166079	692	0	correct_rejection	NA	0
6	Single	30	30	192	6	0	0	166788	692	0	correct_rejection	NA	0
6	Single	31	31	193	0	1	1	167496	692	1	hit	334	0
6	Single	32	32	194	7	0	0	168205	692	0	correct_rejection	NA	0
6	Single	33	33	195	4	0	0	168914	691	0	correct_rejection	NA	0
6	Single	34	34	196	8	0	0	169622	692	0	correct_rejection	NA	0
6	Single	35	35	197	8	0	0	170331	691	0	correct_rejection	NA	0
6	Single	36	36	198	4	0	0	171039	692	0	correct_rejection	NA	0
6	Single	37	37	199	6	0	0	171748	692	0	correct_rejection	NA	0
6	Single	38	38	200	5	0	0	172456	692	0	correct_rejection	NA	0
6	Single	39	39	201	5	0	0	173165	692	0	correct_rejection	NA	0
6	Single	40	40	202	9	0	0	173874	691	0	correct_rejection	NA	0
6	Single	41	41	203	6	0	0	174582	692	0	correct_rejection	NA	0
6	Single	42	42	204	4	0	0	175291	691	0	correct_rejection	NA	0
6	Single	43	43	205	9	0	0	175999	692	0	correct_rejection	NA	0
6	Single	44	44	206	8	0	0	176708	692	0	correct_rejection	NA	0
6	Single	45	45	207	8	0	0	177416	692	0	correct_rejection	NA	0
6	Single	46	46	208	6	0	0	178125	692	0	correct_rejection	NA	0
6	Single	47	47	209	9	0	0	178834	691	0	correct_rejection	NA	0
6	Single	48	48	210	6	0	0	179542	692	0	correct_rejection	NA	0
6	Single	49	49	211	6	0	0	180251	691	0	correct_rejection	NA	0
6	Single	50	50	212	7	0	0	180959	692	0	correct_rejection	NA	0
6	Single	51	51	213	5	0	0	181668	692	0	correct_rejection	NA	0
6	Single	52	52	214	6	0	0	182376	692	0	correct_rejection	NA	0
6	Single	53	53	215	5	0	0	183085	692	0	correct_rejection	NA	0
6	Single	54	54	216	8	0	0	183794	691	0	correct_rejection	NA	0
6	Single	55	55	217	4	0	0	184502	692	0	correct_rejection	NA	0
6	Single	56	56	218	5	0	0	185211	691	0	correct_rejection	NA	0
6	Single	57	57	219	4	0	0	185919	692	0	correct_rejection	NA	0
6	Single	58	58	220	8	0	0	186628	691	0	correct_rejection	NA	0
6	Single	59	59	221	7	0	0	187336	692	0	correct_rejection	NA	0
6	Single	60	60	222	7	0	0	188045	692	0	correct_rejection	NA	0
6	Single	61	61	223	6	0	0	188753	692	0	correct_rejection	NA	0
6	Single	62	62	224	8	0	0	189462	692	0	correct_rejection	NA	0
6	Single	63	63	225	9	0	0	190171	691	0	correct_rejection	NA	0
6	Single	64	64	226	7	0	0	190879	692	0	correct_rejection	NA	0
6	Single	65	65	227	9	0	0	191588	691	0	correct_rejection	NA	0
6	Single	66	66	228	5	0	0	192296	692	0	correct_rejection	NA	0
6	Single	67	67	229	5	0	0	193005	692	0	correct_rejection	NA	0
6	Single	68	68	230	7	0	0	193713	692	0	correct_rejection	NA	0
6	Single	69	69	231	4	0	0	194422	692	0	correct_rejection	NA	0
6	Single	70	70	232	6	0	0	195131	691	0	correct_rejection	NA	0
6	Single	71	71	233	4	0	0	195839	692	0	correct_rejection	NA	0
6	Single	72	72	234	0	1	1	196548	691	1	hit	359	0
6	Single	73	73	235	4	0	0	197256	692	0	correct_rejection	NA	0
6	Single	74	74	236	7	0	0	197965	692	0	correct_rejection	NA	0
6	Single	75	75	237	0	1	1	198673	692	1	hit	340	0
6	Single	76	76	238	8	0	0	199382	692	0	correct_rejection	NA	0
6	Single	77	77	239	5	0	0	200091	691	0	correct_rejection	NA	0
6	Single	78	78	240	9	0	0	200799	692	0	correct_rejection	NA	0
6	Single	79	79	241	9	0	0	201508	691	0	correct_rejection	NA	0
6	Single	80	80	242	4	0	0	202216	692	0	correct_rejection	NA	0
6	Single	81	81	243	9	0	0	202925	692	0	correct_rejection	NA	0
6	Single	82	82	244	0	1	1	203633	692	1	hit	313	0
6	Single	83	83	245	6	0	0	204342	692	0	correct_rejection	NA	0
6	Single	84	84	246	4	0	0	205051	691	0	correct_rejection	NA	0
6	Single	85	85	247	6	0	0	205759	692	0	correct_rejection	NA	0
6	Single	86	86	248	8	0	0	206468	691	0	correct_rejection	NA	0
6	Single	87	87	249	0	1	1	207176	692	1	hit	303	0
6	Single	88	88	250	8	0	0	207885	691	0	correct_rejection	NA	0
6	Single	89	89	251	5	0	0	208593	692	0	correct_rejection	NA	0
6	Single	90	90	252	7	0	0	209302	692	0	correct_rejection	NA	0
6	Single	91	91	253	8	0	0	210011	691	0	correct_rejection	NA	0
6	Single	92	92	254	6	0	0	210719	692	0	correct_rejection	NA	0
6	Single	93	93	255	7	0	0	211428	691	0	correct_rejection	NA	0
6	Single	94	94	256	9	0	0	212136	692	0	correct_rejection	NA	0
6	Single	95	95	257	8	0	0	212845	691	0	correct_rejection	NA	0
6	Single	96	96	258	7	0	0	213553	692	0	correct_rejection	NA	0
6	Single	97	97	259	6	0	0	214262	692	0	correct_rejection	NA	0
6	Single	98	98	260	9	0	0	214970	692	0	correct_rejection	NA	0
6	Single	99	99	261	0	1	1	215679	692	1	hit	422	0
6	Single	100	100	262	7	0	0	216388	691	0	correct_rejection	NA	0
6	Single	101	101	263	7	0	0	217096	692	0	correct_rejection	NA	0
6	Single	102	102	264	4	0	0	217805	691	0	correct_rejection	NA	0
6	Single	103	103	265	5	0	0	218513	692	0	correct_rejection	NA	0
6	Single	104	104	266	5	0	0	219222	692	0	correct_rejection	NA	0
6	Single	105	105	267	8	0	0	219930	692	0	correct_rejection	NA	0
6	Single	106	106	268	9	0	0	220639	692	0	correct_rejection	NA	0
6	Single	107	107	269	0	1	1	221348	691	1	hit	353	0
6	Single	108	108	270	9	0	0	222056	692	0	correct_rejection	NA	0
6	Single	109	109	271	4	0	0	222765	691	0	correct_rejection	NA	0
6	Single	110	110	272	0	1	1	223473	692	1	hit	364	0
6	Single	111	111	273	8	0	0	224182	692	0	correct_rejection	NA	0
6	Single	112	112	274	4	0	0	224890	692	0	correct_rejection	NA	0
6	Single	113	113	275	0	1	1	225599	692	1	hit	488	0
6	Single	114	114	276	7	0	0	226308	691	0	correct_rejection	NA	0
6	Single	115	115	277	5	0	0	227016	692	0	correct_rejection	NA	0
6	Single	116	116	278	9	0	0	227725	691	0	correct_rejection	NA	0
6	Single	117	117	279	5	0	0	228433	692	0	correct_rejection	NA	0
6	Single	118	118	280	6	0	0	229142	692	0	correct_rejection	NA	0
6	Single	119	119	281	6	0	0	229850	692	0	correct_rejection	NA	0
6	Single	120	120	282	5	0	0	230559	692	0	correct_rejection	NA	0
6	Single	121	121	283	0	1	1	231268	691	1	hit	312	0
6	Single	122	122	284	4	0	0	231976	692	0	correct_rejection	NA	0
6	Single	123	123	285	9	0	0	232685	691	0	correct_rejection	NA	0
6	Single	124	124	286	7	0	0	233393	692	0	correct_rejection	NA	0
6	Single	125	125	287	6	0	0	234102	691	0	correct_rejection	NA	0
6	Single	126	126	288	4	0	0	234810	692	0	correct_rejection	NA	0
6	Single	127	127	289	9	0	0	235519	692	0	correct_rejection	NA	0
6	Single	128	128	290	4	0	0	236228	691	0	correct_rejection	NA	0
6	Single	129	129	291	4	0	0	236936	692	0	correct_rejection	NA	0
6	Single	130	130	292	8	0	0	237645	691	0	correct_rejection	NA	0
6	Single	131	131	293	5	0	0	238353	692	0	correct_rejection	NA	0
6	Single	132	132	294	8	0	0	239062	691	0	correct_rejection	NA	0
6	Single	133	133	295	6	0	0	239770	692	0	correct_rejection	NA	0
6	Single	134	134	296	8	0	0	240479	692	0	correct_rejection	NA	0
6	Single	135	135	297	4	0	0	241187	692	0	correct_rejection	NA	0
6	Single	136	136	298	6	0	0	241896	692	0	correct_rejection	NA	0
6	Single	137	137	299	0	1	1	242605	691	1	hit	386	0
6	Single	138	138	300	6	0	0	243313	692	0	correct_rejection	NA	0
6	Single	139	139	301	9	0	0	244022	691	0	correct_rejection	NA	0
6	Single	140	140	302	5	0	0	244730	692	0	correct_rejection	NA	0
6	Single	141	141	303	4	0	0	245439	692	0	correct_rejection	NA	0
6	Single	142	142	304	5	0	0	246147	692	0	correct_rejection	NA	0
6	Single	143	143	305	0	1	1	246856	692	1	hit	336	0
6	Single	144	144	306	6	0	0	247565	691	0	correct_rejection	NA	0
6	Single	145	145	307	7	0	0	248273	692	0	correct_rejection	NA	0
6	Single	146	146	308	8	0	0	248982	691	0	correct_rejection	NA	0
6	Single	147	147	309	8	0	0	249690	692	0	correct_rejection	NA	0
6	Single	148	148	310	7	0	0	250399	692	0	correct_rejection	NA	0
6	Single	149	149	311	4	0	0	251107	692	0	correct_rejection	NA	0
6	Single	150	150	312	7	0	0	251816	692	0	correct_rejection	NA	0
6	Single	151	151	313	9	0	0	252525	691	0	correct_rejection	NA	0
6	Single	152	152	314	6	0	0	253233	692	0	correct_rejection	NA	0
6	Single	153	153	315	5	0	0	253942	691	0	correct_rejection	NA	0
6	Single	154	154	316	0	1	1	254650	692	1	hit	306	0
6	Single	155	155	317	7	0	0	255359	692	0	correct_rejection	NA	0
6	Single	156	156	318	7	0	0	256067	692	0	correct_rejection	NA	0
6	Single	157	157	319	0	1	1	256776	692	1	hit	402	0
6	Single	158	158	320	5	0	0	257485	691	0	correct_rejection	NA	0
6	Single	159	159	321	5	0	0	258193	692	0	correct_rejection	NA	0
6	Single	160	160	322	9	0	0	258902	691	0	correct_rejection	NA	0
6	Single	161	161	323	8	0	0	259610	692	0	correct_rejection	NA	0
6	Single	162	162	324	9	0	0	260319	691	0	correct_rejection	NA	0
6	Nonet	1	325	325	4	0	0	269797	692	0	correct_rejection	NA	7529
6	Nonet	2	326	326	5	0	0	270505	692	0	correct_rejection	NA	0
6	Nonet	3	327	327	6	0	0	271214	692	0	correct_rejection	NA	0
6	Nonet	4	328	328	4	0	0	271923	691	0	correct_rejection	NA	0
6	Nonet	5	329	329	5	0	0	272631	692	0	correct_rejection	NA	0
6	Nonet	6	330	330	6	0	0	273340	691	0	correct_rejection	NA	0
6	Nonet	7	331	331	0	1	2	274048	692	1	hit	307	0
6	Nonet	8	332	332	4	0	0	274757	692	0	correct_rejection	NA	0
6	Nonet	9	333	333	5	0	0	275465	692	0	correct_rejection	NA	0
6	Nonet	10	334	334	6	0	0	276174	692	0	correct_rejection	NA	0
6	Nonet	11	335	335	6	0	0	276883	691	0	correct_rejection	NA	0
6	Nonet	12	336	336	0	1	1	277591	692	1	hit	396	0
6	Nonet	13	337	337	5	0	0	278300	691	0	correct_rejection	NA	0
6	Nonet	14	338	338	4	0	0	279008	692	0	correct_rejection	NA	0
6	Nonet	15	339	339	6	0	0	279717	692	0	correct_rejection	NA	0
6	Nonet	16	340	340	5	0	0	280425	692	0	correct_rejection	NA	0
6	Nonet	17	341	341	4	0	0	281134	692	0	correct_rejection	NA	0
6	Nonet	18	342	342	6	0	0	281843	691	0	correct_rejection	NA	0
6	Nonet	19	343	343	5	0	0	282551	692	0	correct_rejection	NA	0
6	Nonet	20	344	344	4	0	0	283260	691	0	correct_rejection	NA	0
6	Nonet	21	345	345	4	0	0	283968	692	0	correct_rejection	NA	0
6	Nonet	22	346	346	5	0	0	284677	692	0	correct_rejection	NA	0
6	Nonet	23	347	347	6	0	0	285385	692	0	correct_rejection	NA	0
6	Nonet	24	348	348	4	0	0	286094	692	0	correct_rejection	NA	0
6	Nonet	25	349	349	0	1	1	286803	691	1	hit	333	0
6	Nonet	26	350	350	5	0	0	287511	692	0	correct_rejection	NA	0
6	Nonet	27	351	351	6	0	0	288220	691	0	correct_rejection	NA	0
6	Nonet	28	352	352	4	0	0	288928	692	0	correct_rejection	NA	0
6	Nonet	29	353	353	5	0	0	289637	692	0	correct_rejection	NA	0
6	Nonet	30	354	354	6	0	0	290345	692	0	correct_rejection	NA	0
6	Nonet	31	355	355	9	0	0	291054	692	0	correct_rejection	NA	0
6	Nonet	32	356	356	8	0	0	291763	691	0	correct_rejection	NA	0
6	Nonet	33	357	357	7	0	0	292471	692	0	correct_rejection	NA	0
6	Nonet	34	358	358	9	0	0	293180	691	0	correct_rejection	NA	0
6	Nonet	35	359	359	8	0	0	293888	692	0	correct_rejection	NA	0
6	Nonet	36	360	360	7	0	0	294597	691	0	correct_rejection	NA	0
6	Nonet	37	361	361	9	0	0	295305	692	0	correct_rejection	NA	0
6	Nonet	38	362	362	8	0	0	296014	692	0	correct_rejection	NA	0
6	Nonet	39	363	363	7	0	0	296722	692	0	correct_rejection	NA	0
6	Nonet	40	364	364	4	0	0	297431	692	0	correct_rejection	NA	0
6	Nonet	41	365	365	5	0	0	298140	691	0	correct_rejection	NA	0
6	Nonet	42	366	366	6	0	0	298848	692	0	correct_rejection	NA	0
6	Nonet	43	367	367	4	0	0	299557	691	0	correct_rejection	NA	0
6	Nonet	44	368	368	5	0	0	300265	692	0	correct_rejection	NA	0
6	Nonet	45	369	369	0	1	1	300974	692	1	hit	286	0
6	Nonet	46	370	370	6	0	0	301682	692	0	correct_rejection	NA	0
6	Nonet	47	371	371	4	0	0	302391	692	0	correct_rejection	NA	0
6	Nonet	48	372	372	5	0	0	303100	691	0	correct_rejection	NA	0
6	Nonet	49	373	373	6	0	0	303808	692	0	correct_rejection	NA	0
6	Nonet	50	374	374	7	0	0	304517	691	0	correct_rejection	NA	0
6	Nonet	51	375	375	0	1	1	305225	692	1	hit	380	0
6	Nonet	52	376	376	8	0	0	305934	692	0	correct_rejection	NA	0
6	Nonet	53	377	377	9	0	0	306642	692	0	correct_rejection	NA	0
6	Nonet	54	378	378	7	0	0	307351	692	0	correct_rejection	NA	0
6	Nonet	55	379	379	8	0	0	308060	691	0	correct_rejection	NA	0
6	Nonet	56	380	380	9	0	0	308768	692	0	correct_rejection	NA	0
6	Nonet	57	381	381	7	0	0	309477	691	0	correct_rejection	NA	0
6	Nonet	58	382	382	8	0	0	310185	692	0	correct_rejection	NA	0
6	Nonet	59	383	383	9	0	0	310894	692	0	correct_rejection	NA	0
6	Nonet	60	384	384	9	0	0	311602	692	0	correct_rejection	NA	0
6	Nonet	61	385	385	8	0	0	312311	692	0	correct_rejection	NA	0
6	Nonet	62	386	386	7	0	0	313020	691	0	correct_rejection	NA	0
6	Nonet	63	387	387	9	0	0	313728	692	0	correct_rejection	NA	0
6	Nonet	64	388	388	8	0	0	314437	691	0	correct_rejection	NA	0
6	Nonet	65	389	389	0	1	1	315145	692	1	hit	381	0
6	Nonet	66	390	390	7	0	0	315854	691	0	correct_rejection	NA	0
6	Nonet	67	391	391	9	0	0	316562	692	0	correct_rejection	NA	0
6	Nonet	68	392	392	8	0	0	317271	692	0	correct_rejection	NA	0
6	Nonet	69	393	393	7	0	0	317980	691	0	correct_rejection	NA	0
6	Nonet	70	394	394	0	1	3	318688	692	1	hit	371	0
6	Nonet	71	395	395	9	0	0	319397	691	0	correct_rejection	NA	0
6	Nonet	72	396	396	8	0	0	320105	692	0	correct_rejection	NA	0
6	Nonet	73	397	397	7	0	0	320814	691	0	correct_rejection	NA	0
6	Nonet	74	398	398	9	0	0	321522	692	0	correct_rejection	NA	0
6	Nonet	75	399	399	8	0	0	322231	692	0	correct_rejection	NA	0
6	Nonet	76	400	400	7	0	0	322939	692	0	correct_rejection	NA	0
6	Nonet	77	401	401	9	0	0	323648	692	0	correct_rejection	NA	0
6	Nonet	78	402	402	0	1	1	324357	691	1	hit	402	0
6	Nonet	79	403	403	8	0	0	325065	692	0	correct_rejection	NA	0
6	Nonet	80	404	404	7	0	0	325774	691	0	correct_rejection	NA	0
6	Nonet	81	405	405	6	0	0	326482	692	0	correct_rejection	NA	0
6	Nonet	82	406	406	5	0	0	327191	692	0	correct_rejection	NA	0
6	Nonet	83	407	407	4	0	0	327899	692	0	correct_rejection	NA	0
6	Nonet	84	408	408	0	1	2	328608	692	1	hit	307	0
6	Nonet	85	409	409	6	0	0	329317	691	0	correct_rejection	NA	0
6	Nonet	86	410	410	5	0	0	330025	692	0	correct_rejection	NA	0
6	Nonet	87	411	411	4	0	0	330734	691	0	correct_rejection	NA	0
6	Nonet	88	412	412	6	0	0	331442	692	0	correct_rejection	NA	0
6	Nonet	89	413	413	5	0	0	332151	692	0	correct_rejection	NA	0
6	Nonet	90	414	414	4	0	0	332859	692	0	correct_rejection	NA	0
6	Nonet	91	415	415	7	0	0	333568	692	0	correct_rejection	NA	0
6	Nonet	92	416	416	8	0	0	334277	691	0	correct_rejection	NA	0
6	Nonet	93	417	417	9	0	0	334985	692	0	correct_rejection	NA	0
6	Nonet	94	418	418	7	0	0	335694	691	0	correct_rejection	NA	0
6	Nonet	95	419	419	8	0	0	336402	692	0	correct_rejection	NA	0
6	Nonet	96	420	420	9	0	0	337111	692	0	correct_rejection	NA	0
6	Nonet	97	421	421	7	0	0	337819	692	0	correct_rejection	NA	0
6	Nonet	98	422	422	8	0	0	338528	692	0	correct_rejection	NA	0
6	Nonet	99	423	423	9	0	0	339237	691	0	correct_rejection	NA	0
6	Nonet	100	424	424	6	0	0	339945	692	0	correct_rejection	NA	0
6	Nonet	101	425	425	0	1	1	340654	691	1	hit	316	0
6	Nonet	102	426	426	5	0	0	341362	692	0	correct_rejection	NA	0
6	Nonet	103	427	427	4	0	0	342071	691	0	correct_rejection	NA	0
6	Nonet	104	428	428	6	0	0	342779	692	0	correct_rejection	NA	0
6	Nonet	105	429	429	5	0	0	343488	692	0	correct_rejection	NA	0
6	Nonet	106	430	430	4	0	0	344196	692	0	correct_rejection	NA	0
6	Nonet	107	431	431	6	0	0	344905	692	0	correct_rejection	NA	0
6	Nonet	108	432	432	5	0	0	345614	691	0	correct_rejection	NA	0
6	Nonet	109	433	433	4	0	0	346322	692	0	correct_rejection	NA	0
6	Nonet	110	434	434	0	1	3	347031	691	1	hit	302	0
6	Nonet	111	435	435	6	0	0	347739	692	0	correct_rejection	NA	0
6	Nonet	112	436	436	5	0	0	348448	692	0	correct_rejection	NA	0
6	Nonet	113	437	437	0	1	1	349156	692	1	hit	417	0
6	Nonet	114	438	438	4	0	0	349865	692	0	correct_rejection	NA	0
6	Nonet	115	439	439	6	0	0	350574	691	0	correct_rejection	NA	0
6	Nonet	116	440	440	5	0	0	351282	692	0	correct_rejection	NA	0
6	Nonet	117	441	441	4	0	0	351991	691	0	correct_rejection	NA	0
6	Nonet	118	442	442	6	0	0	352699	692	0	correct_rejection	NA	0
6	Nonet	119	443	443	5	0	0	353408	692	0	correct_rejection	NA	0
6	Nonet	120	444	444	4	0	0	354116	692	0	correct_rejection	NA	0
6	Nonet	121	445	445	9	0	0	354825	692	0	correct_rejection	NA	0
6	Nonet	122	446	446	8	0	0	355534	691	0	correct_rejection	NA	0
6	Nonet	123	447	447	0	1	1	356242	692	1	hit	361	0
6	Nonet	124	448	448	7	0	0	356951	691	0	correct_rejection	NA	0
6	Nonet	125	449	449	9	0	0	357659	692	0	correct_rejection	NA	0
6	Nonet	126	450	450	8	0	0	358368	692	0	correct_rejection	NA	0
6	Nonet	127	451	451	7	0	0	359076	692	0	correct_rejection	NA	0
6	Nonet	128	452	452	9	0	0	359785	692	0	correct_rejection	NA	0
6	Nonet	129	453	453	8	0	0	360494	691	0	correct_rejection	NA	0
6	Nonet	130	454	454	7	0	0	361202	692	0	correct_rejection	NA	0
6	Nonet	131	455	455	0	1	3	361911	691	1	hit	329	0
6	Nonet	132	456	456	7	0	0	362619	692	0	correct_rejection	NA	0
6	Nonet	133	457	457	8	0	0	363328	692	0	correct_rejection	NA	0
6	Nonet	134	458	458	9	0	0	364036	692	0	correct_rejection	NA	0
6	Nonet	135	459	459	7	0	0	364745	692	0	correct_rejection	NA	0
6	Nonet	136	460	460	8	0	0	365454	691	0	correct_rejection	NA	0
6	Nonet	137	461	461	0	1	1	366162	692	1	hit	349	0
6	Nonet	138	462	462	9	0	0	366871	691	0	correct_rejection	NA	0
6	Nonet	139	463	463	7	0	0	367579	692	0	correct_rejection	NA	0
6	Nonet	140	464	464	8	0	0	368288	691	0	correct_rejection	NA	0
6	Nonet	141	465	465	9	0	0	368996	692	0	correct_rejection	NA	0
6	Nonet	142	466	466	0	1	3	369705	692	1	hit	399	0
6	Nonet	143	467	467	7	0	0	370413	692	0	correct_rejection	NA	0
6	Nonet	144	468	468	8	0	0	371122	692	0	correct_rejection	NA	0
6	Nonet	145	469	469	9	0	0	371831	691	0	correct_rejection	NA	0
6	Nonet	146	470	470	7	0	0	372539	692	0	correct_rejection	NA	0
6	Nonet	147	471	471	8	0	0	373248	691	0	correct_rejection	NA	0
6	Nonet	148	472	472	9	0	0	373956	692	0	correct_rejection	NA	0
6	Nonet	149	473	473	7	0	0	374665	692	0	correct_rejection	NA	0
6	Nonet	150	474	474	8	0	0	375373	692	0	correct_rejection	NA	0
6	Nonet	151	475	475	9	0	0	376082	692	0	correct_rejection	NA	0
6	Nonet	152	476	476	4	0	0	376791	691	0	correct_rejection	NA	0
6	Nonet	153	477	477	5	0	0	377499	692	0	correct_rejection	NA	0
6	Nonet	154	478	478	0	1	1	378208	691	1	hit	279	0
6	Nonet	155	479	479	6	0	0	378916	692	0	correct_rejection	NA	0
6	Nonet	156	480	480	4	0	0	379625	692	0	correct_rejection	NA	0
6	Nonet	157	481	481	0	1	1	380333	692	1	hit	438	0
6	Nonet	158	482	482	5	0	0	381042	692	0	correct_rejection	NA	0
6	Nonet	159	483	483	6	0	0	381751	691	0	correct_rejection	NA	0
6	Nonet	160	484	484	4	0	0	382459	692	0	correct_rejection	NA	0
6	Nonet	161	485	485	5	0	0	383168	691	0	correct_rejection	NA	0
6	Nonet	162	486	486	6	0	0	383876	692	0	correct_rejection	NA	0
6	Triplet	1	649	487	4	0	0	393988	692	0	correct_rejection	NA	7719
6	Triplet	2	650	488	5	0	0	394697	691	0	correct_rejection	NA	0
6	Triplet	3	651	489	6	0	0	395405	692	0	correct_rejection	NA	0
6	Triplet	4	652	490	6	0	0	396114	691	0	correct_rejection	NA	0
6	Triplet	5	653	491	5	0	0	396822	692	0	correct_rejection	NA	0
6	Triplet	6	654	492	4	0	0	397531	691	0	correct_rejection	NA	0
6	Triplet	7	655	493	4	0	0	398239	692	0	correct_rejection	NA	0
6	Triplet	8	656	494	5	0	0	398948	692	0	correct_rejection	NA	0
6	Triplet	9	657	495	6	0	0	399656	692	0	correct_rejection	NA	0
6	Triplet	10	658	496	9	0	0	400365	692	0	correct_rejection	NA	0
6	Triplet	11	659	497	0	1	1	401074	691	1	hit	324	0
6	Triplet	12	660	498	8	0	0	401782	692	0	correct_rejection	NA	0
6	Triplet	13	661	499	7	0	0	402491	691	0	correct_rejection	NA	0
6	Triplet	14	662	500	6	0	0	403199	692	0	correct_rejection	NA	0
6	Triplet	15	663	501	0	1	1	403908	692	1	hit	414	0
6	Triplet	16	664	502	5	0	0	404616	692	0	correct_rejection	NA	0
6	Triplet	17	665	503	4	0	0	405325	692	0	correct_rejection	NA	0
6	Triplet	18	666	504	6	0	0	406034	691	0	correct_rejection	NA	0
6	Triplet	19	667	505	5	0	0	406742	692	0	correct_rejection	NA	0
6	Triplet	20	668	506	4	0	0	407451	691	0	correct_rejection	NA	0
6	Triplet	21	669	507	7	0	0	408159	692	0	correct_rejection	NA	0
6	Triplet	22	670	508	8	0	0	408868	692	0	correct_rejection	NA	0
6	Triplet	23	671	509	9	0	0	409576	692	0	correct_rejection	NA	0
6	Triplet	24	672	510	6	0	0	410285	692	0	correct_rejection	NA	0
6	Triplet	25	673	511	0	1	1	410994	691	1	hit	349	0
6	Triplet	26	674	512	5	0	0	411702	692	0	correct_rejection	NA	0
6	Triplet	27	675	513	4	0	0	412411	691	0	correct_rejection	NA	0
6	Triplet	28	676	514	9	0	0	413119	692	0	correct_rejection	NA	0
6	Triplet	29	677	515	8	0	0	413828	692	0	correct_rejection	NA	0
6	Triplet	30	678	516	7	0	0	414536	692	0	correct_rejection	NA	0
6	Triplet	31	679	517	7	0	0	415245	692	0	correct_rejection	NA	0
6	Triplet	32	680	518	8	0	0	415954	691	0	correct_rejection	NA	0
6	Triplet	33	681	519	9	0	0	416662	692	0	correct_rejection	NA	0
6	Triplet	34	682	520	4	0	0	417371	691	0	correct_rejection	NA	0
6	Triplet	35	683	521	5	0	0	418079	692	0	correct_rejection	NA	0
6	Triplet	36	684	522	6	0	0	418788	691	0	correct_rejection	NA	0
6	Triplet	37	685	523	4	0	0	419496	692	0	correct_rejection	NA	0
6	Triplet	38	686	524	5	0	0	420205	692	0	correct_rejection	NA	0
6	Triplet	39	687	525	0	1	1	420914	691	1	hit	364	0
6	Triplet	40	688	526	6	0	0	421622	692	0	correct_rejection	NA	0
6	Triplet	41	689	527	7	0	0	422331	691	0	correct_rejection	NA	0
6	Triplet	42	690	528	8	0	0	423039	692	0	correct_rejection	NA	0
6	Triplet	43	691	529	9	0	0	423748	691	0	correct_rejection	NA	0
6	Triplet	44	692	530	7	0	0	424456	692	0	correct_rejection	NA	0
6	Triplet	45	693	531	8	0	0	425165	692	0	correct_rejection	NA	0
6	Triplet	46	694	532	9	0	0	425873	692	0	correct_rejection	NA	0
6	Triplet	47	695	533	9	0	0	426582	692	0	correct_rejection	NA	0
6	Triplet	48	696	534	8	0	0	427291	691	0	correct_rejection	NA	0
6	Triplet	49	697	535	0	1	1	427999	692	1	hit	353	0
6	Triplet	50	698	536	7	0	0	428708	691	0	correct_rejection	NA	0
6	Triplet	51	699	537	9	0	0	429416	692	0	correct_rejection	NA	0
6	Triplet	52	700	538	8	0	0	430125	692	0	correct_rejection	NA	0
6	Triplet	53	701	539	7	0	0	430833	692	0	correct_rejection	NA	0
6	Triplet	54	702	540	7	0	0	431542	692	0	correct_rejection	NA	0
6	Triplet	55	703	541	0	1	1	432251	691	1	hit	358	0
6	Triplet	56	704	542	8	0	0	432959	692	0	correct_rejection	NA	0
6	Triplet	57	705	543	9	0	0	433668	691	0	correct_rejection	NA	0
6	Triplet	58	706	544	7	0	0	434376	692	0	correct_rejection	NA	0
6	Triplet	59	707	545	8	0	0	435085	692	0	correct_rejection	NA	0
6	Triplet	60	708	546	0	1	1	435793	692	1	hit	393	0
6	Triplet	61	709	547	9	0	0	436502	692	0	correct_rejection	NA	0
6	Triplet	62	710	548	6	0	0	437211	691	0	correct_rejection	NA	0
6	Triplet	63	711	549	5	0	0	437919	692	0	correct_rejection	NA	0
6	Triplet	64	712	550	4	0	0	438628	691	0	correct_rejection	NA	0
6	Triplet	65	713	551	6	0	0	439336	692	0	correct_rejection	NA	0
6	Triplet	66	714	552	5	0	0	440045	692	0	correct_rejection	NA	0
6	Triplet	67	715	553	4	0	0	440753	692	0	correct_rejection	NA	0
6	Triplet	68	716	554	0	1	2	441462	692	1	hit	337	0
6	Triplet	69	717	555	4	0	0	442171	691	0	correct_rejection	NA	0
6	Triplet	70	718	556	5	0	0	442879	692	0	correct_rejection	NA	0
6	Triplet	71	719	557	6	0	0	443588	691	0	correct_rejection	NA	0
6	Triplet	72	720	558	4	0	0	444296	692	0	correct_rejection	NA	0
6	Triplet	73	721	559	5	0	0	445005	691	0	correct_rejection	NA	0
6	Triplet	74	722	560	6	0	0	445713	692	0	correct_rejection	NA	0
6	Triplet	75	723	561	6	0	0	446422	692	0	correct_rejection	NA	0
6	Triplet	76	724	562	5	0	0	447131	691	0	correct_rejection	NA	0
6	Triplet	77	725	563	0	1	1	447839	692	1	hit	315	0
6	Triplet	78	726	564	4	0	0	448548	691	0	correct_rejection	NA	0
6	Triplet	79	727	565	7	0	0	449256	692	0	correct_rejection	NA	0
6	Triplet	80	728	566	8	0	0	449965	691	0	correct_rejection	NA	0
6	Triplet	81	729	567	9	0	0	450673	692	0	correct_rejection	NA	0
6	Triplet	82	730	568	4	0	0	451382	692	0	correct_rejection	NA	0
6	Triplet	83	731	569	5	0	0	452090	692	0	correct_rejection	NA	0
6	Triplet	84	732	570	6	0	0	452799	692	0	correct_rejection	NA	0
6	Triplet	85	733	571	9	0	0	453508	691	0	correct_rejection	NA	0
6	Triplet	86	734	572	8	0	0	454216	692	0	correct_rejection	NA	0
6	Triplet	87	735	573	7	0	0	454925	691	0	correct_rejection	NA	0
6	Triplet	88	736	574	9	0	0	455633	692	0	correct_rejection	NA	0
6	Triplet	89	737	575	8	0	0	456342	692	0	correct_rejection	NA	0
6	Triplet	90	738	576	7	0	0	457050	692	0	correct_rejection	NA	0
6	Triplet	91	739	577	7	0	0	457759	692	0	correct_rejection	NA	0
6	Triplet	92	740	578	8	0	0	458468	691	0	correct_rejection	NA	0
6	Triplet	93	741	579	9	0	0	459176	692	0	correct_rejection	NA	0
6	Triplet	94	742	580	9	0	0	459885	691	0	correct_rejection	NA	0
6	Triplet	95	743	581	8	0	0	460593	692	0	correct_rejection	NA	0
6	Triplet	96	744	582	7	0	0	461302	692	0	correct_rejection	NA	0
6	Triplet	97	745	583	6	0	0	462010	692	0	correct_rejection	NA	0
6	Triplet	98	746	584	5	0	0	462719	692	0	correct_rejection	NA	0
6	Triplet	99	747	585	4	0	0	463428	691	0	correct_rejection	NA	0
6	Triplet	100	748	586	9	0	0	464136	692	0	correct_rejection	NA	0
6	Triplet	101	749	587	8	0	0	464845	691	0	correct_rejection	NA	0
6	Triplet	102	750	588	0	1	1	465553	692	1	hit	337	0
6	Triplet	103	751	589	7	0	0	466262	692	0	correct_rejection	NA	0
6	Triplet	104	752	590	4	0	0	466970	692	0	correct_rejection	NA	0
6	Triplet	105	753	591	5	0	0	467679	692	0	correct_rejection	NA	0
6	Triplet	106	754	592	6	0	0	468388	691	0	correct_rejection	NA	0
6	Triplet	107	755	593	7	0	0	469096	692	0	correct_rejection	NA	0
6	Triplet	108	756	594	8	0	0	469805	691	0	correct_rejection	NA	0
6	Triplet	109	757	595	9	0	0	470513	692	0	correct_rejection	NA	0
6	Triplet	110	758	596	0	1	2	471222	691	1	hit	399	0
6	Triplet	111	759	597	9	0	0	471930	692	0	correct_rejection	NA	0
6	Triplet	112	760	598	8	0	0	472639	692	0	correct_rejection	NA	0
6	Triplet	113	761	599	7	0	0	473347	692	0	correct_rejection	NA	0
6	Triplet	114	762	600	4	0	0	474056	692	0	correct_rejection	NA	0
6	Triplet	115	763	601	5	0	0	474765	691	0	correct_rejection	NA	0
6	Triplet	116	764	602	6	0	0	475473	692	0	correct_rejection	NA	0
6	Triplet	117	765	603	0	1	2	476182	691	1	hit	404	0
6	Triplet	118	766	604	4	0	0	476890	692	0	correct_rejection	NA	0
6	Triplet	119	767	605	5	0	0	477599	692	0	correct_rejection	NA	0
6	Triplet	120	768	606	6	0	0	478307	692	0	correct_rejection	NA	0
6	Triplet	121	769	607	9	0	0	479016	692	0	correct_rejection	NA	0
6	Triplet	122	770	608	8	0	0	479725	691	0	correct_rejection	NA	0
6	Triplet	123	771	609	0	1	1	480433	692	1	hit	576	0
6	Triplet	124	772	610	7	0	0	481142	691	0	correct_rejection	NA	0
6	Triplet	125	773	611	7	0	0	481850	692	0	correct_rejection	NA	0
6	Triplet	126	774	612	8	0	0	482559	692	0	correct_rejection	NA	0
6	Triplet	127	775	613	9	0	0	483267	692	0	correct_rejection	NA	0
6	Triplet	128	776	614	0	1	2	483976	692	1	hit	398	0
6	Triplet	129	777	615	6	0	0	484685	691	0	correct_rejection	NA	0
6	Triplet	130	778	616	5	0	0	485393	692	0	correct_rejection	NA	0
6	Triplet	131	779	617	4	0	0	486102	691	0	correct_rejection	NA	0
6	Triplet	132	780	618	7	0	0	486810	692	0	correct_rejection	NA	0
6	Triplet	133	781	619	8	0	0	487519	692	0	correct_rejection	NA	0
6	Triplet	134	782	620	9	0	0	488227	692	0	correct_rejection	NA	0
6	Triplet	135	783	621	7	0	0	488936	692	0	correct_rejection	NA	0
6	Triplet	136	784	622	8	0	0	489645	691	0	correct_rejection	NA	0
6	Triplet	137	785	623	9	0	0	490353	692	0	correct_rejection	NA	0
6	Triplet	138	786	624	4	0	0	491062	691	0	correct_rejection	NA	0
6	Triplet	139	787	625	0	1	1	491770	692	1	hit	297	0
6	Triplet	140	788	626	5	0	0	492479	691	0	correct_rejection	NA	0
6	Triplet	141	789	627	6	0	0	493187	692	0	correct_rejection	NA	0
6	Triplet	142	790	628	0	1	2	493896	692	1	hit	366	0
6	Triplet	143	791	629	6	0	0	494605	691	0	correct_rejection	NA	0
6	Triplet	144	792	630	5	0	0	495313	692	0	correct_rejection	NA	0
6	Triplet	145	793	631	4	0	0	496022	691	0	correct_rejection	NA	0
6	Triplet	146	794	632	6	0	0	496730	692	0	correct_rejection	NA	0
6	Triplet	147	795	633	5	0	0	497439	691	0	correct_rejection	NA	0
6	Triplet	148	796	634	4	0	0	498147	692	0	correct_rejection	NA	0
6	Triplet	149	797	635	0	1	2	498856	692	1	hit	320	0
6	Triplet	150	798	636	9	0	0	499564	692	0	correct_rejection	NA	0
6	Triplet	151	799	637	8	0	0	500273	692	0	correct_rejection	NA	0
6	Triplet	152	800	638	7	0	0	500982	691	0	correct_rejection	NA	0
6	Triplet	153	801	639	0	1	2	501690	692	1	hit	398	0
6	Triplet	154	802	640	9	0	0	502399	691	0	correct_rejection	NA	0
6	Triplet	155	803	641	8	0	0	503107	692	0	correct_rejection	NA	0
6	Triplet	156	804	642	7	0	0	503816	692	0	correct_rejection	NA	0
6	Triplet	157	805	643	6	0	0	504524	692	0	correct_rejection	NA	0
6	Triplet	158	806	644	5	0	0	505233	692	0	correct_rejection	NA	0
6	Triplet	159	807	645	4	0	0	505942	691	0	correct_rejection	NA	0
6	Triplet	160	808	646	4	0	0	506650	692	0	correct_rejection	NA	0
6	Triplet	161	809	647	5	0	0	507359	691	0	correct_rejection	NA	0
6	Triplet	162	810	648	6	0	0	508067	692	0	correct_rejection	NA	0
6	Correct	1	487	649	4	0	0	517979	692	0	correct_rejection	NA	7709
6	Correct	2	488	650	5	0	0	518687	692	0	correct_rejection	NA	0
6	Correct	3	489	651	6	0	0	519396	692	0	correct_rejection	NA	0
6	Correct	4	490	652	4	0	0	520105	691	0	correct_rejection	NA	0
6	Correct	5	491	653	0	1	1	520813	692	1	hit	302	0
6	Correct	6	492	654	5	0	0	521522	691	0	correct_rejection	NA	0
6	Correct	7	493	655	6	0	0	522230	692	0	correct_rejection	NA	0
6	Correct	8	494	656	0	1	2	522939	692	1	hit	411	0
6	Correct	9	495	657	4	0	0	523647	692	0	correct_rejection	NA	0
6	Correct	10	496	658	5	0	0	524356	692	0	correct_rejection	NA	0
6	Correct	11	497	659	6	0	0	525065	691	0	correct_rejection	NA	0
6	Correct	12	498	660	6	0	0	525773	692	0	correct_rejection	NA	0
6	Correct	13	499	661	5	0	0	526482	691	0	correct_rejection	NA	0
6	Correct	14	500	662	4	0	0	527190	692	0	correct_rejection	NA	0
6	Correct	15	501	663	0	1	2	527899	692	1	hit	329	0
6	Correct	16	502	664	6	0	0	528607	692	0	correct_rejection	NA	0
6	Correct	17	503	665	5	0	0	529316	692	0	correct_rejection	NA	0
6	Correct	18	504	666	4	0	0	530025	691	0	correct_rejection	NA	0
6	Correct	19	505	667	6	0	0	530733	692	0	correct_rejection	NA	0
6	Correct	20	506	668	0	1	1	531442	691	1	hit	393	0
6	Correct	21	507	669	5	0	0	532150	692	0	correct_rejection	NA	0
6	Correct	22	508	670	4	0	0	532859	692	0	correct_rejection	NA	0
6	Correct	23	509	671	9	0	0	533567	692	0	correct_rejection	NA	0
6	Correct	24	510	672	8	0	0	534276	692	0	correct_rejection	NA	0
6	Correct	25	511	673	7	0	0	534985	691	0	correct_rejection	NA	0
6	Correct	26	512	674	9	0	0	535693	692	0	correct_rejection	NA	0
6	Correct	27	513	675	0	1	1	536402	691	1	hit	337	0
6	Correct	28	514	676	8	0	0	537110	692	0	correct_rejection	NA	0
6	Correct	29	515	677	7	0	0	537819	691	0	correct_rejection	NA	0
6	Correct	30	516	678	9	0	0	538527	692	0	correct_rejection	NA	0
6	Correct	31	517	679	8	0	0	539236	692	0	correct_rejection	NA	0
6	Correct	32	518	680	0	1	1	539944	692	1	hit	401	0
6	Correct	33	519	681	7	0	0	540653	692	0	correct_rejection	NA	0
6	Correct	34	520	682	7	0	0	541362	691	0	correct_rejection	NA	0
6	Correct	35	521	683	8	0	0	542070	692	0	correct_rejection	NA	0
6	Correct	36	522	684	9	0	0	542779	691	0	correct_rejection	NA	0
6	Correct	37	523	685	7	0	0	543487	692	0	correct_rejection	NA	0
6	Correct	38	524	686	8	0	0	544196	692	0	correct_rejection	NA	0
6	Correct	39	525	687	9	0	0	544904	692	0	correct_rejection	NA	0
6	Correct	40	526	688	7	0	0	545613	692	0	correct_rejection	NA	0
6	Correct	41	527	689	8	0	0	546322	691	0	correct_rejection	NA	0
6	Correct	42	528	690	9	0	0	547030	692	0	correct_rejection	NA	0
6	Correct	43	529	691	4	0	0	547739	691	0	correct_rejection	NA	0
6	Correct	44	530	692	5	0	0	548447	692	0	correct_rejection	NA	0
6	Correct	45	531	693	6	0	0	549156	692	0	correct_rejection	NA	0
6	Correct	46	532	694	4	0	0	549864	692	0	correct_rejection	NA	0
6	Correct	47	533	695	5	0	0	550573	692	0	correct_rejection	NA	0
6	Correct	48	534	696	6	0	0	551282	691	0	correct_rejection	NA	0
6	Correct	49	535	697	4	0	0	551990	692	0	correct_rejection	NA	0
6	Correct	50	536	698	5	0	0	552699	691	0	correct_rejection	NA	0
6	Correct	51	537	699	0	1	1	553407	692	1	hit	434	0
6	Correct	52	538	700	6	0	0	554116	692	0	correct_rejection	NA	0
6	Correct	53	539	701	6	0	0	554824	692	0	correct_rejection	NA	0
6	Correct	54	540	702	5	0	0	555533	692	0	correct_rejection	NA	0
6	Correct	55	541	703	4	0	0	556242	691	0	correct_rejection	NA	0
6	Correct	56	542	704	6	0	0	556950	692	0	correct_rejection	NA	0
6	Correct	57	543	705	5	0	0	557659	691	0	correct_rejection	NA	0
6	Correct	58	544	706	4	0	0	558367	692	0	correct_rejection	NA	0
6	Correct	59	545	707	0	1	2	559076	692	1	hit	366	0
6	Correct	60	546	708	6	0	0	559784	692	0	correct_rejection	NA	0
6	Correct	61	547	709	5	0	0	560493	692	0	correct_rejection	NA	0
6	Correct	62	548	710	0	1	1	561202	691	1	hit	459	0
6	Correct	63	549	711	4	0	0	561910	692	0	correct_rejection	NA	0
6	Correct	64	550	712	9	0	0	562619	691	0	correct_rejection	NA	0
6	Correct	65	551	713	0	1	1	563327	692	1	hit	360	0
6	Correct	66	552	714	8	0	0	564036	691	0	correct_rejection	NA	0
6	Correct	67	553	715	7	0	0	564744	692	0	correct_rejection	NA	0
6	Correct	68	554	716	9	0	0	565453	692	0	correct_rejection	NA	0
6	Correct	69	555	717	8	0	0	566161	692	0	correct_rejection	NA	0
6	Correct	70	556	718	0	1	1	566870	692	1	hit	353	0
6	Correct	71	557	719	7	0	0	567579	691	0	correct_rejection	NA	0
6	Correct	72	558	720	9	0	0	568287	692	0	correct_rejection	NA	0
6	Correct	73	559	721	8	0	0	568996	691	0	correct_rejection	NA	0
6	Correct	74	560	722	7	0	0	569704	692	0	correct_rejection	NA	0
6	Correct	75	561	723	7	0	0	570413	692	0	correct_rejection	NA	0
6	Correct	76	562	724	8	0	0	571121	692	0	correct_rejection	NA	0
6	Correct	77	563	725	9	0	0	571830	692	0	correct_rejection	NA	0
6	Correct	78	564	726	7	0	0	572539	691	0	correct_rejection	NA	0
6	Correct	79	565	727	8	0	0	573247	692	0	correct_rejection	NA	0
6	Correct	80	566	728	9	0	0	573956	691	0	correct_rejection	NA	0
6	Correct	81	567	729	7	0	0	574664	692	0	correct_rejection	NA	0
6	Correct	82	568	730	8	0	0	575373	692	0	correct_rejection	NA	0
6	Correct	83	569	731	9	0	0	576081	692	0	correct_rejection	NA	0
6	Correct	84	570	732	4	0	0	576790	692	0	correct_rejection	NA	0
6	Correct	85	571	733	5	0	0	577499	691	0	correct_rejection	NA	0
6	Correct	86	572	734	6	0	0	578207	692	0	correct_rejection	NA	0
6	Correct	87	573	735	4	0	0	578916	691	0	correct_rejection	NA	0
6	Correct	88	574	736	5	0	0	579624	692	0	correct_rejection	NA	0
6	Correct	89	575	737	0	1	1	580333	692	1	hit	337	0
6	Correct	90	576	738	6	0	0	581041	692	0	correct_rejection	NA	0
6	Correct	91	577	739	4	0	0	581750	692	0	correct_rejection	NA	0
6	Correct	92	578	740	5	0	0	582459	691	0	correct_rejection	NA	0
6	Correct	93	579	741	6	0	0	583167	692	0	correct_rejection	NA	0
6	Correct	94	580	742	6	0	0	583876	691	0	correct_rejection	NA	0
6	Correct	95	581	743	0	1	1	584584	692	1	hit	489	0
6	Correct	96	582	744	5	0	0	585293	691	0	correct_rejection	NA	0
6	Correct	97	583	745	4	0	0	586001	692	0	correct_rejection	NA	0
6	Correct	98	584	746	6	0	0	586710	692	0	correct_rejection	NA	0
6	Correct	99	585	747	5	0	0	587419	691	0	correct_rejection	NA	0
6	Correct	100	586	748	4	0	0	588127	692	0	correct_rejection	NA	0
6	Correct	101	587	749	6	0	0	588836	691	0	correct_rejection	NA	0
6	Correct	102	588	750	5	0	0	589544	692	0	correct_rejection	NA	0
6	Correct	103	589	751	4	0	0	590253	691	0	correct_rejection	NA	0
6	Correct	104	590	752	9	0	0	590961	692	0	correct_rejection	NA	0
6	Correct	105	591	753	8	0	0	591670	692	0	correct_rejection	NA	0
6	Correct	106	592	754	7	0	0	592378	692	0	correct_rejection	NA	0
6	Correct	107	593	755	9	0	0	593087	692	0	correct_rejection	NA	0
6	Correct	108	594	756	8	0	0	593796	691	0	correct_rejection	NA	0
6	Correct	109	595	757	7	0	0	594504	692	0	correct_rejection	NA	0
6	Correct	110	596	758	9	0	0	595213	691	0	correct_rejection	NA	0
6	Correct	111	597	759	8	0	0	595921	692	0	correct_rejection	NA	0
6	Correct	112	598	760	7	0	0	596630	692	0	correct_rejection	NA	0
6	Correct	113	599	761	7	0	0	597338	692	0	correct_rejection	NA	0
6	Correct	114	600	762	8	0	0	598047	692	0	correct_rejection	NA	0
6	Correct	115	601	763	0	1	1	598756	691	1	hit	336	0
6	Correct	116	602	764	9	0	0	599464	692	0	correct_rejection	NA	0
6	Correct	117	603	765	7	0	0	600173	691	0	correct_rejection	NA	0
6	Correct	118	604	766	8	0	0	600881	692	0	correct_rejection	NA	0
6	Correct	119	605	767	9	0	0	601590	692	0	correct_rejection	NA	0
6	Correct	120	606	768	7	0	0	602298	692	0	correct_rejection	NA	0
6	Correct	121	607	769	8	0	0	603007	692	0	correct_rejection	NA	0
6	Correct	122	608	770	9	0	0	603716	691	0	correct_rejection	NA	0
6	Correct	123	609	771	0	1	4	604424	692	1	hit	384	0
6	Correct	124	610	772	4	0	0	605133	691	0	correct_rejection	NA	0
6	Correct	125	611	773	5	0	0	605841	692	0	correct_rejection	NA	0
6	Correct	126	612	774	6	0	0	606550	692	0	correct_rejection	NA	0
6	Correct	127	613	775	4	0	0	607258	692	0	correct_rejection	NA	0
6	Correct	128	614	776	5	0	0	607967	692	0	correct_rejection	NA	0
6	Correct	129	615	777	6	0	0	608676	691	0	correct_rejection	NA	0
6	Correct	130	616	778	0	1	2	609384	692	1	hit	415	0
6	Correct	131	617	779	4	0	0	610093	691	0	correct_rejection	NA	0
6	Correct	132	618	780	5	0	0	610801	692	0	correct_rejection	NA	0
6	Correct	133	619	781	6	0	0	611510	691	0	correct_rejection	NA	0
6	Correct	134	620	782	6	0	0	612218	692	0	correct_rejection	NA	0
6	Correct	135	621	783	5	0	0	612927	692	0	correct_rejection	NA	0
6	Correct	136	622	784	4	0	0	613635	692	0	correct_rejection	NA	0
6	Correct	137	623	785	6	0	0	614344	692	0	correct_rejection	NA	0
6	Correct	138	624	786	5	0	0	615053	691	0	correct_rejection	NA	0
6	Correct	139	625	787	0	1	1	615761	692	1	hit	374	0
6	Correct	140	626	788	4	0	0	616470	691	0	correct_rejection	NA	0
6	Correct	141	627	789	6	0	0	617178	692	0	correct_rejection	NA	0
6	Correct	142	628	790	5	0	0	617887	692	0	correct_rejection	NA	0
6	Correct	143	629	791	4	0	0	618595	692	0	correct_rejection	NA	0
6	Correct	144	630	792	0	1	3	619304	692	1	hit	476	0
6	Correct	145	631	793	9	0	0	620013	691	0	correct_rejection	NA	0
6	Correct	146	632	794	8	0	0	620721	692	0	correct_rejection	NA	0
6	Correct	147	633	795	7	0	0	621430	691	0	correct_rejection	NA	0
6	Correct	148	634	796	9	0	0	622138	692	0	correct_rejection	NA	0
6	Correct	149	635	797	8	0	0	622847	692	0	correct_rejection	NA	0
6	Correct	150	636	798	7	0	0	623555	692	0	correct_rejection	NA	0
6	Correct	151	637	799	9	0	0	624264	692	0	correct_rejection	NA	0
6	Correct	152	638	800	8	0	0	624973	691	0	correct_rejection	NA	0
6	Correct	153	639	801	7	0	0	625681	692	0	correct_rejection	NA	0
6	Correct	154	640	802	7	0	0	626390	691	0	correct_rejection	NA	0
6	Correct	155	641	803	8	0	0	627098	692	0	correct_rejection	NA	0
6	Correct	156	642	804	9	0	0	627807	692	0	correct_rejection	NA	0
6	Correct	157	643	805	7	0	0	628515	692	0	correct_rejection	NA	0
6	Correct	158	644	806	8	0	0	629224	692	0	correct_rejection	NA	0
6	Correct	159	645	807	9	0	0	629933	691	0	correct_rejection	NA	0
6	Correct	160	646	808	7	0	0	630641	692	0	correct_rejection	NA	0
6	Correct	161	647	809	8	0	0	631350	691	0	correct_rejection	NA	0
6	Correct	162	648	810	9	0	0	632058	692	0	correct_rejection	NA	0
trigger nr 624 at 634223
trigger nr 629 at 721208
6	Nonet	1	487	811	7	0	0	728865	692	0	correct_rejection	NA	7618
6	Nonet	2	488	812	8	0	0	729574	691	0	correct_rejection	NA	0
6	Nonet	3	489	813	9	0	0	730282	692	0	correct_rejection	NA	0
6	Nonet	4	490	814	0	1	2	730991	692	1	hit	443	0
6	Nonet	5	491	815	7	0	0	731700	691	0	correct_rejection	NA	0
6	Nonet	6	492	816	8	0	0	732408	692	0	correct_rejection	NA	0
6	Nonet	7	493	817	9	0	0	733117	691	0	correct_rejection	NA	0
6	Nonet	8	494	818	7	0	0	733825	692	0	correct_rejection	NA	0
6	Nonet	9	495	819	8	0	0	734534	691	0	correct_rejection	NA	0
6	Nonet	10	496	820	9	0	0	735242	692	0	correct_rejection	NA	0
6	Nonet	11	497	821	7	0	0	735951	692	0	correct_rejection	NA	0
6	Nonet	12	498	822	8	0	0	736659	692	0	correct_rejection	NA	0
6	Nonet	13	499	823	0	1	1	737368	692	1	hit	361	0
6	Nonet	14	500	824	9	0	0	738077	691	0	correct_rejection	NA	0
6	Nonet	15	501	825	7	0	0	738785	692	0	correct_rejection	NA	0
6	Nonet	16	502	826	0	1	1	739494	691	1	hit	355	0
6	Nonet	17	503	827	8	0	0	740202	692	0	correct_rejection	NA	0
6	Nonet	18	504	828	9	0	0	740911	692	0	correct_rejection	NA	0
6	Nonet	19	505	829	7	0	0	741619	692	0	correct_rejection	NA	0
6	Nonet	20	506	830	8	0	0	742328	692	0	correct_rejection	NA	0
6	Nonet	21	507	831	9	0	0	743037	691	0	correct_rejection	NA	0
6	Nonet	22	508	832	9	0	0	743745	692	0	correct_rejection	NA	0
6	Nonet	23	509	833	8	0	0	744454	691	0	correct_rejection	NA	0
6	Nonet	24	510	834	7	0	0	745162	692	0	correct_rejection	NA	0
6	Nonet	25	511	835	9	0	0	745871	692	0	correct_rejection	NA	0
6	Nonet	26	512	836	8	0	0	746579	692	0	correct_rejection	NA	0
6	Nonet	27	513	837	7	0	0	747288	692	0	correct_rejection	NA	0
6	Nonet	28	514	838	9	0	0	747997	691	0	correct_rejection	NA	0
6	Nonet	29	515	839	0	1	1	748705	692	1	hit	345	0
6	Nonet	30	516	840	8	0	0	749414	691	0	correct_rejection	NA	0
6	Nonet	31	517	841	7	0	0	750122	692	0	correct_rejection	NA	0
6	Nonet	32	518	842	9	0	0	750831	692	0	correct_rejection	NA	0
6	Nonet	33	519	843	8	0	0	751539	692	0	correct_rejection	NA	0
6	Nonet	34	520	844	7	0	0	752248	692	0	correct_rejection	NA	0
6	Nonet	35	521	845	9	0	0	752957	691	0	correct_rejection	NA	0
6	Nonet	36	522	846	0	1	1	753665	692	1	hit	389	0
6	Nonet	37	523	847	8	0	0	754374	691	0	correct_rejection	NA	0
6	Nonet	38	524	848	7	0	0	755082	692	0	correct_rejection	NA	0
6	Nonet	39	525	849	9	0	0	755791	691	0	correct_rejection	NA	0
6	Nonet	40	526	850	8	0	0	756499	692	0	correct_rejection	NA	0
6	Nonet	41	527	851	7	0	0	757208	692	0	correct_rejection	NA	0
6	Nonet	42	528	852	4	0	0	757916	692	0	correct_rejection	NA	0
6	Nonet	43	529	853	5	0	0	758625	692	0	correct_rejection	NA	0
6	Nonet	44	530	854	6	0	0	759334	691	0	correct_rejection	NA	0
6	Nonet	45	531	855	4	0	0	760042	692	0	correct_rejection	NA	0
6	Nonet	46	532	856	5	0	0	760751	691	0	correct_rejection	NA	0
6	Nonet	47	533	857	0	1	1	761459	692	1	hit	354	0
6	Nonet	48	534	858	6	0	0	762168	692	0	correct_rejection	NA	0
6	Nonet	49	535	859	4	0	0	762876	692	0	correct_rejection	NA	0
6	Nonet	50	536	860	5	0	0	763585	692	0	correct_rejection	NA	0
6	Nonet	51	537	861	6	0	0	764294	691	0	correct_rejection	NA	0
6	Nonet	52	538	862	6	0	0	765002	692	0	correct_rejection	NA	0
6	Nonet	53	539	863	5	0	0	765711	691	0	correct_rejection	NA	0
6	Nonet	54	540	864	4	0	0	766419	692	0	correct_rejection	NA	0
6	Nonet	55	541	865	6	0	0	767128	692	0	correct_rejection	NA	0
6	Nonet	56	542	866	5	0	0	767836	692	0	correct_rejection	NA	0
6	Nonet	57	543	867	4	0	0	768545	692	0	correct_rejection	NA	0
6	Nonet	58	544	868	6	0	0	769254	691	0	correct_rejection	NA	0
6	Nonet	59	545	869	5	0	0	769962	692	0	correct_rejection	NA	0
6	Nonet	60	546	870	4	0	0	770671	691	0	correct_rejection	NA	0
6	Nonet	61	547	871	4	0	0	771379	692	0	correct_rejection	NA	0
6	Nonet	62	548	872	5	0	0	772088	692	0	correct_rejection	NA	0
6	Nonet	63	549	873	6	0	0	772796	692	0	correct_rejection	NA	0
6	Nonet	64	550	874	4	0	0	773505	692	0	correct_rejection	NA	0
6	Nonet	65	551	875	5	0	0	774214	691	0	correct_rejection	NA	0
6	Nonet	66	552	876	6	0	0	774922	692	0	correct_rejection	NA	0
6	Nonet	67	553	877	0	1	2	775631	691	1	hit	383	0
6	Nonet	68	554	878	4	0	0	776339	692	0	correct_rejection	NA	0
6	Nonet	69	555	879	5	0	0	777048	692	0	correct_rejection	NA	0
6	Nonet	70	556	880	6	0	0	777756	692	0	correct_rejection	NA	0
6	Nonet	71	557	881	7	0	0	778465	692	0	correct_rejection	NA	0
6	Nonet	72	558	882	8	0	0	779174	691	0	correct_rejection	NA	0
6	Nonet	73	559	883	9	0	0	779882	692	0	correct_rejection	NA	0
6	Nonet	74	560	884	7	0	0	780591	691	0	correct_rejection	NA	0
6	Nonet	75	561	885	8	0	0	781299	692	0	correct_rejection	NA	0
6	Nonet	76	562	886	9	0	0	782008	691	0	correct_rejection	NA	0
6	Nonet	77	563	887	7	0	0	782716	692	0	correct_rejection	NA	0
6	Nonet	78	564	888	8	0	0	783425	692	0	correct_rejection	NA	0
6	Nonet	79	565	889	9	0	0	784133	692	0	correct_rejection	NA	0
6	Nonet	80	566	890	6	0	0	784842	692	0	correct_rejection	NA	0
6	Nonet	81	567	891	5	0	0	785551	691	0	correct_rejection	NA	0
6	Nonet	82	568	892	0	1	1	786259	692	1	hit	365	0
6	Nonet	83	569	893	4	0	0	786968	691	0	correct_rejection	NA	0
6	Nonet	84	570	894	6	0	0	787676	692	0	correct_rejection	NA	0
6	Nonet	85	571	895	5	0	0	788385	692	0	correct_rejection	NA	0
6	Nonet	86	572	896	4	0	0	789093	692	0	correct_rejection	NA	0
6	Nonet	87	573	897	0	1	2	789802	692	1	hit	406	0
6	Nonet	88	574	898	6	0	0	790511	691	0	correct_rejection	NA	0
6	Nonet	89	575	899	5	0	0	791219	692	0	correct_rejection	NA	0
6	Nonet	90	576	900	4	0	0	791928	691	0	correct_rejection	NA	0
6	Nonet	91	577	901	9	0	0	792636	692	0	correct_rejection	NA	0
6	Nonet	92	578	902	8	0	0	793345	692	0	correct_rejection	NA	0
6	Nonet	93	579	903	7	0	0	794053	692	0	correct_rejection	NA	0
6	Nonet	94	580	904	9	0	0	794762	692	0	correct_rejection	NA	0
6	Nonet	95	581	905	8	0	0	795471	691	0	correct_rejection	NA	0
6	Nonet	96	582	906	7	0	0	796179	692	0	correct_rejection	NA	0
6	Nonet	97	583	907	0	1	2	796888	691	1	hit	430	0
6	Nonet	98	584	908	9	0	0	797596	692	0	correct_rejection	NA	0
6	Nonet	99	585	909	8	0	0	798305	692	0	correct_rejection	NA	0
6	Nonet	100	586	910	7	0	0	799013	692	0	correct_rejection	NA	0
6	Nonet	101	587	911	6	0	0	799722	692	0	correct_rejection	NA	0
6	Nonet	102	588	912	5	0	0	800431	691	0	correct_rejection	NA	0
6	Nonet	103	589	913	0	1	1	801139	692	1	hit	442	0
6	Nonet	104	590	914	4	0	0	801848	691	0	correct_rejection	NA	0
6	Nonet	105	591	915	6	0	0	802556	692	0	correct_rejection	NA	0
6	Nonet	106	592	916	5	0	0	803265	691	0	correct_rejection	NA	0
6	Nonet	107	593	917	4	0	0	803973	692	0	correct_rejection	NA	0
6	Nonet	108	594	918	6	0	0	804682	692	0	correct_rejection	NA	0
6	Nonet	109	595	919	5	0	0	805391	691	0	correct_rejection	NA	0
6	Nonet	110	596	920	4	0	0	806099	692	0	correct_rejection	NA	0
6	Nonet	111	597	921	6	0	0	806808	691	0	correct_rejection	NA	0
6	Nonet	112	598	922	5	0	0	807516	692	0	correct_rejection	NA	0
6	Nonet	113	599	923	4	0	0	808225	691	0	correct_rejection	NA	0
6	Nonet	114	600	924	6	0	0	808933	692	0	correct_rejection	NA	0
6	Nonet	115	601	925	5	0	0	809642	692	0	correct_rejection	NA	0
6	Nonet	116	602	926	4	0	0	810350	692	0	correct_rejection	NA	0
6	Nonet	117	603	927	6	0	0	811059	692	0	correct_rejection	NA	0
6	Nonet	118	604	928	0	1	1	811768	691	1	hit	368	0
6	Nonet	119	605	929	5	0	0	812476	692	0	correct_rejection	NA	0
6	Nonet	120	606	930	4	0	0	813185	691	0	correct_rejection	NA	0
6	Nonet	121	607	931	7	0	0	813893	692	0	correct_rejection	NA	0
6	Nonet	122	608	932	8	0	0	814602	692	0	correct_rejection	NA	0
6	Nonet	123	609	933	0	1	1	815310	692	1	hit	367	0
6	Nonet	124	610	934	9	0	0	816019	692	0	correct_rejection	NA	0
6	Nonet	125	611	935	7	0	0	816728	691	0	correct_rejection	NA	0
6	Nonet	126	612	936	0	1	1	817436	692	1	hit	354	0
6	Nonet	127	613	937	8	0	0	818145	691	0	correct_rejection	NA	0
6	Nonet	128	614	938	9	0	0	818853	692	0	correct_rejection	NA	0
6	Nonet	129	615	939	0	1	2	819562	692	1	hit	454	0
6	Nonet	130	616	940	7	0	0	820270	692	0	correct_rejection	NA	0
6	Nonet	131	617	941	8	0	0	820979	692	0	correct_rejection	NA	0
6	Nonet	132	618	942	9	0	0	821688	691	0	correct_rejection	NA	0
6	Nonet	133	619	943	4	0	0	822396	692	0	correct_rejection	NA	0
6	Nonet	134	620	944	5	0	0	823105	691	0	correct_rejection	NA	0
6	Nonet	135	621	945	6	0	0	823813	692	0	correct_rejection	NA	0
6	Nonet	136	622	946	4	0	0	824522	692	0	correct_rejection	NA	0
6	Nonet	137	623	947	5	0	0	825230	692	0	correct_rejection	NA	0
6	Nonet	138	624	948	6	0	0	825939	692	0	correct_rejection	NA	0
6	Nonet	139	625	949	4	0	0	826648	691	0	correct_rejection	NA	0
6	Nonet	140	626	950	5	0	0	827356	692	0	correct_rejection	NA	0
6	Nonet	141	627	951	6	0	0	828065	691	0	correct_rejection	NA	0
6	Nonet	142	628	952	4	0	0	828773	692	0	correct_rejection	NA	0
6	Nonet	143	629	953	5	0	0	829482	691	0	correct_rejection	NA	0
6	Nonet	144	630	954	6	0	0	830190	692	0	correct_rejection	NA	0
6	Nonet	145	631	955	4	0	0	830899	692	0	correct_rejection	NA	0
6	Nonet	146	632	956	0	1	1	831608	691	1	hit	404	0
6	Nonet	147	633	957	5	0	0	832316	692	0	correct_rejection	NA	0
6	Nonet	148	634	958	6	0	0	833025	691	0	correct_rejection	NA	0
6	Nonet	149	635	959	0	1	2	833733	692	1	hit	403	0
6	Nonet	150	636	960	4	0	0	834442	691	0	correct_rejection	NA	0
6	Nonet	151	637	961	5	0	0	835150	692	0	correct_rejection	NA	0
6	Nonet	152	638	962	6	0	0	835859	692	0	correct_rejection	NA	0
6	Nonet	153	639	963	9	0	0	836567	692	0	correct_rejection	NA	0
6	Nonet	154	640	964	8	0	0	837276	692	0	correct_rejection	NA	0
6	Nonet	155	641	965	7	0	0	837985	691	0	correct_rejection	NA	0
6	Nonet	156	642	966	9	0	0	838693	692	0	correct_rejection	NA	0
6	Nonet	157	643	967	8	0	0	839402	691	0	correct_rejection	NA	0
6	Nonet	158	644	968	7	0	0	840110	692	0	correct_rejection	NA	0
6	Nonet	159	645	969	9	0	0	840819	692	0	correct_rejection	NA	0
6	Nonet	160	646	970	8	0	0	841527	692	0	correct_rejection	NA	0
6	Nonet	161	647	971	0	1	1	842236	692	1	hit	382	0
6	Nonet	162	648	972	7	0	0	842945	691	0	correct_rejection	NA	0
6	Single	1	163	973	8	0	0	852239	692	0	correct_rejection	NA	6998
6	Single	2	164	974	6	0	0	852948	692	0	correct_rejection	NA	0
6	Single	3	165	975	7	0	0	853656	692	0	correct_rejection	NA	0
6	Single	4	166	976	5	0	0	854365	692	0	correct_rejection	NA	0
6	Single	5	167	977	0	1	1	855074	691	1	hit	319	0
6	Single	6	168	978	5	0	0	855782	692	0	correct_rejection	NA	0
6	Single	7	169	979	7	0	0	856491	691	0	correct_rejection	NA	0
6	Single	8	170	980	6	0	0	857199	692	0	correct_rejection	NA	0
6	Single	9	171	981	0	1	1	857908	692	1	hit	375	0
6	Single	10	172	982	8	0	0	858616	692	0	correct_rejection	NA	0
6	Single	11	173	983	7	0	0	859325	692	0	correct_rejection	NA	0
6	Single	12	174	984	7	0	0	860034	691	0	correct_rejection	NA	0
6	Single	13	175	985	8	0	0	860742	692	0	correct_rejection	NA	0
6	Single	14	176	986	8	0	0	861451	691	0	correct_rejection	NA	0
6	Single	15	177	987	4	0	0	862159	692	0	correct_rejection	NA	0
6	Single	16	178	988	7	0	0	862868	692	0	correct_rejection	NA	0
6	Single	17	179	989	0	1	1	863576	692	1	hit	340	0
6	Single	18	180	990	9	0	0	864285	692	0	correct_rejection	NA	0
6	Single	19	181	991	6	0	0	864994	691	0	correct_rejection	NA	0
6	Single	20	182	992	5	0	0	865702	692	0	correct_rejection	NA	0
6	Single	21	183	993	9	0	0	866411	691	0	correct_rejection	NA	0
6	Single	22	184	994	7	0	0	867119	692	0	correct_rejection	NA	0
6	Single	23	185	995	4	0	0	867828	691	0	correct_rejection	NA	0
6	Single	24	186	996	4	0	0	868536	692	0	correct_rejection	NA	0
6	Single	25	187	997	0	1	1	869245	692	1	hit	315	0
6	Single	26	188	998	6	0	0	869954	691	0	correct_rejection	NA	0
6	Single	27	189	999	9	0	0	870662	692	0	correct_rejection	NA	0
6	Single	28	190	1000	9	0	0	871371	691	0	correct_rejection	NA	0
6	Single	29	191	1001	5	0	0	872079	692	0	correct_rejection	NA	0
6	Single	30	192	1002	6	0	0	872788	691	0	correct_rejection	NA	0
6	Single	31	193	1003	6	0	0	873496	692	0	correct_rejection	NA	0
6	Single	32	194	1004	0	1	1	874205	692	1	hit	407	0
6	Single	33	195	1005	4	0	0	874913	692	0	correct_rejection	NA	0
6	Single	34	196	1006	8	0	0	875622	692	0	correct_rejection	NA	0
6	Single	35	197	1007	5	0	0	876331	691	0	correct_rejection	NA	0
6	Single	36	198	1008	4	0	0	877039	692	0	correct_rejection	NA	0
6	Single	37	199	1009	9	0	0	877748	691	0	correct_rejection	NA	0
6	Single	38	200	1010	4	0	0	878456	692	0	correct_rejection	NA	0
6	Single	39	201	1011	5	0	0	879165	692	0	correct_rejection	NA	0
6	Single	40	202	1012	8	0	0	879873	692	0	correct_rejection	NA	0
6	Single	41	203	1013	9	0	0	880582	692	0	correct_rejection	NA	0
6	Single	42	204	1014	9	0	0	881291	691	0	correct_rejection	NA	0
6	Single	43	205	1015	7	0	0	881999	692	0	correct_rejection	NA	0
6	Single	44	206	1016	6	0	0	882708	691	0	correct_rejection	NA	0
6	Single	45	207	1017	9	0	0	883416	692	0	correct_rejection	NA	0
6	Single	46	208	1018	6	0	0	884125	692	0	correct_rejection	NA	0
6	Single	47	209	1019	8	0	0	884833	692	0	correct_rejection	NA	0
6	Single	48	210	1020	0	1	1	885542	692	1	hit	385	0
6	Single	49	211	1021	4	0	0	886251	691	0	correct_rejection	NA	0
6	Single	50	212	1022	8	0	0	886959	692	0	correct_rejection	NA	0
6	Single	51	213	1023	8	0	0	887668	691	0	correct_rejection	NA	0
6	Single	52	214	1024	0	1	1	888376	692	1	hit	410	0
6	Single	53	215	1025	5	0	0	889085	692	0	correct_rejection	NA	0
6	Single	54	216	1026	7	0	0	889793	692	0	correct_rejection	NA	0
6	Single	55	217	1027	7	0	0	890502	692	0	correct_rejection	NA	0
6	Single	56	218	1028	5	0	0	891211	691	0	correct_rejection	NA	0
6	Single	57	219	1029	6	0	0	891919	692	0	correct_rejection	NA	0
6	Single	58	220	1030	4	0	0	892628	691	0	correct_rejection	NA	0
6	Single	59	221	1031	7	0	0	893336	692	0	correct_rejection	NA	0
6	Single	60	222	1032	0	1	1	894045	691	1	hit	312	0
6	Single	61	223	1033	4	0	0	894753	692	0	correct_rejection	NA	0
6	Single	62	224	1034	6	0	0	895462	692	0	correct_rejection	NA	0
6	Single	63	225	1035	5	0	0	896170	692	0	correct_rejection	NA	0
6	Single	64	226	1036	5	0	0	896879	692	0	correct_rejection	NA	0
6	Single	65	227	1037	8	0	0	897588	691	0	correct_rejection	NA	0
6	Single	66	228	1038	0	1	1	898296	692	1	hit	440	0
6	Single	67	229	1039	7	0	0	899005	691	0	correct_rejection	NA	0
6	Single	68	230	1040	8	0	0	899713	692	0	correct_rejection	NA	0
6	Single	69	231	1041	9	0	0	900422	692	0	correct_rejection	NA	0
6	Single	70	232	1042	0	1	1	901130	692	1	hit	456	0
6	Single	71	233	1043	4	0	0	901839	692	0	correct_rejection	NA	0
6	Single	72	234	1044	9	0	0	902548	691	0	correct_rejection	NA	0
6	Single	73	235	1045	5	0	0	903256	692	0	correct_rejection	NA	0
6	Single	74	236	1046	4	0	0	903965	691	0	correct_rejection	NA	0
6	Single	75	237	1047	4	0	0	904673	692	0	correct_rejection	NA	0
6	Single	76	238	1048	5	0	0	905382	692	0	correct_rejection	NA	0
6	Single	77	239	1049	0	1	1	906090	692	1	hit	363	0
6	Single	78	240	1050	9	0	0	906799	692	0	correct_rejection	NA	0
6	Single	79	241	1051	9	0	0	907508	691	0	correct_rejection	NA	0
6	Single	80	242	1052	8	0	0	908216	692	0	correct_rejection	NA	0
6	Single	81	243	1053	6	0	0	908925	691	0	correct_rejection	NA	0
6	Single	82	244	1054	6	0	0	909633	692	0	correct_rejection	NA	0
6	Single	83	245	1055	7	0	0	910342	692	0	correct_rejection	NA	0
6	Single	84	246	1056	7	0	0	911050	692	0	correct_rejection	NA	0
6	Single	85	247	1057	5	0	0	911759	692	0	correct_rejection	NA	0
6	Single	86	248	1058	7	0	0	912468	691	0	correct_rejection	NA	0
6	Single	87	249	1059	9	0	0	913176	692	0	correct_rejection	NA	0
6	Single	88	250	1060	9	0	0	913885	691	0	correct_rejection	NA	0
6	Single	89	251	1061	7	0	0	914593	692	0	correct_rejection	NA	0
6	Single	90	252	1062	7	0	0	915302	692	0	correct_rejection	NA	0
6	Single	91	253	1063	4	0	0	916010	692	0	correct_rejection	NA	0
6	Single	92	254	1064	8	0	0	916719	692	0	correct_rejection	NA	0
6	Single	93	255	1065	7	0	0	917428	691	0	correct_rejection	NA	0
6	Single	94	256	1066	6	0	0	918136	692	0	correct_rejection	NA	0
6	Single	95	257	1067	5	0	0	918845	691	0	correct_rejection	NA	0
6	Single	96	258	1068	6	0	0	919553	692	0	correct_rejection	NA	0
6	Single	97	259	1069	7	0	0	920262	691	0	correct_rejection	NA	0
6	Single	98	260	1070	8	0	0	920970	692	0	correct_rejection	NA	0
6	Single	99	261	1071	5	0	0	921679	692	0	correct_rejection	NA	0
6	Single	100	262	1072	9	0	0	922387	692	0	correct_rejection	NA	0
6	Single	101	263	1073	4	0	0	923096	692	0	correct_rejection	NA	0
6	Single	102	264	1074	4	0	0	923805	691	0	correct_rejection	NA	0
6	Single	103	265	1075	9	0	0	924513	692	0	correct_rejection	NA	0
6	Single	104	266	1076	0	1	1	925222	691	1	hit	411	0
6	Single	105	267	1077	8	0	0	925930	692	0	correct_rejection	NA	0
6	Single	106	268	1078	9	0	0	926639	692	0	correct_rejection	NA	0
6	Single	107	269	1079	6	0	0	927347	692	0	correct_rejection	NA	0
6	Single	108	270	1080	9	0	0	928056	692	0	correct_rejection	NA	0
6	Single	109	271	1081	0	1	1	928765	691	1	hit	584	0
6	Single	110	272	1082	5	0	0	929473	692	0	correct_rejection	NA	0
6	Single	111	273	1083	8	0	0	930182	691	0	correct_rejection	NA	0
6	Single	112	274	1084	4	0	0	930890	692	0	correct_rejection	NA	0
6	Single	113	275	1085	5	0	0	931599	692	0	correct_rejection	NA	0
6	Single	114	276	1086	5	0	0	932307	692	0	correct_rejection	NA	0
6	Single	115	277	1087	4	0	0	933016	692	0	correct_rejection	NA	0
6	Single	116	278	1088	6	0	0	933725	691	0	correct_rejection	NA	0
6	Single	117	279	1089	6	0	0	934433	692	0	correct_rejection	NA	0
6	Single	118	280	1090	8	0	0	935142	691	0	correct_rejection	NA	0
6	Single	119	281	1091	8	0	0	935850	692	0	correct_rejection	NA	0
6	Single	120	282	1092	6	0	0	936559	692	0	correct_rejection	NA	0
6	Single	121	283	1093	4	0	0	937267	692	0	correct_rejection	NA	0
6	Single	122	284	1094	8	0	0	937976	692	0	correct_rejection	NA	0
6	Single	123	285	1095	4	0	0	938685	691	0	correct_rejection	NA	0
6	Single	124	286	1096	6	0	0	939393	692	0	correct_rejection	NA	0
6	Single	125	287	1097	0	1	1	940102	691	1	hit	390	0
6	Single	126	288	1098	9	0	0	940810	692	0	correct_rejection	NA	0
6	Single	127	289	1099	8	0	0	941519	691	0	correct_rejection	NA	0
6	Single	128	290	1100	8	0	0	942227	692	0	correct_rejection	NA	0
6	Single	129	291	1101	0	1	1	942936	692	1	hit	411	0
6	Single	130	292	1102	9	0	0	943645	691	0	correct_rejection	NA	0
6	Single	131	293	1103	5	0	0	944353	692	0	correct_rejection	NA	0
6	Single	132	294	1104	9	0	0	945062	691	0	correct_rejection	NA	0
6	Single	133	295	1105	7	0	0	945770	692	0	correct_rejection	NA	0
6	Single	134	296	1106	5	0	0	946479	691	0	correct_rejection	NA	0
6	Single	135	297	1107	8	0	0	947187	692	0	correct_rejection	NA	0
6	Single	136	298	1108	5	0	0	947896	692	0	correct_rejection	NA	0
6	Single	137	299	1109	5	0	0	948604	692	0	correct_rejection	NA	0
6	Single	138	300	1110	6	0	0	949313	692	0	correct_rejection	NA	0
6	Single	139	301	1111	8	0	0	950022	691	0	correct_rejection	NA	0
6	Single	140	302	1112	0	1	1	950730	692	1	hit	370	0
6	Single	141	303	1113	6	0	0	951439	691	0	correct_rejection	NA	0
6	Single	142	304	1114	7	0	0	952147	692	0	correct_rejection	NA	0
6	Single	143	305	1115	9	0	0	952856	692	0	correct_rejection	NA	0
6	Single	144	306	1116	6	0	0	953564	692	0	correct_rejection	NA	0
6	Single	145	307	1117	0	1	1	954273	692	1	hit	436	0
6	Single	146	308	1118	5	0	0	954982	691	0	correct_rejection	NA	0
6	Single	147	309	1119	4	0	0	955690	692	0	correct_rejection	NA	0
6	Single	148	310	1120	0	1	1	956399	691	1	hit	405	0
6	Single	149	311	1121	5	0	0	957107	692	0	correct_rejection	NA	0
6	Single	150	312	1122	7	0	0	957816	692	0	correct_rejection	NA	0
6	Single	151	313	1123	8	0	0	958524	692	0	correct_rejection	NA	0
6	Single	152	314	1124	7	0	0	959233	692	0	correct_rejection	NA	0
6	Single	153	315	1125	4	0	0	959942	691	0	correct_rejection	NA	0
6	Single	154	316	1126	4	0	0	960650	692	0	correct_rejection	NA	0
6	Single	155	317	1127	7	0	0	961359	691	0	correct_rejection	NA	0
6	Single	156	318	1128	7	0	0	962067	692	0	correct_rejection	NA	0
6	Single	157	319	1129	6	0	0	962776	692	0	correct_rejection	NA	0
6	Single	158	320	1130	6	0	0	963484	692	0	correct_rejection	NA	0
6	Single	159	321	1131	4	0	0	964193	692	0	correct_rejection	NA	0
6	Single	160	322	1132	9	0	0	964902	691	0	correct_rejection	NA	0
6	Single	161	323	1133	9	0	0	965610	692	0	correct_rejection	NA	0
6	Single	162	324	1134	4	0	0	966319	691	0	correct_rejection	NA	0
6	Correct	1	649	1135	4	0	0	976189	691	0	correct_rejection	NA	7949
6	Correct	2	650	1136	5	0	0	976897	692	0	correct_rejection	NA	0
6	Correct	3	651	1137	6	0	0	977606	691	0	correct_rejection	NA	0
6	Correct	4	652	1138	4	0	0	978314	692	0	correct_rejection	NA	0
6	Correct	5	653	1139	5	0	0	979023	692	0	correct_rejection	NA	0
6	Correct	6	654	1140	6	0	0	979731	692	0	correct_rejection	NA	0
6	Correct	7	655	1141	4	0	0	980440	692	0	correct_rejection	NA	0
6	Correct	8	656	1142	5	0	0	981149	691	0	correct_rejection	NA	0
6	Correct	9	657	1143	6	0	0	981857	692	0	correct_rejection	NA	0
6	Correct	10	658	1144	6	0	0	982566	691	0	correct_rejection	NA	0
6	Correct	11	659	1145	5	0	0	983274	692	0	correct_rejection	NA	0
6	Correct	12	660	1146	4	0	0	983983	692	0	correct_rejection	NA	0
6	Correct	13	661	1147	6	0	0	984691	692	0	correct_rejection	NA	0
6	Correct	14	662	1148	5	0	0	985400	692	0	correct_rejection	NA	0
6	Correct	15	663	1149	4	0	0	986109	691	0	correct_rejection	NA	0
6	Correct	16	664	1150	6	0	0	986817	692	0	correct_rejection	NA	0
6	Correct	17	665	1151	5	0	0	987526	691	0	correct_rejection	NA	0
6	Correct	18	666	1152	4	0	0	988234	692	0	correct_rejection	NA	0
6	Correct	19	667	1153	9	0	0	988943	691	0	correct_rejection	NA	0
6	Correct	20	668	1154	8	0	0	989651	692	0	correct_rejection	NA	0
6	Correct	21	669	1155	7	0	0	990360	692	0	correct_rejection	NA	0
6	Correct	22	670	1156	0	1	2	991069	691	1	hit	422	0
6	Correct	23	671	1157	9	0	0	991777	692	0	correct_rejection	NA	0
6	Correct	24	672	1158	8	0	0	992486	691	0	correct_rejection	NA	0
6	Correct	25	673	1159	7	0	0	993194	692	0	correct_rejection	NA	0
6	Correct	26	674	1160	9	0	0	993903	691	0	correct_rejection	NA	0
6	Correct	27	675	1161	8	0	0	994611	692	0	correct_rejection	NA	0
6	Correct	28	676	1162	7	0	0	995320	692	0	correct_rejection	NA	0
6	Correct	29	677	1163	7	0	0	996028	692	0	correct_rejection	NA	0
6	Correct	30	678	1164	8	0	0	996737	692	0	correct_rejection	NA	0
6	Correct	31	679	1165	9	0	0	997446	691	0	correct_rejection	NA	0
6	Correct	32	680	1166	7	0	0	998154	692	0	correct_rejection	NA	0
6	Correct	33	681	1167	8	0	0	998863	691	0	correct_rejection	NA	0
6	Correct	34	682	1168	9	0	0	999571	692	0	correct_rejection	NA	0
6	Correct	35	683	1169	0	1	2	1000280	692	1	hit	335	0
6	Correct	36	684	1170	7	0	0	1000988	692	0	correct_rejection	NA	0
6	Correct	37	685	1171	8	0	0	1001697	692	0	correct_rejection	NA	0
6	Correct	38	686	1172	9	0	0	1002406	691	0	correct_rejection	NA	0
6	Correct	39	687	1173	0	1	4	1003114	692	1	hit	372	0
6	Correct	40	688	1174	4	0	0	1003823	691	0	correct_rejection	NA	0
6	Correct	41	689	1175	5	0	0	1004531	692	0	correct_rejection	NA	0
6	Correct	42	690	1176	6	0	0	1005240	692	0	correct_rejection	NA	0
6	Correct	43	691	1177	4	0	0	1005948	692	0	correct_rejection	NA	0
6	Correct	44	692	1178	0	1	1	1006657	692	1	hit	415	0
6	Correct	45	693	1179	5	0	0	1007366	691	0	correct_rejection	NA	0
6	Correct	46	694	1180	6	0	0	1008074	692	0	correct_rejection	NA	0
6	Correct	47	695	1181	4	0	0	1008783	691	0	correct_rejection	NA	0
6	Correct	48	696	1182	5	0	0	1009491	692	0	correct_rejection	NA	0
6	Correct	49	697	1183	6	0	0	1010200	692	0	correct_rejection	NA	0
6	Correct	50	698	1184	6	0	0	1010908	692	0	correct_rejection	NA	0
6	Correct	51	699	1185	5	0	0	1011617	692	0	correct_rejection	NA	0
6	Correct	52	700	1186	4	0	0	1012326	691	0	correct_rejection	NA	0
6	Correct	53	701	1187	6	0	0	1013034	692	0	correct_rejection	NA	0
6	Correct	54	702	1188	5	0	0	1013743	691	0	correct_rejection	NA	0
6	Correct	55	703	1189	4	0	0	1014451	692	0	correct_rejection	NA	0
6	Correct	56	704	1190	6	0	0	1015160	691	0	correct_rejection	NA	0
6	Correct	57	705	1191	5	0	0	1015868	692	0	correct_rejection	NA	0
6	Correct	58	706	1192	0	1	1	1016577	692	1	hit	368	0
6	Correct	59	707	1193	4	0	0	1017286	691	0	correct_rejection	NA	0
6	Correct	60	708	1194	9	0	0	1017994	692	0	correct_rejection	NA	0
6	Correct	61	709	1195	8	0	0	1018703	691	0	correct_rejection	NA	0
6	Correct	62	710	1196	7	0	0	1019411	692	0	correct_rejection	NA	0
6	Correct	63	711	1197	9	0	0	1020120	691	0	correct_rejection	NA	0
6	Correct	64	712	1198	0	1	1	1020828	692	1	hit	352	0
6	Correct	65	713	1199	8	0	0	1021537	692	0	correct_rejection	NA	0
6	Correct	66	714	1200	7	0	0	1022245	692	0	correct_rejection	NA	0
6	Correct	67	715	1201	9	0	0	1022954	692	0	correct_rejection	NA	0
6	Correct	68	716	1202	8	0	0	1023663	691	0	correct_rejection	NA	0
6	Correct	69	717	1203	7	0	0	1024371	692	0	correct_rejection	NA	0
6	Correct	70	718	1204	7	0	0	1025080	691	0	correct_rejection	NA	0
6	Correct	71	719	1205	8	0	0	1025788	692	0	correct_rejection	NA	0
6	Correct	72	720	1206	9	0	0	1026497	692	0	correct_rejection	NA	0
6	Correct	73	721	1207	7	0	0	1027205	692	0	correct_rejection	NA	0
6	Correct	74	722	1208	8	0	0	1027914	692	0	correct_rejection	NA	0
6	Correct	75	723	1209	9	0	0	1028623	691	0	correct_rejection	NA	0
6	Correct	76	724	1210	7	0	0	1029331	692	0	correct_rejection	NA	0
6	Correct	77	725	1211	0	1	1	1030040	691	1	hit	410	0
6	Correct	78	726	1212	8	0	0	1030748	692	0	correct_rejection	NA	0
6	Correct	79	727	1213	9	0	0	1031457	692	0	correct_rejection	NA	0
6	Correct	80	728	1214	4	0	0	1032165	692	0	correct_rejection	NA	0
6	Correct	81	729	1215	5	0	0	1032874	692	0	correct_rejection	NA	0
6	Correct	82	730	1216	6	0	0	1033583	691	0	correct_rejection	NA	0
6	Correct	83	731	1217	4	0	0	1034291	692	0	correct_rejection	NA	0
6	Correct	84	732	1218	5	0	0	1035000	691	0	correct_rejection	NA	0
6	Correct	85	733	1219	6	0	0	1035708	692	0	correct_rejection	NA	0
6	Correct	86	734	1220	4	0	0	1036417	692	0	correct_rejection	NA	0
6	Correct	87	735	1221	5	0	0	1037125	692	0	correct_rejection	NA	0
6	Correct	88	736	1222	6	0	0	1037834	692	0	correct_rejection	NA	0
6	Correct	89	737	1223	6	0	0	1038543	691	0	correct_rejection	NA	0
6	Correct	90	738	1224	5	0	0	1039251	692	0	correct_rejection	NA	0
6	Correct	91	739	1225	4	0	0	1039960	691	0	correct_rejection	NA	0
6	Correct	92	740	1226	6	0	0	1040668	692	0	correct_rejection	NA	0
6	Correct	93	741	1227	0	1	1	1041377	691	1	hit	459	0
6	Correct	94	742	1228	5	0	0	1042085	692	0	correct_rejection	NA	0
6	Correct	95	743	1229	4	0	0	1042794	692	0	correct_rejection	NA	0
6	Correct	96	744	1230	6	0	0	1043502	692	0	correct_rejection	NA	0
6	Correct	97	745	1231	5	0	0	1044211	692	0	correct_rejection	NA	0
6	Correct	98	746	1232	4	0	0	1044920	691	0	correct_rejection	NA	0
6	Correct	99	747	1233	0	1	3	1045628	692	1	hit	553	0
6	Correct	100	748	1234	9	0	0	1046337	691	0	correct_rejection	NA	0
6	Correct	101	749	1235	8	0	0	1047045	692	0	correct_rejection	NA	0
6	Correct	102	750	1236	7	0	0	1047754	692	0	correct_rejection	NA	0
6	Correct	103	751	1237	9	0	0	1048462	692	0	correct_rejection	NA	0
6	Correct	104	752	1238	8	0	0	1049171	692	0	correct_rejection	NA	0
6	Correct	105	753	1239	7	0	0	1049880	691	0	correct_rejection	NA	0
6	Correct	106	754	1240	9	0	0	1050588	692	0	correct_rejection	NA	0
6	Correct	107	755	1241	8	0	0	1051297	691	0	correct_rejection	NA	0
6	Correct	108	756	1242	7	0	0	1052005	692	0	correct_rejection	NA	0
6	Correct	109	757	1243	0	1	3	1052714	692	1	hit	367	0
6	Correct	110	758	1244	7	0	0	1053422	692	0	correct_rejection	NA	0
6	Correct	111	759	1245	8	0	0	1054131	692	0	correct_rejection	NA	0
6	Correct	112	760	1246	9	0	0	1054840	691	0	correct_rejection	NA	0
6	Correct	113	761	1247	0	1	2	1055548	692	1	hit	391	0
6	Correct	114	762	1248	7	0	0	1056257	691	0	correct_rejection	NA	0
6	Correct	115	763	1249	8	0	0	1056965	692	0	correct_rejection	NA	0
6	Correct	116	764	1250	9	0	0	1057674	692	0	correct_rejection	NA	0
6	Correct	117	765	1251	7	0	0	1058382	692	0	correct_rejection	NA	0
6	Correct	118	766	1252	8	0	0	1059091	692	0	correct_rejection	NA	0
6	Correct	119	767	1253	9	0	0	1059800	691	0	correct_rejection	NA	0
6	Correct	120	768	1254	4	0	0	1060508	692	0	correct_rejection	NA	0
6	Correct	121	769	1255	0	1	1	1061217	691	1	hit	368	0
6	Correct	122	770	1256	5	0	0	1061925	692	0	correct_rejection	NA	0
6	Correct	123	771	1257	6	0	0	1062634	691	0	correct_rejection	NA	0
6	Correct	124	772	1258	4	0	0	1063342	692	0	correct_rejection	NA	0
6	Correct	125	773	1259	5	0	0	1064051	692	0	correct_rejection	NA	0
6	Correct	126	774	1260	0	1	1	1064760	691	1	hit	338	0
6	Correct	127	775	1261	6	0	0	1065468	692	0	correct_rejection	NA	0
6	Correct	128	776	1262	4	0	0	1066177	691	0	correct_rejection	NA	0
6	Correct	129	777	1263	5	0	0	1066885	692	0	correct_rejection	NA	0
6	Correct	130	778	1264	6	0	0	1067594	691	0	correct_rejection	NA	0
6	Correct	131	779	1265	6	0	0	1068302	692	0	correct_rejection	NA	0
6	Correct	132	780	1266	5	0	0	1069011	692	0	correct_rejection	NA	0
6	Correct	133	781	1267	0	1	1	1069719	692	1	hit	484	0
6	Correct	134	782	1268	4	0	0	1070428	692	0	correct_rejection	NA	0
6	Correct	135	783	1269	6	0	0	1071137	691	0	correct_rejection	NA	0
6	Correct	136	784	1270	0	1	1	1071845	692	1	hit	373	0
6	Correct	137	785	1271	5	0	0	1072554	691	0	correct_rejection	NA	0
6	Correct	138	786	1272	4	0	0	1073262	692	0	correct_rejection	NA	0
6	Correct	139	787	1273	6	0	0	1073971	692	0	correct_rejection	NA	0
6	Correct	140	788	1274	5	0	0	1074679	692	0	correct_rejection	NA	0
6	Correct	141	789	1275	4	0	0	1075388	692	0	correct_rejection	NA	0
6	Correct	142	790	1276	9	0	0	1076097	691	0	correct_rejection	NA	0
6	Correct	143	791	1277	8	0	0	1076805	692	0	correct_rejection	NA	0
6	Correct	144	792	1278	0	1	1	1077514	691	1	hit	465	0
6	Correct	145	793	1279	7	0	0	1078222	692	0	correct_rejection	NA	0
6	Correct	146	794	1280	9	0	0	1078931	692	0	correct_rejection	NA	0
6	Correct	147	795	1281	8	0	0	1079639	692	0	correct_rejection	NA	0
6	Correct	148	796	1282	7	0	0	1080348	692	0	correct_rejection	NA	0
6	Correct	149	797	1283	9	0	0	1081057	691	0	correct_rejection	NA	0
6	Correct	150	798	1284	8	0	0	1081765	692	0	correct_rejection	NA	0
6	Correct	151	799	1285	7	0	0	1082474	691	0	correct_rejection	NA	0
6	Correct	152	800	1286	7	0	0	1083182	692	0	correct_rejection	NA	0
6	Correct	153	801	1287	8	0	0	1083891	692	0	correct_rejection	NA	0
6	Correct	154	802	1288	9	0	0	1084599	692	0	correct_rejection	NA	0
6	Correct	155	803	1289	7	0	0	1085308	692	0	correct_rejection	NA	0
6	Correct	156	804	1290	8	0	0	1086017	691	0	correct_rejection	NA	0
6	Correct	157	805	1291	0	1	1	1086725	692	1	hit	380	0
6	Correct	158	806	1292	9	0	0	1087434	691	0	correct_rejection	NA	0
6	Correct	159	807	1293	7	0	0	1088142	692	0	correct_rejection	NA	0
6	Correct	160	808	1294	8	0	0	1088851	691	0	correct_rejection	NA	0
6	Correct	161	809	1295	0	1	1	1089559	692	1	hit	469	0
6	Correct	162	810	1296	9	0	0	1090268	692	0	correct_rejection	NA	0
6	Triplet	1	487	1297	6	0	0	1099454	692	0	correct_rejection	NA	7218
6	Triplet	2	488	1298	5	0	0	1100163	692	0	correct_rejection	NA	0
6	Triplet	3	489	1299	4	0	0	1100871	692	0	correct_rejection	NA	0
6	Triplet	4	490	1300	4	0	0	1101580	692	0	correct_rejection	NA	0
6	Triplet	5	491	1301	5	0	0	1102289	691	0	correct_rejection	NA	0
6	Triplet	6	492	1302	6	0	0	1102997	692	0	correct_rejection	NA	0
6	Triplet	7	493	1303	9	0	0	1103706	691	0	correct_rejection	NA	0
6	Triplet	8	494	1304	8	0	0	1104414	692	0	correct_rejection	NA	0
6	Triplet	9	495	1305	7	0	0	1105123	692	0	correct_rejection	NA	0
6	Triplet	10	496	1306	0	1	2	1105831	692	1	hit	485	0
6	Triplet	11	497	1307	4	0	0	1106540	692	0	correct_rejection	NA	0
6	Triplet	12	498	1308	5	0	0	1107249	691	0	correct_rejection	NA	0
6	Triplet	13	499	1309	0	1	1	1107957	692	1	hit	357	0
6	Triplet	14	500	1310	6	0	0	1108666	691	0	correct_rejection	NA	0
6	Triplet	15	501	1311	6	0	0	1109374	692	0	correct_rejection	NA	0
6	Triplet	16	502	1312	5	0	0	1110083	692	0	correct_rejection	NA	0
6	Triplet	17	503	1313	0	1	1	1110791	692	1	hit	359	0
6	Triplet	18	504	1314	4	0	0	1111500	692	0	correct_rejection	NA	0
6	Triplet	19	505	1315	6	0	0	1112209	691	0	correct_rejection	NA	0
6	Triplet	20	506	1316	5	0	0	1112917	692	0	correct_rejection	NA	0
6	Triplet	21	507	1317	4	0	0	1113626	691	0	correct_rejection	NA	0
6	Triplet	22	508	1318	7	0	0	1114334	692	0	correct_rejection	NA	0
6	Triplet	23	509	1319	0	1	1	1115043	691	1	hit	363	0
6	Triplet	24	510	1320	8	0	0	1115751	692	0	correct_rejection	NA	0
6	Triplet	25	511	1321	9	0	0	1116460	692	0	correct_rejection	NA	0
6	Triplet	26	512	1322	6	0	0	1117168	692	0	correct_rejection	NA	0
6	Triplet	27	513	1323	0	1	1	1117877	692	1	hit	407	0
6	Triplet	28	514	1324	5	0	0	1118586	691	0	correct_rejection	NA	0
6	Triplet	29	515	1325	4	0	0	1119294	692	0	correct_rejection	NA	0
6	Triplet	30	516	1326	9	0	0	1120003	691	0	correct_rejection	NA	0
6	Triplet	31	517	1327	0	1	1	1120711	692	1	hit	397	0
6	Triplet	32	518	1328	8	0	0	1121420	692	0	correct_rejection	NA	0
6	Triplet	33	519	1329	7	0	0	1122128	692	0	correct_rejection	NA	0
6	Triplet	34	520	1330	9	0	0	1122837	692	0	correct_rejection	NA	0
6	Triplet	35	521	1331	8	0	0	1123546	691	0	correct_rejection	NA	0
6	Triplet	36	522	1332	0	1	1	1124254	692	1	hit	367	0
6	Triplet	37	523	1333	7	0	0	1124963	691	0	correct_rejection	NA	0
6	Triplet	38	524	1334	7	0	0	1125671	692	0	correct_rejection	NA	0
6	Triplet	39	525	1335	8	0	0	1126380	692	0	correct_rejection	NA	0
6	Triplet	40	526	1336	9	0	0	1127088	692	0	correct_rejection	NA	0
6	Triplet	41	527	1337	0	1	2	1127797	692	1	hit	363	0
6	Triplet	42	528	1338	4	0	0	1128506	691	0	correct_rejection	NA	0
6	Triplet	43	529	1339	5	0	0	1129214	692	0	correct_rejection	NA	0
6	Triplet	44	530	1340	6	0	0	1129923	691	0	correct_rejection	NA	0
6	Triplet	45	531	1341	4	0	0	1130631	692	0	correct_rejection	NA	0
6	Triplet	46	532	1342	5	0	0	1131340	692	0	correct_rejection	NA	0
6	Triplet	47	533	1343	6	0	0	1132048	692	0	correct_rejection	NA	0
6	Triplet	48	534	1344	7	0	0	1132757	692	0	correct_rejection	NA	0
6	Triplet	49	535	1345	8	0	0	1133466	691	0	correct_rejection	NA	0
6	Triplet	50	536	1346	9	0	0	1134174	692	0	correct_rejection	NA	0
6	Triplet	51	537	1347	7	0	0	1134883	691	0	correct_rejection	NA	0
6	Triplet	52	538	1348	8	0	0	1135591	692	0	correct_rejection	NA	0
6	Triplet	53	539	1349	0	1	1	1136300	692	1	hit	370	0
6	Triplet	54	540	1350	9	0	0	1137008	692	0	correct_rejection	NA	0
6	Triplet	55	541	1351	9	0	0	1137717	692	0	correct_rejection	NA	0
6	Triplet	56	542	1352	8	0	0	1138426	691	0	correct_rejection	NA	0
6	Triplet	57	543	1353	7	0	0	1139134	692	0	correct_rejection	NA	0
6	Triplet	58	544	1354	4	0	0	1139843	691	0	correct_rejection	NA	0
6	Triplet	59	545	1355	5	0	0	1140551	692	0	correct_rejection	NA	0
6	Triplet	60	546	1356	0	1	1	1141260	691	1	hit	342	0
6	Triplet	61	547	1357	6	0	0	1141968	692	0	correct_rejection	NA	0
6	Triplet	62	548	1358	7	0	0	1142677	692	0	correct_rejection	NA	0
6	Triplet	63	549	1359	8	0	0	1143385	692	0	correct_rejection	NA	0
6	Triplet	64	550	1360	9	0	0	1144094	692	0	correct_rejection	NA	0
6	Triplet	65	551	1361	6	0	0	1144803	691	0	correct_rejection	NA	0
6	Triplet	66	552	1362	0	1	1	1145511	692	1	hit	389	0
6	Triplet	67	553	1363	5	0	0	1146220	691	0	correct_rejection	NA	0
6	Triplet	68	554	1364	4	0	0	1146928	692	0	correct_rejection	NA	0
6	Triplet	69	555	1365	6	0	0	1147637	692	0	correct_rejection	NA	0
6	Triplet	70	556	1366	5	0	0	1148345	692	0	correct_rejection	NA	0
6	Triplet	71	557	1367	4	0	0	1149054	692	0	correct_rejection	NA	0
6	Triplet	72	558	1368	4	0	0	1149763	691	0	correct_rejection	NA	0
6	Triplet	73	559	1369	5	0	0	1150471	692	0	correct_rejection	NA	0
6	Triplet	74	560	1370	6	0	0	1151180	691	0	correct_rejection	NA	0
6	Triplet	75	561	1371	4	0	0	1151888	692	0	correct_rejection	NA	0
6	Triplet	76	562	1372	5	0	0	1152597	692	0	correct_rejection	NA	0
6	Triplet	77	563	1373	6	0	0	1153305	692	0	correct_rejection	NA	0
6	Triplet	78	564	1374	0	1	2	1154014	692	1	hit	498	0
6	Triplet	79	565	1375	6	0	0	1154723	691	0	correct_rejection	NA	0
6	Triplet	80	566	1376	5	0	0	1155431	692	0	correct_rejection	NA	0
6	Triplet	81	567	1377	4	0	0	1156140	691	0	correct_rejection	NA	0
6	Triplet	82	568	1378	7	0	0	1156848	692	0	correct_rejection	NA	0
6	Triplet	83	569	1379	0	1	1	1157557	692	1	hit	382	0
6	Triplet	84	570	1380	8	0	0	1158265	692	0	correct_rejection	NA	0
6	Triplet	85	571	1381	9	0	0	1158974	692	0	correct_rejection	NA	0
6	Triplet	86	572	1382	0	1	2	1159683	691	1	hit	358	0
6	Triplet	87	573	1383	9	0	0	1160391	692	0	correct_rejection	NA	0
6	Triplet	88	574	1384	8	0	0	1161100	691	0	correct_rejection	NA	0
6	Triplet	89	575	1385	0	1	1	1161808	692	1	hit	440	0
6	Triplet	90	576	1386	7	0	0	1162517	691	0	correct_rejection	NA	0
6	Triplet	91	577	1387	4	0	0	1163225	692	0	correct_rejection	NA	0
6	Triplet	92	578	1388	5	0	0	1163934	692	0	correct_rejection	NA	0
6	Triplet	93	579	1389	6	0	0	1164643	691	0	correct_rejection	NA	0
6	Triplet	94	580	1390	9	0	0	1165351	692	0	correct_rejection	NA	0
6	Triplet	95	581	1391	8	0	0	1166060	691	0	correct_rejection	NA	0
6	Triplet	96	582	1392	7	0	0	1166768	692	0	correct_rejection	NA	0
6	Triplet	97	583	1393	9	0	0	1167477	691	0	correct_rejection	NA	0
6	Triplet	98	584	1394	8	0	0	1168185	692	0	correct_rejection	NA	0
6	Triplet	99	585	1395	0	1	1	1168894	692	1	hit	371	0
6	Triplet	100	586	1396	7	0	0	1169602	692	0	correct_rejection	NA	0
6	Triplet	101	587	1397	6	0	0	1170311	692	0	correct_rejection	NA	0
6	Triplet	102	588	1398	5	0	0	1171020	691	0	correct_rejection	NA	0
6	Triplet	103	589	1399	4	0	0	1171728	692	0	correct_rejection	NA	0
6	Triplet	104	590	1400	9	0	0	1172437	691	0	correct_rejection	NA	0
6	Triplet	105	591	1401	8	0	0	1173145	692	0	correct_rejection	NA	0
6	Triplet	106	592	1402	7	0	0	1173854	692	0	correct_rejection	NA	0
6	Triplet	107	593	1403	7	0	0	1174562	692	0	correct_rejection	NA	0
6	Triplet	108	594	1404	8	0	0	1175271	692	0	correct_rejection	NA	0
6	Triplet	109	595	1405	9	0	0	1175980	691	0	correct_rejection	NA	0
6	Triplet	110	596	1406	7	0	0	1176688	692	0	correct_rejection	NA	0
6	Triplet	111	597	1407	8	0	0	1177397	691	0	correct_rejection	NA	0
6	Triplet	112	598	1408	9	0	0	1178105	692	0	correct_rejection	NA	0
6	Triplet	113	599	1409	6	0	0	1178814	692	0	correct_rejection	NA	0
6	Triplet	114	600	1410	5	0	0	1179522	692	0	correct_rejection	NA	0
6	Triplet	115	601	1411	4	0	0	1180231	692	0	correct_rejection	NA	0
6	Triplet	116	602	1412	0	1	2	1180940	691	1	hit	507	0
6	Triplet	117	603	1413	9	0	0	1181648	692	0	correct_rejection	NA	0
6	Triplet	118	604	1414	8	0	0	1182357	691	0	correct_rejection	NA	0
6	Triplet	119	605	1415	7	0	0	1183065	692	0	correct_rejection	NA	0
6	Triplet	120	606	1416	6	0	0	1183774	692	0	correct_rejection	NA	0
6	Triplet	121	607	1417	5	0	0	1184482	692	0	correct_rejection	NA	0
6	Triplet	122	608	1418	4	0	0	1185191	692	0	correct_rejection	NA	0
6	Triplet	123	609	1419	7	0	0	1185900	691	0	correct_rejection	NA	0
6	Triplet	124	610	1420	8	0	0	1186608	692	0	correct_rejection	NA	0
6	Triplet	125	611	1421	9	0	0	1187317	691	0	correct_rejection	NA	0
6	Triplet	126	612	1422	7	0	0	1188025	692	0	correct_rejection	NA	0
6	Triplet	127	613	1423	8	0	0	1188734	691	0	correct_rejection	NA	0
6	Triplet	128	614	1424	9	0	0	1189442	692	0	correct_rejection	NA	0
6	Triplet	129	615	1425	4	0	0	1190151	692	0	correct_rejection	NA	0
6	Triplet	130	616	1426	5	0	0	1190860	691	0	correct_rejection	NA	0
6	Triplet	131	617	1427	6	0	0	1191568	692	0	correct_rejection	NA	0
6	Triplet	132	618	1428	6	0	0	1192277	691	0	correct_rejection	NA	0
6	Triplet	133	619	1429	5	0	0	1192985	692	0	correct_rejection	NA	0
6	Triplet	134	620	1430	4	0	0	1193694	691	0	correct_rejection	NA	0
6	Triplet	135	621	1431	4	0	0	1194402	692	0	correct_rejection	NA	0
6	Triplet	136	622	1432	5	0	0	1195111	692	0	correct_rejection	NA	0
6	Triplet	137	623	1433	6	0	0	1195819	692	0	correct_rejection	NA	0
6	Triplet	138	624	1434	7	0	0	1196528	692	0	correct_rejection	NA	0
6	Triplet	139	625	1435	8	0	0	1197237	691	0	correct_rejection	NA	0
6	Triplet	140	626	1436	9	0	0	1197945	692	0	correct_rejection	NA	0
6	Triplet	141	627	1437	9	0	0	1198654	691	0	correct_rejection	NA	0
6	Triplet	142	628	1438	8	0	0	1199362	692	0	correct_rejection	NA	0
6	Triplet	143	629	1439	7	0	0	1200071	692	0	correct_rejection	NA	0
6	Triplet	144	630	1440	0	1	2	1200779	692	1	hit	451	0
6	Triplet	145	631	1441	9	0	0	1201488	692	0	correct_rejection	NA	0
6	Triplet	146	632	1442	8	0	0	1202197	691	0	correct_rejection	NA	0
6	Triplet	147	633	1443	7	0	0	1202905	692	0	correct_rejection	NA	0
6	Triplet	148	634	1444	4	0	0	1203614	691	0	correct_rejection	NA	0
6	Triplet	149	635	1445	5	0	0	1204322	692	0	correct_rejection	NA	0
6	Triplet	150	636	1446	6	0	0	1205031	692	0	correct_rejection	NA	0
6	Triplet	151	637	1447	4	0	0	1205739	692	0	correct_rejection	NA	0
6	Triplet	152	638	1448	5	0	0	1206448	692	0	correct_rejection	NA	0
6	Triplet	153	639	1449	6	0	0	1207157	691	0	correct_rejection	NA	0
6	Triplet	154	640	1450	9	0	0	1207865	692	0	correct_rejection	NA	0
6	Triplet	155	641	1451	8	0	0	1208574	691	0	correct_rejection	NA	0
6	Triplet	156	642	1452	7	0	0	1209282	692	0	correct_rejection	NA	0
6	Triplet	157	643	1453	7	0	0	1209991	692	0	correct_rejection	NA	0
6	Triplet	158	644	1454	8	0	0	1210699	692	0	correct_rejection	NA	0
6	Triplet	159	645	1455	9	0	0	1211408	692	0	correct_rejection	NA	0
6	Triplet	160	646	1456	6	0	0	1212117	691	0	correct_rejection	NA	0
6	Triplet	161	647	1457	5	0	0	1212825	692	0	correct_rejection	NA	0
6	Triplet	162	648	1458	4	0	0	1213534	691	0	correct_rejection	NA	0
6	Nonet	1	649	1459	6	0	0	1224045	692	0	correct_rejection	NA	7809
6	Nonet	2	650	1460	5	0	0	1224754	692	0	correct_rejection	NA	0
6	Nonet	3	651	1461	4	0	0	1225463	691	0	correct_rejection	NA	0
6	Nonet	4	652	1462	6	0	0	1226171	692	0	correct_rejection	NA	0
6	Nonet	5	653	1463	5	0	0	1226880	691	0	correct_rejection	NA	0
6	Nonet	6	654	1464	4	0	0	1227588	692	0	correct_rejection	NA	0
6	Nonet	7	655	1465	6	0	0	1228297	692	0	correct_rejection	NA	0
6	Nonet	8	656	1466	5	0	0	1229005	692	0	correct_rejection	NA	0
6	Nonet	9	657	1467	4	0	0	1229714	692	0	correct_rejection	NA	0
6	Nonet	10	658	1468	9	0	0	1230423	691	0	correct_rejection	NA	0
6	Nonet	11	659	1469	8	0	0	1231131	692	0	correct_rejection	NA	0
6	Nonet	12	660	1470	7	0	0	1231840	691	0	correct_rejection	NA	0
6	Nonet	13	661	1471	9	0	0	1232548	692	0	correct_rejection	NA	0
6	Nonet	14	662	1472	8	0	0	1233257	692	0	correct_rejection	NA	0
6	Nonet	15	663	1473	7	0	0	1233965	692	0	correct_rejection	NA	0
6	Nonet	16	664	1474	0	1	2	1234674	692	1	hit	331	0
6	Nonet	17	665	1475	9	0	0	1235383	691	0	correct_rejection	NA	0
6	Nonet	18	666	1476	8	0	0	1236091	692	0	correct_rejection	NA	0
6	Nonet	19	667	1477	7	0	0	1236800	691	0	correct_rejection	NA	0
6	Nonet	20	668	1478	0	1	3	1237508	692	1	hit	430	0
6	Nonet	21	669	1479	4	0	0	1238217	692	0	correct_rejection	NA	0
6	Nonet	22	670	1480	5	0	0	1238925	692	0	correct_rejection	NA	0
6	Nonet	23	671	1481	0	1	1	1239634	692	1	hit	362	0
6	Nonet	24	672	1482	6	0	0	1240343	691	0	correct_rejection	NA	0
6	Nonet	25	673	1483	4	0	0	1241051	692	0	correct_rejection	NA	0
6	Nonet	26	674	1484	5	0	0	1241760	691	0	correct_rejection	NA	0
6	Nonet	27	675	1485	6	0	0	1242468	692	0	correct_rejection	NA	0
6	Nonet	28	676	1486	4	0	0	1243177	691	0	correct_rejection	NA	0
6	Nonet	29	677	1487	5	0	0	1243885	692	0	correct_rejection	NA	0
6	Nonet	30	678	1488	0	1	1	1244594	692	1	hit	349	0
6	Nonet	31	679	1489	6	0	0	1245302	692	0	correct_rejection	NA	0
6	Nonet	32	680	1490	4	0	0	1246011	692	0	correct_rejection	NA	0
6	Nonet	33	681	1491	5	0	0	1246720	691	0	correct_rejection	NA	0
6	Nonet	34	682	1492	6	0	0	1247428	692	0	correct_rejection	NA	0
6	Nonet	35	683	1493	4	0	0	1248137	691	0	correct_rejection	NA	0
6	Nonet	36	684	1494	5	0	0	1248845	692	0	correct_rejection	NA	0
6	Nonet	37	685	1495	6	0	0	1249554	692	0	correct_rejection	NA	0
6	Nonet	38	686	1496	4	0	0	1250262	692	0	correct_rejection	NA	0
6	Nonet	39	687	1497	5	0	0	1250971	692	0	correct_rejection	NA	0
6	Nonet	40	688	1498	6	0	0	1251680	691	0	correct_rejection	NA	0
6	Nonet	41	689	1499	6	0	0	1252388	692	0	correct_rejection	NA	0
6	Nonet	42	690	1500	5	0	0	1253097	691	0	correct_rejection	NA	0
6	Nonet	43	691	1501	4	0	0	1253805	692	0	correct_rejection	NA	0
6	Nonet	44	692	1502	6	0	0	1254514	692	0	correct_rejection	NA	0
6	Nonet	45	693	1503	5	0	0	1255222	692	0	correct_rejection	NA	0
6	Nonet	46	694	1504	4	0	0	1255931	692	0	correct_rejection	NA	0
6	Nonet	47	695	1505	6	0	0	1256640	691	0	correct_rejection	NA	0
6	Nonet	48	696	1506	5	0	0	1257348	692	0	correct_rejection	NA	0
6	Nonet	49	697	1507	0	1	1	1258057	691	1	hit	396	0
6	Nonet	50	698	1508	4	0	0	1258765	692	0	correct_rejection	NA	0
6	Nonet	51	699	1509	6	0	0	1259474	692	0	correct_rejection	NA	0
6	Nonet	52	700	1510	5	0	0	1260182	692	0	correct_rejection	NA	0
6	Nonet	53	701	1511	4	0	0	1260891	692	0	correct_rejection	NA	0
6	Nonet	54	702	1512	6	0	0	1261600	691	0	correct_rejection	NA	0
6	Nonet	55	703	1513	0	1	1	1262308	692	1	hit	350	0
6	Nonet	56	704	1514	5	0	0	1263017	691	0	correct_rejection	NA	0
6	Nonet	57	705	1515	4	0	0	1263725	692	0	correct_rejection	NA	0
6	Nonet	58	706	1516	0	1	2	1264434	691	1	hit	414	0
6	Nonet	59	707	1517	6	0	0	1265142	692	0	correct_rejection	NA	0
6	Nonet	60	708	1518	5	0	0	1265851	692	0	correct_rejection	NA	0
6	Nonet	61	709	1519	4	0	0	1266560	691	0	correct_rejection	NA	0
6	Nonet	62	710	1520	4	0	0	1267268	692	0	correct_rejection	NA	0
6	Nonet	63	711	1521	5	0	0	1267977	691	0	correct_rejection	NA	0
6	Nonet	64	712	1522	6	0	0	1268685	692	0	correct_rejection	NA	0
6	Nonet	65	713	1523	4	0	0	1269394	691	0	correct_rejection	NA	0
6	Nonet	66	714	1524	5	0	0	1270102	692	0	correct_rejection	NA	0
6	Nonet	67	715	1525	6	0	0	1270811	692	0	correct_rejection	NA	0
6	Nonet	68	716	1526	4	0	0	1271519	692	0	correct_rejection	NA	0
6	Nonet	69	717	1527	5	0	0	1272228	692	0	correct_rejection	NA	0
6	Nonet	70	718	1528	6	0	0	1272937	691	0	correct_rejection	NA	0
6	Nonet	71	719	1529	7	0	0	1273645	692	0	correct_rejection	NA	0
6	Nonet	72	720	1530	8	0	0	1274354	691	0	correct_rejection	NA	0
6	Nonet	73	721	1531	9	0	0	1275062	692	0	correct_rejection	NA	0
6	Nonet	74	722	1532	0	1	2	1275771	692	1	hit	459	0
6	Nonet	75	723	1533	7	0	0	1276479	692	0	correct_rejection	NA	0
6	Nonet	76	724	1534	8	0	0	1277188	692	0	correct_rejection	NA	0
6	Nonet	77	725	1535	0	1	1	1277897	691	1	hit	404	0
6	Nonet	78	726	1536	9	0	0	1278605	692	0	correct_rejection	NA	0
6	Nonet	79	727	1537	7	0	0	1279314	691	0	correct_rejection	NA	0
6	Nonet	80	728	1538	8	0	0	1280022	692	0	correct_rejection	NA	0
6	Nonet	81	729	1539	9	0	0	1280731	692	0	correct_rejection	NA	0
6	Nonet	82	730	1540	6	0	0	1281439	692	0	correct_rejection	NA	0
6	Nonet	83	731	1541	5	0	0	1282148	692	0	correct_rejection	NA	0
6	Nonet	84	732	1542	4	0	0	1282857	691	0	correct_rejection	NA	0
6	Nonet	85	733	1543	6	0	0	1283565	692	0	correct_rejection	NA	0
6	Nonet	86	734	1544	5	0	0	1284274	691	0	correct_rejection	NA	0
6	Nonet	87	735	1545	4	0	0	1284982	692	0	correct_rejection	NA	0
6	Nonet	88	736	1546	0	1	2	1285691	692	1	hit	360	0
6	Nonet	89	737	1547	6	0	0	1286399	692	0	correct_rejection	NA	0
6	Nonet	90	738	1548	5	0	0	1287108	692	0	correct_rejection	NA	0
6	Nonet	91	739	1549	4	0	0	1287817	691	0	correct_rejection	NA	0
6	Nonet	92	740	1550	7	0	0	1288525	692	0	correct_rejection	NA	0
6	Nonet	93	741	1551	8	0	0	1289234	691	0	correct_rejection	NA	0
6	Nonet	94	742	1552	9	0	0	1289942	692	0	correct_rejection	NA	0
6	Nonet	95	743	1553	7	0	0	1290651	691	0	correct_rejection	NA	0
6	Nonet	96	744	1554	8	0	0	1291359	692	0	correct_rejection	NA	0
6	Nonet	97	745	1555	9	0	0	1292068	692	0	correct_rejection	NA	0
6	Nonet	98	746	1556	7	0	0	1292777	691	0	correct_rejection	NA	0
6	Nonet	99	747	1557	0	1	1	1293485	692	1	hit	373	0
6	Nonet	100	748	1558	8	0	0	1294194	691	0	correct_rejection	NA	0
6	Nonet	101	749	1559	9	0	0	1294902	692	0	correct_rejection	NA	0
6	Nonet	102	750	1560	4	0	0	1295611	691	0	correct_rejection	NA	0
6	Nonet	103	751	1561	0	1	1	1296319	692	1	hit	433	0
6	Nonet	104	752	1562	5	0	0	1297028	692	0	correct_rejection	NA	0
6	Nonet	105	753	1563	6	0	0	1297736	692	0	correct_rejection	NA	0
6	Nonet	106	754	1564	0	1	2	1298445	692	1	hit	446	0
6	Nonet	107	755	1565	4	0	0	1299154	691	0	correct_rejection	NA	0
6	Nonet	108	756	1566	5	0	0	1299862	692	0	correct_rejection	NA	0
6	Nonet	109	757	1567	6	0	0	1300571	691	0	correct_rejection	NA	0
6	Nonet	110	758	1568	4	0	0	1301279	692	0	correct_rejection	NA	0
6	Nonet	111	759	1569	5	0	0	1301988	692	0	correct_rejection	NA	0
6	Nonet	112	760	1570	6	0	0	1302696	692	0	correct_rejection	NA	0
6	Nonet	113	761	1571	9	0	0	1303405	692	0	correct_rejection	NA	0
6	Nonet	114	762	1572	8	0	0	1304114	691	0	correct_rejection	NA	0
6	Nonet	115	763	1573	7	0	0	1304822	692	0	correct_rejection	NA	0
6	Nonet	116	764	1574	9	0	0	1305531	691	0	correct_rejection	NA	0
6	Nonet	117	765	1575	0	1	1	1306239	692	1	hit	358	0
6	Nonet	118	766	1576	8	0	0	1306948	692	0	correct_rejection	NA	0
6	Nonet	119	767	1577	7	0	0	1307656	692	0	correct_rejection	NA	0
6	Nonet	120	768	1578	9	0	0	1308365	692	0	correct_rejection	NA	0
6	Nonet	121	769	1579	8	0	0	1309074	691	0	correct_rejection	NA	0
6	Nonet	122	770	1580	0	1	1	1309782	692	1	hit	415	0
6	Nonet	123	771	1581	7	0	0	1310491	691	0	correct_rejection	NA	0
6	Nonet	124	772	1582	9	0	0	1311199	692	0	correct_rejection	NA	0
6	Nonet	125	773	1583	8	0	0	1311908	692	0	correct_rejection	NA	0
6	Nonet	126	774	1584	7	0	0	1312616	692	0	correct_rejection	NA	0
6	Nonet	127	775	1585	0	1	2	1313325	692	1	hit	425	0
6	Nonet	128	776	1586	9	0	0	1314034	691	0	correct_rejection	NA	0
6	Nonet	129	777	1587	8	0	0	1314742	692	0	correct_rejection	NA	0
6	Nonet	130	778	1588	0	1	1	1315451	691	1	hit	355	0
6	Nonet	131	779	1589	7	0	0	1316159	692	0	correct_rejection	NA	0
6	Nonet	132	780	1590	9	0	0	1316868	691	0	correct_rejection	NA	0
6	Nonet	133	781	1591	8	0	0	1317576	692	0	correct_rejection	NA	0
6	Nonet	134	782	1592	7	0	0	1318285	692	0	correct_rejection	NA	0
6	Nonet	135	783	1593	7	0	0	1318993	692	0	correct_rejection	NA	0
6	Nonet	136	784	1594	8	0	0	1319702	692	0	correct_rejection	NA	0
6	Nonet	137	785	1595	9	0	0	1320411	691	0	correct_rejection	NA	0
6	Nonet	138	786	1596	7	0	0	1321119	692	0	correct_rejection	NA	0
6	Nonet	139	787	1597	8	0	0	1321828	691	0	correct_rejection	NA	0
6	Nonet	140	788	1598	9	0	0	1322536	692	0	correct_rejection	NA	0
6	Nonet	141	789	1599	7	0	0	1323245	692	0	correct_rejection	NA	0
6	Nonet	142	790	1600	8	0	0	1323953	692	0	correct_rejection	NA	0
6	Nonet	143	791	1601	9	0	0	1324662	692	0	correct_rejection	NA	0
6	Nonet	144	792	1602	0	1	3	1325371	691	1	hit	393	0
6	Nonet	145	793	1603	7	0	0	1326079	692	0	correct_rejection	NA	0
6	Nonet	146	794	1604	8	0	0	1326788	691	0	correct_rejection	NA	0
6	Nonet	147	795	1605	9	0	0	1327496	692	0	correct_rejection	NA	0
6	Nonet	148	796	1606	7	0	0	1328205	692	0	correct_rejection	NA	0
6	Nonet	149	797	1607	8	0	0	1328913	692	0	correct_rejection	NA	0
6	Nonet	150	798	1608	9	0	0	1329622	692	0	correct_rejection	NA	0
6	Nonet	151	799	1609	7	0	0	1330331	691	0	correct_rejection	NA	0
6	Nonet	152	800	1610	8	0	0	1331039	692	0	correct_rejection	NA	0
6	Nonet	153	801	1611	9	0	0	1331748	691	0	correct_rejection	NA	0
6	Nonet	154	802	1612	9	0	0	1332456	692	0	correct_rejection	NA	0
6	Nonet	155	803	1613	8	0	0	1333165	692	0	correct_rejection	NA	0
6	Nonet	156	804	1614	7	0	0	1333873	692	0	correct_rejection	NA	0
6	Nonet	157	805	1615	9	0	0	1334582	692	0	correct_rejection	NA	0
6	Nonet	158	806	1616	8	0	0	1335291	691	0	correct_rejection	NA	0
6	Nonet	159	807	1617	7	0	0	1335999	692	0	correct_rejection	NA	0
6	Nonet	160	808	1618	9	0	0	1336708	691	0	correct_rejection	NA	0
6	Nonet	161	809	1619	8	0	0	1337416	692	0	correct_rejection	NA	0
6	Nonet	162	810	1620	7	0	0	1338125	692	0	correct_rejection	NA	0
trigger nr 1248 at 1340193
