ID	block	trial_block	trial_cat	trial_total	number	violation	level_violation	onset	duration	Response	Hit_Miss	RT	pre_trial_fixcross_ISI
first_trigger_at: 11315
trigger nr 4 at 14315
7	Nonet	1	325	1	4	0	0	21882	691	0	correct_rejection	NA	7529
7	Nonet	2	326	2	5	0	0	22590	692	0	correct_rejection	NA	0
7	Nonet	3	327	3	6	0	0	23299	691	0	correct_rejection	NA	0
7	Nonet	4	328	4	4	0	0	24007	692	0	correct_rejection	NA	0
7	Nonet	5	329	5	5	0	0	24716	692	0	correct_rejection	NA	0
7	Nonet	6	330	6	6	0	0	25425	691	0	correct_rejection	NA	0
7	Nonet	7	331	7	0	1	2	26133	692	1	hit	377	0
7	Nonet	8	332	8	4	0	0	26842	691	0	correct_rejection	NA	0
7	Nonet	9	333	9	5	0	0	27550	692	0	correct_rejection	NA	0
7	Nonet	10	334	10	6	0	0	28259	691	0	correct_rejection	NA	0
7	Nonet	11	335	11	6	0	0	28967	692	0	correct_rejection	NA	0
7	Nonet	12	336	12	0	1	1	29676	692	1	hit	393	0
7	Nonet	13	337	13	5	0	0	30384	692	0	correct_rejection	NA	0
7	Nonet	14	338	14	4	0	0	31093	692	0	correct_rejection	NA	0
7	Nonet	15	339	15	6	0	0	31802	691	0	correct_rejection	NA	0
7	Nonet	16	340	16	5	0	0	32510	692	0	correct_rejection	NA	0
7	Nonet	17	341	17	4	0	0	33219	691	0	correct_rejection	NA	0
7	Nonet	18	342	18	6	0	0	33927	692	0	correct_rejection	NA	0
7	Nonet	19	343	19	5	0	0	34636	692	0	correct_rejection	NA	0
7	Nonet	20	344	20	4	0	0	35344	692	0	correct_rejection	NA	0
7	Nonet	21	345	21	4	0	0	36053	692	0	correct_rejection	NA	0
7	Nonet	22	346	22	5	0	0	36762	691	0	correct_rejection	NA	0
7	Nonet	23	347	23	6	0	0	37470	692	0	correct_rejection	NA	0
7	Nonet	24	348	24	4	0	0	38179	691	0	correct_rejection	NA	0
7	Nonet	25	349	25	0	1	1	38887	692	1	hit	319	0
7	Nonet	26	350	26	5	0	0	39596	692	0	correct_rejection	NA	0
7	Nonet	27	351	27	6	0	0	40304	692	0	correct_rejection	NA	0
7	Nonet	28	352	28	4	0	0	41013	692	0	correct_rejection	NA	0
7	Nonet	29	353	29	5	0	0	41722	691	0	correct_rejection	NA	0
7	Nonet	30	354	30	6	0	0	42430	692	0	correct_rejection	NA	0
7	Nonet	31	355	31	9	0	0	43139	691	0	correct_rejection	NA	0
7	Nonet	32	356	32	8	0	0	43847	692	0	correct_rejection	NA	0
7	Nonet	33	357	33	7	0	0	44556	692	0	correct_rejection	NA	0
7	Nonet	34	358	34	9	0	0	45264	692	0	correct_rejection	NA	0
7	Nonet	35	359	35	8	0	0	45973	692	0	correct_rejection	NA	0
7	Nonet	36	360	36	7	0	0	46682	691	0	correct_rejection	NA	0
7	Nonet	37	361	37	9	0	0	47390	692	0	correct_rejection	NA	0
7	Nonet	38	362	38	8	0	0	48099	691	0	correct_rejection	NA	0
7	Nonet	39	363	39	7	0	0	48807	692	0	correct_rejection	NA	0
7	Nonet	40	364	40	4	0	0	49516	691	0	correct_rejection	NA	0
7	Nonet	41	365	41	5	0	0	50224	692	0	correct_rejection	NA	0
7	Nonet	42	366	42	6	0	0	50933	692	0	correct_rejection	NA	0
7	Nonet	43	367	43	4	0	0	51641	692	0	correct_rejection	NA	0
7	Nonet	44	368	44	5	0	0	52350	692	0	correct_rejection	NA	0
7	Nonet	45	369	45	0	1	1	53059	691	1	hit	541	0
7	Nonet	46	370	46	6	0	0	53767	692	0	correct_rejection	NA	0
7	Nonet	47	371	47	4	0	0	54476	691	0	correct_rejection	NA	0
7	Nonet	48	372	48	5	0	0	55184	692	0	correct_rejection	NA	0
7	Nonet	49	373	49	6	0	0	55893	692	0	correct_rejection	NA	0
7	Nonet	50	374	50	7	0	0	56601	692	0	correct_rejection	NA	0
7	Nonet	51	375	51	0	1	1	57310	692	1	hit	447	0
7	Nonet	52	376	52	8	0	0	58019	691	0	correct_rejection	NA	0
7	Nonet	53	377	53	9	0	0	58727	692	0	correct_rejection	NA	0
7	Nonet	54	378	54	7	0	0	59436	691	0	correct_rejection	NA	0
7	Nonet	55	379	55	8	0	0	60144	692	0	correct_rejection	NA	0
7	Nonet	56	380	56	9	0	0	60853	692	0	correct_rejection	NA	0
7	Nonet	57	381	57	7	0	0	61561	692	0	correct_rejection	NA	0
7	Nonet	58	382	58	8	0	0	62270	692	0	correct_rejection	NA	0
7	Nonet	59	383	59	9	0	0	62979	691	0	correct_rejection	NA	0
7	Nonet	60	384	60	9	0	0	63687	692	0	correct_rejection	NA	0
7	Nonet	61	385	61	8	0	0	64396	691	0	correct_rejection	NA	0
7	Nonet	62	386	62	7	0	0	65104	692	0	correct_rejection	NA	0
7	Nonet	63	387	63	9	0	0	65813	691	0	correct_rejection	NA	0
7	Nonet	64	388	64	8	0	0	66521	692	0	correct_rejection	NA	0
7	Nonet	65	389	65	0	1	1	67230	692	1	hit	394	0
7	Nonet	66	390	66	7	0	0	67938	692	0	correct_rejection	NA	0
7	Nonet	67	391	67	9	0	0	68647	692	0	correct_rejection	NA	0
7	Nonet	68	392	68	8	0	0	69356	691	0	correct_rejection	NA	0
7	Nonet	69	393	69	7	0	0	70064	692	0	correct_rejection	NA	0
7	Nonet	70	394	70	0	1	3	70773	691	1	hit	432	0
7	Nonet	71	395	71	9	0	0	71481	692	0	correct_rejection	NA	0
7	Nonet	72	396	72	8	0	0	72190	692	0	correct_rejection	NA	0
7	Nonet	73	397	73	7	0	0	72898	692	0	correct_rejection	NA	0
7	Nonet	74	398	74	9	0	0	73607	692	0	correct_rejection	NA	0
7	Nonet	75	399	75	8	0	0	74316	691	0	correct_rejection	NA	0
7	Nonet	76	400	76	7	0	0	75024	692	0	correct_rejection	NA	0
7	Nonet	77	401	77	9	0	0	75733	691	0	correct_rejection	NA	0
7	Nonet	78	402	78	0	1	1	76441	692	1	hit	399	0
7	Nonet	79	403	79	8	0	0	77150	692	0	correct_rejection	NA	0
7	Nonet	80	404	80	7	0	0	77858	692	0	correct_rejection	NA	0
7	Nonet	81	405	81	6	0	0	78567	692	0	correct_rejection	NA	0
7	Nonet	82	406	82	5	0	0	79276	691	0	correct_rejection	NA	0
7	Nonet	83	407	83	4	0	0	79984	692	0	correct_rejection	NA	0
7	Nonet	84	408	84	0	1	2	80693	691	1	hit	353	0
7	Nonet	85	409	85	6	0	0	81401	692	0	correct_rejection	NA	0
7	Nonet	86	410	86	5	0	0	82110	692	0	correct_rejection	NA	0
7	Nonet	87	411	87	4	0	0	82818	692	0	correct_rejection	NA	0
7	Nonet	88	412	88	6	0	0	83527	692	0	correct_rejection	NA	0
7	Nonet	89	413	89	5	0	0	84236	691	0	correct_rejection	NA	0
7	Nonet	90	414	90	4	0	0	84944	692	0	correct_rejection	NA	0
7	Nonet	91	415	91	7	0	0	85653	691	0	correct_rejection	NA	0
7	Nonet	92	416	92	8	0	0	86361	692	0	correct_rejection	NA	0
7	Nonet	93	417	93	9	0	0	87070	691	0	correct_rejection	NA	0
7	Nonet	94	418	94	7	0	0	87778	692	0	correct_rejection	NA	0
7	Nonet	95	419	95	8	0	0	88487	692	0	correct_rejection	NA	0
7	Nonet	96	420	96	9	0	0	89195	692	0	correct_rejection	NA	0
7	Nonet	97	421	97	7	0	0	89904	692	0	correct_rejection	NA	0
7	Nonet	98	422	98	8	0	0	90613	691	0	correct_rejection	NA	0
7	Nonet	99	423	99	9	0	0	91321	692	0	correct_rejection	NA	0
7	Nonet	100	424	100	6	0	0	92030	691	0	correct_rejection	NA	0
7	Nonet	101	425	101	0	1	1	92738	692	1	hit	389	0
7	Nonet	102	426	102	5	0	0	93447	692	0	correct_rejection	NA	0
7	Nonet	103	427	103	4	0	0	94155	692	0	correct_rejection	NA	0
7	Nonet	104	428	104	6	0	0	94864	692	0	correct_rejection	NA	0
7	Nonet	105	429	105	5	0	0	95573	691	0	correct_rejection	NA	0
7	Nonet	106	430	106	4	0	0	96281	692	0	correct_rejection	NA	0
7	Nonet	107	431	107	6	0	0	96990	691	0	correct_rejection	NA	0
7	Nonet	108	432	108	5	0	0	97698	692	0	correct_rejection	NA	0
7	Nonet	109	433	109	4	0	0	98407	692	0	correct_rejection	NA	0
7	Nonet	110	434	110	0	1	3	99115	692	1	hit	364	0
7	Nonet	111	435	111	6	0	0	99824	692	0	correct_rejection	NA	0
7	Nonet	112	436	112	5	0	0	100533	691	0	correct_rejection	NA	0
7	Nonet	113	437	113	0	1	1	101241	692	1	hit	487	0
7	Nonet	114	438	114	4	0	0	101950	691	0	correct_rejection	NA	0
7	Nonet	115	439	115	6	0	0	102658	692	0	correct_rejection	NA	0
7	Nonet	116	440	116	5	0	0	103367	692	0	correct_rejection	NA	0
7	Nonet	117	441	117	4	0	0	104075	692	0	correct_rejection	NA	0
7	Nonet	118	442	118	6	0	0	104784	692	0	correct_rejection	NA	0
7	Nonet	119	443	119	5	0	0	105493	691	0	correct_rejection	NA	0
7	Nonet	120	444	120	4	0	0	106201	692	0	correct_rejection	NA	0
7	Nonet	121	445	121	9	0	0	106910	691	0	correct_rejection	NA	0
7	Nonet	122	446	122	8	0	0	107618	692	0	correct_rejection	NA	0
7	Nonet	123	447	123	0	1	1	108327	691	1	hit	356	0
7	Nonet	124	448	124	7	0	0	109035	692	0	correct_rejection	NA	0
7	Nonet	125	449	125	9	0	0	109744	692	0	correct_rejection	NA	0
7	Nonet	126	450	126	8	0	0	110452	692	0	correct_rejection	NA	0
7	Nonet	127	451	127	7	0	0	111161	692	0	correct_rejection	NA	0
7	Nonet	128	452	128	9	0	0	111870	691	0	correct_rejection	NA	0
7	Nonet	129	453	129	8	0	0	112578	692	0	correct_rejection	NA	0
7	Nonet	130	454	130	7	0	0	113287	691	0	correct_rejection	NA	0
7	Nonet	131	455	131	0	1	3	113995	692	1	hit	423	0
7	Nonet	132	456	132	7	0	0	114704	692	0	correct_rejection	NA	0
7	Nonet	133	457	133	8	0	0	115412	692	0	correct_rejection	NA	0
7	Nonet	134	458	134	9	0	0	116121	692	0	correct_rejection	NA	0
7	Nonet	135	459	135	7	0	0	116830	691	0	correct_rejection	NA	0
7	Nonet	136	460	136	8	0	0	117538	692	0	correct_rejection	NA	0
7	Nonet	137	461	137	0	1	1	118247	691	1	hit	339	0
7	Nonet	138	462	138	9	0	0	118955	692	0	correct_rejection	NA	0
7	Nonet	139	463	139	7	0	0	119664	692	0	correct_rejection	NA	0
7	Nonet	140	464	140	8	0	0	120372	692	0	correct_rejection	NA	0
7	Nonet	141	465	141	9	0	0	121081	692	0	correct_rejection	NA	0
7	Nonet	142	466	142	0	1	3	121790	691	1	hit	421	0
7	Nonet	143	467	143	7	0	0	122498	692	0	correct_rejection	NA	0
7	Nonet	144	468	144	8	0	0	123207	691	0	correct_rejection	NA	0
7	Nonet	145	469	145	9	0	0	123915	692	0	correct_rejection	NA	0
7	Nonet	146	470	146	7	0	0	124624	692	0	correct_rejection	NA	0
7	Nonet	147	471	147	8	0	0	125332	692	0	correct_rejection	NA	0
7	Nonet	148	472	148	9	0	0	126041	692	0	correct_rejection	NA	0
7	Nonet	149	473	149	7	0	0	126750	691	0	correct_rejection	NA	0
7	Nonet	150	474	150	8	0	0	127458	692	0	correct_rejection	NA	0
7	Nonet	151	475	151	9	0	0	128167	691	0	correct_rejection	NA	0
7	Nonet	152	476	152	4	0	0	128875	692	0	correct_rejection	NA	0
7	Nonet	153	477	153	5	0	0	129584	691	0	correct_rejection	NA	0
7	Nonet	154	478	154	0	1	1	130292	692	1	hit	479	0
7	Nonet	155	479	155	6	0	0	131001	692	0	correct_rejection	NA	0
7	Nonet	156	480	156	4	0	0	131709	692	0	correct_rejection	NA	0
7	Nonet	157	481	157	0	1	1	132418	692	1	hit	363	0
7	Nonet	158	482	158	5	0	0	133127	691	0	correct_rejection	NA	0
7	Nonet	159	483	159	6	0	0	133835	692	0	correct_rejection	NA	0
7	Nonet	160	484	160	4	0	0	134544	691	0	correct_rejection	NA	0
7	Nonet	161	485	161	5	0	0	135252	692	0	correct_rejection	NA	0
7	Nonet	162	486	162	6	0	0	135961	692	0	correct_rejection	NA	0
7	Correct	1	163	163	4	0	0	144839	692	0	correct_rejection	NA	6489
7	Correct	2	164	164	5	0	0	145547	692	0	correct_rejection	NA	0
7	Correct	3	165	165	6	0	0	146256	692	0	correct_rejection	NA	0
7	Correct	4	166	166	4	0	0	146965	691	0	correct_rejection	NA	0
7	Correct	5	167	167	5	0	0	147673	692	0	correct_rejection	NA	0
7	Correct	6	168	168	6	0	0	148382	691	0	correct_rejection	NA	0
7	Correct	7	169	169	4	0	0	149090	692	0	correct_rejection	NA	0
7	Correct	8	170	170	0	1	1	149799	691	1	hit	302	0
7	Correct	9	171	171	5	0	0	150507	692	0	correct_rejection	NA	0
7	Correct	10	172	172	6	0	0	151216	692	0	correct_rejection	NA	0
7	Correct	11	173	173	6	0	0	151924	692	0	correct_rejection	NA	0
7	Correct	12	174	174	5	0	0	152633	692	0	correct_rejection	NA	0
7	Correct	13	175	175	4	0	0	153342	691	0	correct_rejection	NA	0
7	Correct	14	176	176	0	1	2	154050	692	1	hit	424	0
7	Correct	15	177	177	6	0	0	154759	691	0	correct_rejection	NA	0
7	Correct	16	178	178	5	0	0	155467	692	0	correct_rejection	NA	0
7	Correct	17	179	179	4	0	0	156176	692	0	correct_rejection	NA	0
7	Correct	18	180	180	6	0	0	156884	692	0	correct_rejection	NA	0
7	Correct	19	181	181	5	0	0	157593	692	0	correct_rejection	NA	0
7	Correct	20	182	182	4	0	0	158302	691	0	correct_rejection	NA	0
7	Correct	21	183	183	0	1	3	159010	692	1	hit	402	0
7	Correct	22	184	184	9	0	0	159719	691	0	correct_rejection	NA	0
7	Correct	23	185	185	8	0	0	160427	692	0	correct_rejection	NA	0
7	Correct	24	186	186	7	0	0	161136	692	0	correct_rejection	NA	0
7	Correct	25	187	187	0	1	2	161844	692	1	hit	405	0
7	Correct	26	188	188	9	0	0	162553	692	0	correct_rejection	NA	0
7	Correct	27	189	189	8	0	0	163262	691	0	correct_rejection	NA	0
7	Correct	28	190	190	0	1	1	163970	692	1	hit	438	0
7	Correct	29	191	191	7	0	0	164679	691	0	correct_rejection	NA	0
7	Correct	30	192	192	9	0	0	165387	692	0	correct_rejection	NA	0
7	Correct	31	193	193	8	0	0	166096	691	0	correct_rejection	NA	0
7	Correct	32	194	194	7	0	0	166804	692	0	correct_rejection	NA	0
7	Correct	33	195	195	0	1	3	167513	692	1	hit	324	0
7	Correct	34	196	196	7	0	0	168222	691	0	correct_rejection	NA	0
7	Correct	35	197	197	8	0	0	168930	692	0	correct_rejection	NA	0
7	Correct	36	198	198	9	0	0	169639	691	0	correct_rejection	NA	0
7	Correct	37	199	199	7	0	0	170347	692	0	correct_rejection	NA	0
7	Correct	38	200	200	8	0	0	171056	691	0	correct_rejection	NA	0
7	Correct	39	201	201	9	0	0	171764	692	0	correct_rejection	NA	0
7	Correct	40	202	202	7	0	0	172473	692	0	correct_rejection	NA	0
7	Correct	41	203	203	8	0	0	173181	692	0	correct_rejection	NA	0
7	Correct	42	204	204	9	0	0	173890	692	0	correct_rejection	NA	0
7	Correct	43	205	205	4	0	0	174599	691	0	correct_rejection	NA	0
7	Correct	44	206	206	5	0	0	175307	692	0	correct_rejection	NA	0
7	Correct	45	207	207	6	0	0	176016	691	0	correct_rejection	NA	0
7	Correct	46	208	208	4	0	0	176724	692	0	correct_rejection	NA	0
7	Correct	47	209	209	5	0	0	177433	692	0	correct_rejection	NA	0
7	Correct	48	210	210	6	0	0	178141	692	0	correct_rejection	NA	0
7	Correct	49	211	211	4	0	0	178850	692	0	correct_rejection	NA	0
7	Correct	50	212	212	5	0	0	179559	691	0	correct_rejection	NA	0
7	Correct	51	213	213	6	0	0	180267	692	0	correct_rejection	NA	0
7	Correct	52	214	214	6	0	0	180976	691	0	correct_rejection	NA	0
7	Correct	53	215	215	5	0	0	181684	692	0	correct_rejection	NA	0
7	Correct	54	216	216	4	0	0	182393	692	0	correct_rejection	NA	0
7	Correct	55	217	217	6	0	0	183101	692	0	correct_rejection	NA	0
7	Correct	56	218	218	5	0	0	183810	692	0	correct_rejection	NA	0
7	Correct	57	219	219	4	0	0	184519	691	0	correct_rejection	NA	0
7	Correct	58	220	220	6	0	0	185227	692	0	correct_rejection	NA	0
7	Correct	59	221	221	5	0	0	185936	691	0	correct_rejection	NA	0
7	Correct	60	222	222	0	1	1	186644	692	1	hit	385	0
7	Correct	61	223	223	4	0	0	187353	691	0	correct_rejection	NA	0
7	Correct	62	224	224	9	0	0	188061	692	0	correct_rejection	NA	0
7	Correct	63	225	225	0	1	1	188770	692	1	hit	388	0
7	Correct	64	226	226	8	0	0	189479	691	0	correct_rejection	NA	0
7	Correct	65	227	227	7	0	0	190187	692	0	correct_rejection	NA	0
7	Correct	66	228	228	9	0	0	190896	691	0	correct_rejection	NA	0
7	Correct	67	229	229	8	0	0	191604	692	0	correct_rejection	NA	0
7	Correct	68	230	230	7	0	0	192313	691	0	correct_rejection	NA	0
7	Correct	69	231	231	9	0	0	193021	692	0	correct_rejection	NA	0
7	Correct	70	232	232	8	0	0	193730	692	0	correct_rejection	NA	0
7	Correct	71	233	233	7	0	0	194438	692	0	correct_rejection	NA	0
7	Correct	72	234	234	7	0	0	195147	692	0	correct_rejection	NA	0
7	Correct	73	235	235	8	0	0	195856	691	0	correct_rejection	NA	0
7	Correct	74	236	236	0	1	1	196564	692	1	hit	355	0
7	Correct	75	237	237	9	0	0	197273	691	0	correct_rejection	NA	0
7	Correct	76	238	238	7	0	0	197981	692	0	correct_rejection	NA	0
7	Correct	77	239	239	0	1	1	198690	692	1	hit	462	0
7	Correct	78	240	240	8	0	0	199398	692	0	correct_rejection	NA	0
7	Correct	79	241	241	9	0	0	200107	692	0	correct_rejection	NA	0
7	Correct	80	242	242	7	0	0	200816	691	0	correct_rejection	NA	0
7	Correct	81	243	243	0	1	1	201524	692	1	hit	350	0
7	Correct	82	244	244	8	0	0	202233	691	0	correct_rejection	NA	0
7	Correct	83	245	245	9	0	0	202941	692	0	correct_rejection	NA	0
7	Correct	84	246	246	4	0	0	203650	692	0	correct_rejection	NA	0
7	Correct	85	247	247	5	0	0	204358	692	0	correct_rejection	NA	0
7	Correct	86	248	248	6	0	0	205067	692	0	correct_rejection	NA	0
7	Correct	87	249	249	0	1	2	205776	691	1	hit	478	0
7	Correct	88	250	250	4	0	0	206484	692	0	correct_rejection	NA	0
7	Correct	89	251	251	5	0	0	207193	691	0	correct_rejection	NA	0
7	Correct	90	252	252	6	0	0	207901	692	0	correct_rejection	NA	0
7	Correct	91	253	253	4	0	0	208610	691	0	correct_rejection	NA	0
7	Correct	92	254	254	5	0	0	209318	692	0	correct_rejection	NA	0
7	Correct	93	255	255	6	0	0	210027	692	0	correct_rejection	NA	0
7	Correct	94	256	256	6	0	0	210735	692	0	correct_rejection	NA	0
7	Correct	95	257	257	0	1	1	211444	692	1	hit	364	0
7	Correct	96	258	258	5	0	0	212153	691	0	correct_rejection	NA	0
7	Correct	97	259	259	4	0	0	212861	692	0	correct_rejection	NA	0
7	Correct	98	260	260	6	0	0	213570	691	0	correct_rejection	NA	0
7	Correct	99	261	261	5	0	0	214278	692	0	correct_rejection	NA	0
7	Correct	100	262	262	4	0	0	214987	692	0	correct_rejection	NA	0
7	Correct	101	263	263	6	0	0	215695	692	0	correct_rejection	NA	0
7	Correct	102	264	264	5	0	0	216404	692	0	correct_rejection	NA	0
7	Correct	103	265	265	4	0	0	217113	691	0	correct_rejection	NA	0
7	Correct	104	266	266	9	0	0	217821	692	0	correct_rejection	NA	0
7	Correct	105	267	267	8	0	0	218530	691	0	correct_rejection	NA	0
7	Correct	106	268	268	7	0	0	219238	692	0	correct_rejection	NA	0
7	Correct	107	269	269	9	0	0	219947	692	0	correct_rejection	NA	0
7	Correct	108	270	270	8	0	0	220655	692	0	correct_rejection	NA	0
7	Correct	109	271	271	7	0	0	221364	692	0	correct_rejection	NA	0
7	Correct	110	272	272	9	0	0	222073	691	0	correct_rejection	NA	0
7	Correct	111	273	273	8	0	0	222781	692	0	correct_rejection	NA	0
7	Correct	112	274	274	7	0	0	223490	691	0	correct_rejection	NA	0
7	Correct	113	275	275	7	0	0	224198	692	0	correct_rejection	NA	0
7	Correct	114	276	276	8	0	0	224907	692	0	correct_rejection	NA	0
7	Correct	115	277	277	0	1	1	225615	692	1	hit	352	0
7	Correct	116	278	278	9	0	0	226324	692	0	correct_rejection	NA	0
7	Correct	117	279	279	7	0	0	227033	691	0	correct_rejection	NA	0
7	Correct	118	280	280	8	0	0	227741	692	0	correct_rejection	NA	0
7	Correct	119	281	281	9	0	0	228450	691	0	correct_rejection	NA	0
7	Correct	120	282	282	0	1	2	229158	692	1	hit	376	0
7	Correct	121	283	283	7	0	0	229867	691	0	correct_rejection	NA	0
7	Correct	122	284	284	8	0	0	230575	692	0	correct_rejection	NA	0
7	Correct	123	285	285	9	0	0	231284	692	0	correct_rejection	NA	0
7	Correct	124	286	286	4	0	0	231992	692	0	correct_rejection	NA	0
7	Correct	125	287	287	5	0	0	232701	692	0	correct_rejection	NA	0
7	Correct	126	288	288	0	1	1	233410	691	1	hit	406	0
7	Correct	127	289	289	6	0	0	234118	692	0	correct_rejection	NA	0
7	Correct	128	290	290	4	0	0	234827	691	0	correct_rejection	NA	0
7	Correct	129	291	291	5	0	0	235535	692	0	correct_rejection	NA	0
7	Correct	130	292	292	6	0	0	236244	692	0	correct_rejection	NA	0
7	Correct	131	293	293	4	0	0	236952	692	0	correct_rejection	NA	0
7	Correct	132	294	294	5	0	0	237661	692	0	correct_rejection	NA	0
7	Correct	133	295	295	6	0	0	238370	691	0	correct_rejection	NA	0
7	Correct	134	296	296	6	0	0	239078	692	0	correct_rejection	NA	0
7	Correct	135	297	297	5	0	0	239787	691	0	correct_rejection	NA	0
7	Correct	136	298	298	4	0	0	240495	692	0	correct_rejection	NA	0
7	Correct	137	299	299	6	0	0	241204	692	0	correct_rejection	NA	0
7	Correct	138	300	300	5	0	0	241912	692	0	correct_rejection	NA	0
7	Correct	139	301	301	4	0	0	242621	692	0	correct_rejection	NA	0
7	Correct	140	302	302	6	0	0	243330	691	0	correct_rejection	NA	0
7	Correct	141	303	303	5	0	0	244038	692	0	correct_rejection	NA	0
7	Correct	142	304	304	4	0	0	244747	691	0	correct_rejection	NA	0
7	Correct	143	305	305	9	0	0	245455	692	0	correct_rejection	NA	0
7	Correct	144	306	306	8	0	0	246164	692	0	correct_rejection	NA	0
7	Correct	145	307	307	7	0	0	246872	692	0	correct_rejection	NA	0
7	Correct	146	308	308	9	0	0	247581	692	0	correct_rejection	NA	0
7	Correct	147	309	309	8	0	0	248290	691	0	correct_rejection	NA	0
7	Correct	148	310	310	0	1	1	248998	692	1	hit	369	0
7	Correct	149	311	311	7	0	0	249707	691	0	correct_rejection	NA	0
7	Correct	150	312	312	9	0	0	250415	692	0	correct_rejection	NA	0
7	Correct	151	313	313	8	0	0	251124	691	0	correct_rejection	NA	0
7	Correct	152	314	314	7	0	0	251832	692	0	correct_rejection	NA	0
7	Correct	153	315	315	7	0	0	252541	692	0	correct_rejection	NA	0
7	Correct	154	316	316	0	1	1	253249	692	1	hit	410	0
7	Correct	155	317	317	8	0	0	253958	692	0	correct_rejection	NA	0
7	Correct	156	318	318	9	0	0	254667	691	0	correct_rejection	NA	0
7	Correct	157	319	319	7	0	0	255375	692	0	correct_rejection	NA	0
7	Correct	158	320	320	8	0	0	256084	691	0	correct_rejection	NA	0
7	Correct	159	321	321	9	0	0	256792	692	0	correct_rejection	NA	0
7	Correct	160	322	322	7	0	0	257501	692	0	correct_rejection	NA	0
7	Correct	161	323	323	8	0	0	258209	692	0	correct_rejection	NA	0
7	Correct	162	324	324	9	0	0	258918	692	0	correct_rejection	NA	0
7	Single	1	325	325	9	0	0	268963	692	0	correct_rejection	NA	7609
7	Single	2	326	326	5	0	0	269672	691	0	correct_rejection	NA	0
7	Single	3	327	327	7	0	0	270380	692	0	correct_rejection	NA	0
7	Single	4	328	328	6	0	0	271089	691	0	correct_rejection	NA	0
7	Single	5	329	329	0	1	1	271797	692	1	hit	518	0
7	Single	6	330	330	9	0	0	272506	692	0	correct_rejection	NA	0
7	Single	7	331	331	4	0	0	273214	692	0	correct_rejection	NA	0
7	Single	8	332	332	4	0	0	273923	692	0	correct_rejection	NA	0
7	Single	9	333	333	7	0	0	274632	691	0	correct_rejection	NA	0
7	Single	10	334	334	8	0	0	275340	692	0	correct_rejection	NA	0
7	Single	11	335	335	5	0	0	276049	691	0	correct_rejection	NA	0
7	Single	12	336	336	9	0	0	276757	692	0	correct_rejection	NA	0
7	Single	13	337	337	0	1	1	277466	691	1	hit	450	0
7	Single	14	338	338	8	0	0	278174	692	0	correct_rejection	NA	0
7	Single	15	339	339	6	0	0	278883	692	0	correct_rejection	NA	0
7	Single	16	340	340	7	0	0	279591	692	0	correct_rejection	NA	0
7	Single	17	341	341	4	0	0	280300	692	0	correct_rejection	NA	0
7	Single	18	342	342	0	1	1	281009	691	1	hit	355	0
7	Single	19	343	343	5	0	0	281717	692	0	correct_rejection	NA	0
7	Single	20	344	344	8	0	0	282426	691	0	correct_rejection	NA	0
7	Single	21	345	345	8	0	0	283134	692	0	correct_rejection	NA	0
7	Single	22	346	346	9	0	0	283843	692	0	correct_rejection	NA	0
7	Single	23	347	347	7	0	0	284551	692	0	correct_rejection	NA	0
7	Single	24	348	348	5	0	0	285260	692	0	correct_rejection	NA	0
7	Single	25	349	349	5	0	0	285969	691	0	correct_rejection	NA	0
7	Single	26	350	350	4	0	0	286677	692	0	correct_rejection	NA	0
7	Single	27	351	351	9	0	0	287386	691	0	correct_rejection	NA	0
7	Single	28	352	352	9	0	0	288094	692	0	correct_rejection	NA	0
7	Single	29	353	353	6	0	0	288803	692	0	correct_rejection	NA	0
7	Single	30	354	354	8	0	0	289511	692	0	correct_rejection	NA	0
7	Single	31	355	355	4	0	0	290220	692	0	correct_rejection	NA	0
7	Single	32	356	356	6	0	0	290929	691	0	correct_rejection	NA	0
7	Single	33	357	357	0	1	1	291637	692	1	hit	356	0
7	Single	34	358	358	6	0	0	292346	691	0	correct_rejection	NA	0
7	Single	35	359	359	5	0	0	293054	692	0	correct_rejection	NA	0
7	Single	36	360	360	6	0	0	293763	692	0	correct_rejection	NA	0
7	Single	37	361	361	4	0	0	294471	692	0	correct_rejection	NA	0
7	Single	38	362	362	8	0	0	295180	692	0	correct_rejection	NA	0
7	Single	39	363	363	7	0	0	295889	691	0	correct_rejection	NA	0
7	Single	40	364	364	7	0	0	296597	692	0	correct_rejection	NA	0
7	Single	41	365	365	5	0	0	297306	691	0	correct_rejection	NA	0
7	Single	42	366	366	8	0	0	298014	692	0	correct_rejection	NA	0
7	Single	43	367	367	4	0	0	298723	691	0	correct_rejection	NA	0
7	Single	44	368	368	5	0	0	299431	692	0	correct_rejection	NA	0
7	Single	45	369	369	6	0	0	300140	692	0	correct_rejection	NA	0
7	Single	46	370	370	8	0	0	300848	692	0	correct_rejection	NA	0
7	Single	47	371	371	6	0	0	301557	692	0	correct_rejection	NA	0
7	Single	48	372	372	6	0	0	302266	691	0	correct_rejection	NA	0
7	Single	49	373	373	0	1	1	302974	692	1	hit	465	0
7	Single	50	374	374	4	0	0	303683	691	0	correct_rejection	NA	0
7	Single	51	375	375	7	0	0	304391	692	0	correct_rejection	NA	0
7	Single	52	376	376	9	0	0	305100	692	0	correct_rejection	NA	0
7	Single	53	377	377	0	1	1	305808	692	1	hit	520	0
7	Single	54	378	378	7	0	0	306517	692	0	correct_rejection	NA	0
7	Single	55	379	379	7	0	0	307226	691	0	correct_rejection	NA	0
7	Single	56	380	380	8	0	0	307934	692	0	correct_rejection	NA	0
7	Single	57	381	381	0	1	1	308643	691	1	hit	446	0
7	Single	58	382	382	7	0	0	309351	692	0	correct_rejection	NA	0
7	Single	59	383	383	4	0	0	310060	692	0	correct_rejection	NA	0
7	Single	60	384	384	0	1	1	310768	692	1	hit	366	0
7	Single	61	385	385	9	0	0	311477	692	0	correct_rejection	NA	0
7	Single	62	386	386	8	0	0	312186	691	0	correct_rejection	NA	0
7	Single	63	387	387	9	0	0	312894	692	0	correct_rejection	NA	0
7	Single	64	388	388	5	0	0	313603	691	0	correct_rejection	NA	0
7	Single	65	389	389	5	0	0	314311	692	0	correct_rejection	NA	0
7	Single	66	390	390	7	0	0	315020	692	0	correct_rejection	NA	0
7	Single	67	391	391	5	0	0	315728	692	0	correct_rejection	NA	0
7	Single	68	392	392	9	0	0	316437	692	0	correct_rejection	NA	0
7	Single	69	393	393	6	0	0	317146	691	0	correct_rejection	NA	0
7	Single	70	394	394	9	0	0	317854	692	0	correct_rejection	NA	0
7	Single	71	395	395	9	0	0	318563	691	0	correct_rejection	NA	0
7	Single	72	396	396	4	0	0	319271	692	0	correct_rejection	NA	0
7	Single	73	397	397	6	0	0	319980	691	0	correct_rejection	NA	0
7	Single	74	398	398	7	0	0	320688	692	0	correct_rejection	NA	0
7	Single	75	399	399	6	0	0	321397	692	0	correct_rejection	NA	0
7	Single	76	400	400	5	0	0	322105	692	0	correct_rejection	NA	0
7	Single	77	401	401	0	1	1	322814	692	1	hit	510	0
7	Single	78	402	402	4	0	0	323523	691	0	correct_rejection	NA	0
7	Single	79	403	403	4	0	0	324231	692	0	correct_rejection	NA	0
7	Single	80	404	404	8	0	0	324940	691	0	correct_rejection	NA	0
7	Single	81	405	405	8	0	0	325648	692	0	correct_rejection	NA	0
7	Single	82	406	406	0	1	1	326357	692	1	hit	473	0
7	Single	83	407	407	8	0	0	327065	692	0	correct_rejection	NA	0
7	Single	84	408	408	4	0	0	327774	692	0	correct_rejection	NA	0
7	Single	85	409	409	9	0	0	328483	691	0	correct_rejection	NA	0
7	Single	86	410	410	7	0	0	329191	692	0	correct_rejection	NA	0
7	Single	87	411	411	4	0	0	329900	691	0	correct_rejection	NA	0
7	Single	88	412	412	8	0	0	330608	692	0	correct_rejection	NA	0
7	Single	89	413	413	9	0	0	331317	692	0	correct_rejection	NA	0
7	Single	90	414	414	4	0	0	332025	692	0	correct_rejection	NA	0
7	Single	91	415	415	7	0	0	332734	692	0	correct_rejection	NA	0
7	Single	92	416	416	6	0	0	333443	691	0	correct_rejection	NA	0
7	Single	93	417	417	6	0	0	334151	692	0	correct_rejection	NA	0
7	Single	94	418	418	0	1	1	334860	691	1	hit	326	0
7	Single	95	419	419	8	0	0	335568	692	0	correct_rejection	NA	0
7	Single	96	420	420	8	0	0	336277	691	0	correct_rejection	NA	0
7	Single	97	421	421	5	0	0	336985	692	0	correct_rejection	NA	0
7	Single	98	422	422	5	0	0	337694	692	0	correct_rejection	NA	0
7	Single	99	423	423	6	0	0	338403	691	0	correct_rejection	NA	0
7	Single	100	424	424	0	1	1	339111	692	1	hit	440	0
7	Single	101	425	425	7	0	0	339820	691	0	correct_rejection	NA	0
7	Single	102	426	426	9	0	0	340528	692	0	correct_rejection	NA	0
7	Single	103	427	427	6	0	0	341237	691	0	correct_rejection	NA	0
7	Single	104	428	428	4	0	0	341945	692	0	correct_rejection	NA	0
7	Single	105	429	429	4	0	0	342654	692	0	correct_rejection	NA	0
7	Single	106	430	430	6	0	0	343362	692	0	correct_rejection	NA	0
7	Single	107	431	431	9	0	0	344071	692	0	correct_rejection	NA	0
7	Single	108	432	432	5	0	0	344780	691	0	correct_rejection	NA	0
7	Single	109	433	433	4	0	0	345488	692	0	correct_rejection	NA	0
7	Single	110	434	434	5	0	0	346197	691	0	correct_rejection	NA	0
7	Single	111	435	435	9	0	0	346905	692	0	correct_rejection	NA	0
7	Single	112	436	436	9	0	0	347614	692	0	correct_rejection	NA	0
7	Single	113	437	437	8	0	0	348322	692	0	correct_rejection	NA	0
7	Single	114	438	438	7	0	0	349031	692	0	correct_rejection	NA	0
7	Single	115	439	439	8	0	0	349740	691	0	correct_rejection	NA	0
7	Single	116	440	440	6	0	0	350448	692	0	correct_rejection	NA	0
7	Single	117	441	441	5	0	0	351157	691	0	correct_rejection	NA	0
7	Single	118	442	442	7	0	0	351865	692	0	correct_rejection	NA	0
7	Single	119	443	443	7	0	0	352574	692	0	correct_rejection	NA	0
7	Single	120	444	444	5	0	0	353282	692	0	correct_rejection	NA	0
7	Single	121	445	445	8	0	0	353991	692	0	correct_rejection	NA	0
7	Single	122	446	446	7	0	0	354700	691	0	correct_rejection	NA	0
7	Single	123	447	447	9	0	0	355408	692	0	correct_rejection	NA	0
7	Single	124	448	448	0	1	1	356117	691	1	hit	593	0
7	Single	125	449	449	9	0	0	356825	692	0	correct_rejection	NA	0
7	Single	126	450	450	6	0	0	357534	691	0	correct_rejection	NA	0
7	Single	127	451	451	0	1	1	358242	692	1	hit	475	0
7	Single	128	452	452	5	0	0	358951	692	0	correct_rejection	NA	0
7	Single	129	453	453	5	0	0	359660	691	0	correct_rejection	NA	0
7	Single	130	454	454	9	0	0	360368	692	0	correct_rejection	NA	0
7	Single	131	455	455	4	0	0	361077	691	0	correct_rejection	NA	0
7	Single	132	456	456	9	0	0	361785	692	0	correct_rejection	NA	0
7	Single	133	457	457	5	0	0	362494	691	0	correct_rejection	NA	0
7	Single	134	458	458	7	0	0	363202	692	0	correct_rejection	NA	0
7	Single	135	459	459	4	0	0	363911	692	0	correct_rejection	NA	0
7	Single	136	460	460	4	0	0	364619	692	0	correct_rejection	NA	0
7	Single	137	461	461	5	0	0	365328	692	0	correct_rejection	NA	0
7	Single	138	462	462	8	0	0	366037	691	0	correct_rejection	NA	0
7	Single	139	463	463	8	0	0	366745	692	0	correct_rejection	NA	0
7	Single	140	464	464	0	1	1	367454	691	1	hit	378	0
7	Single	141	465	465	9	0	0	368162	692	0	correct_rejection	NA	0
7	Single	142	466	466	7	0	0	368871	692	0	correct_rejection	NA	0
7	Single	143	467	467	8	0	0	369579	692	0	correct_rejection	NA	0
7	Single	144	468	468	4	0	0	370288	692	0	correct_rejection	NA	0
7	Single	145	469	469	8	0	0	370997	691	0	correct_rejection	NA	0
7	Single	146	470	470	6	0	0	371705	692	0	correct_rejection	NA	0
7	Single	147	471	471	9	0	0	372414	691	0	correct_rejection	NA	0
7	Single	148	472	472	8	0	0	373122	692	0	correct_rejection	NA	0
7	Single	149	473	473	0	1	1	373831	692	1	hit	452	0
7	Single	150	474	474	5	0	0	374539	692	0	correct_rejection	NA	0
7	Single	151	475	475	4	0	0	375248	692	0	correct_rejection	NA	0
7	Single	152	476	476	0	1	1	375957	691	1	hit	351	0
7	Single	153	477	477	7	0	0	376665	692	0	correct_rejection	NA	0
7	Single	154	478	478	5	0	0	377374	691	0	correct_rejection	NA	0
7	Single	155	479	479	0	1	1	378082	692	1	hit	321	0
7	Single	156	480	480	6	0	0	378791	691	0	correct_rejection	NA	0
7	Single	157	481	481	6	0	0	379499	692	0	correct_rejection	NA	0
7	Single	158	482	482	7	0	0	380208	692	0	correct_rejection	NA	0
7	Single	159	483	483	7	0	0	380916	692	0	correct_rejection	NA	0
7	Single	160	484	484	6	0	0	381625	692	0	correct_rejection	NA	0
7	Single	161	485	485	4	0	0	382334	691	0	correct_rejection	NA	0
7	Single	162	486	486	6	0	0	383042	692	0	correct_rejection	NA	0
7	Triplet	1	163	487	6	0	0	393237	692	0	correct_rejection	NA	7898
7	Triplet	2	164	488	5	0	0	393946	691	0	correct_rejection	NA	0
7	Triplet	3	165	489	4	0	0	394654	692	0	correct_rejection	NA	0
7	Triplet	4	166	490	0	1	2	395363	692	1	hit	421	0
7	Triplet	5	167	491	6	0	0	396071	692	0	correct_rejection	NA	0
7	Triplet	6	168	492	5	0	0	396780	692	0	correct_rejection	NA	0
7	Triplet	7	169	493	0	1	1	397489	691	1	hit	340	0
7	Triplet	8	170	494	4	0	0	398197	692	0	correct_rejection	NA	0
7	Triplet	9	171	495	4	0	0	398906	691	0	correct_rejection	NA	0
7	Triplet	10	172	496	5	0	0	399614	692	0	correct_rejection	NA	0
7	Triplet	11	173	497	0	1	1	400323	692	1	hit	334	0
7	Triplet	12	174	498	6	0	0	401031	692	0	correct_rejection	NA	0
7	Triplet	13	175	499	9	0	0	401740	692	0	correct_rejection	NA	0
7	Triplet	14	176	500	8	0	0	402449	691	0	correct_rejection	NA	0
7	Triplet	15	177	501	7	0	0	403157	692	0	correct_rejection	NA	0
7	Triplet	16	178	502	6	0	0	403866	691	0	correct_rejection	NA	0
7	Triplet	17	179	503	0	1	1	404574	692	1	hit	381	0
7	Triplet	18	180	504	5	0	0	405283	692	0	correct_rejection	NA	0
7	Triplet	19	181	505	4	0	0	405991	692	0	correct_rejection	NA	0
7	Triplet	20	182	506	9	0	0	406700	692	0	correct_rejection	NA	0
7	Triplet	21	183	507	8	0	0	407409	691	0	correct_rejection	NA	0
7	Triplet	22	184	508	7	0	0	408117	692	0	correct_rejection	NA	0
7	Triplet	23	185	509	0	1	2	408826	691	1	hit	430	0
7	Triplet	24	186	510	7	0	0	409534	692	0	correct_rejection	NA	0
7	Triplet	25	187	511	8	0	0	410243	692	0	correct_rejection	NA	0
7	Triplet	26	188	512	9	0	0	410951	692	0	correct_rejection	NA	0
7	Triplet	27	189	513	6	0	0	411660	692	0	correct_rejection	NA	0
7	Triplet	28	190	514	5	0	0	412369	691	0	correct_rejection	NA	0
7	Triplet	29	191	515	0	1	1	413077	692	1	hit	532	0
7	Triplet	30	192	516	4	0	0	413786	691	0	correct_rejection	NA	0
7	Triplet	31	193	517	7	0	0	414494	692	0	correct_rejection	NA	0
7	Triplet	32	194	518	8	0	0	415203	691	0	correct_rejection	NA	0
7	Triplet	33	195	519	9	0	0	415911	692	0	correct_rejection	NA	0
7	Triplet	34	196	520	7	0	0	416620	692	0	correct_rejection	NA	0
7	Triplet	35	197	521	8	0	0	417328	692	0	correct_rejection	NA	0
7	Triplet	36	198	522	9	0	0	418037	692	0	correct_rejection	NA	0
7	Triplet	37	199	523	9	0	0	418746	691	0	correct_rejection	NA	0
7	Triplet	38	200	524	8	0	0	419454	692	0	correct_rejection	NA	0
7	Triplet	39	201	525	7	0	0	420163	691	0	correct_rejection	NA	0
7	Triplet	40	202	526	9	0	0	420871	692	0	correct_rejection	NA	0
7	Triplet	41	203	527	8	0	0	421580	692	0	correct_rejection	NA	0
7	Triplet	42	204	528	0	1	1	422288	692	1	hit	339	0
7	Triplet	43	205	529	7	0	0	422997	692	0	correct_rejection	NA	0
7	Triplet	44	206	530	4	0	0	423706	691	0	correct_rejection	NA	0
7	Triplet	45	207	531	5	0	0	424414	692	0	correct_rejection	NA	0
7	Triplet	46	208	532	6	0	0	425123	691	0	correct_rejection	NA	0
7	Triplet	47	209	533	4	0	0	425831	692	0	correct_rejection	NA	0
7	Triplet	48	210	534	5	0	0	426540	692	0	correct_rejection	NA	0
7	Triplet	49	211	535	6	0	0	427248	692	0	correct_rejection	NA	0
7	Triplet	50	212	536	7	0	0	427957	692	0	correct_rejection	NA	0
7	Triplet	51	213	537	8	0	0	428666	691	0	correct_rejection	NA	0
7	Triplet	52	214	538	9	0	0	429374	692	0	correct_rejection	NA	0
7	Triplet	53	215	539	4	0	0	430083	691	0	correct_rejection	NA	0
7	Triplet	54	216	540	5	0	0	430791	692	0	correct_rejection	NA	0
7	Triplet	55	217	541	6	0	0	431500	692	0	correct_rejection	NA	0
7	Triplet	56	218	542	7	0	0	432208	692	0	correct_rejection	NA	0
7	Triplet	57	219	543	0	1	1	432917	692	1	hit	475	0
7	Triplet	58	220	544	8	0	0	433626	691	0	correct_rejection	NA	0
7	Triplet	59	221	545	9	0	0	434334	692	0	correct_rejection	NA	0
7	Triplet	60	222	546	0	1	2	435043	691	1	hit	533	0
7	Triplet	61	223	547	6	0	0	435751	692	0	correct_rejection	NA	0
7	Triplet	62	224	548	5	0	0	436460	691	0	correct_rejection	NA	0
7	Triplet	63	225	549	4	0	0	437168	692	0	correct_rejection	NA	0
7	Triplet	64	226	550	6	0	0	437877	692	0	correct_rejection	NA	0
7	Triplet	65	227	551	5	0	0	438585	692	0	correct_rejection	NA	0
7	Triplet	66	228	552	4	0	0	439294	692	0	correct_rejection	NA	0
7	Triplet	67	229	553	9	0	0	440003	691	0	correct_rejection	NA	0
7	Triplet	68	230	554	8	0	0	440711	692	0	correct_rejection	NA	0
7	Triplet	69	231	555	7	0	0	441420	691	0	correct_rejection	NA	0
7	Triplet	70	232	556	4	0	0	442128	692	0	correct_rejection	NA	0
7	Triplet	71	233	557	0	1	1	442837	692	1	hit	461	0
7	Triplet	72	234	558	5	0	0	443545	692	0	correct_rejection	NA	0
7	Triplet	73	235	559	6	0	0	444254	692	0	correct_rejection	NA	0
7	Triplet	74	236	560	7	0	0	444963	691	0	correct_rejection	NA	0
7	Triplet	75	237	561	8	0	0	445671	692	0	correct_rejection	NA	0
7	Triplet	76	238	562	9	0	0	446380	691	0	correct_rejection	NA	0
7	Triplet	77	239	563	7	0	0	447088	692	0	correct_rejection	NA	0
7	Triplet	78	240	564	8	0	0	447797	692	0	correct_rejection	NA	0
7	Triplet	79	241	565	9	0	0	448505	692	0	correct_rejection	NA	0
7	Triplet	80	242	566	4	0	0	449214	692	0	correct_rejection	NA	0
7	Triplet	81	243	567	5	0	0	449923	691	0	correct_rejection	NA	0
7	Triplet	82	244	568	6	0	0	450631	692	0	correct_rejection	NA	0
7	Triplet	83	245	569	6	0	0	451340	691	0	correct_rejection	NA	0
7	Triplet	84	246	570	5	0	0	452048	692	0	correct_rejection	NA	0
7	Triplet	85	247	571	4	0	0	452757	691	0	correct_rejection	NA	0
7	Triplet	86	248	572	7	0	0	453465	692	0	correct_rejection	NA	0
7	Triplet	87	249	573	8	0	0	454174	692	0	correct_rejection	NA	0
7	Triplet	88	250	574	9	0	0	454882	692	0	correct_rejection	NA	0
7	Triplet	89	251	575	9	0	0	455591	692	0	correct_rejection	NA	0
7	Triplet	90	252	576	8	0	0	456300	691	0	correct_rejection	NA	0
7	Triplet	91	253	577	7	0	0	457008	692	0	correct_rejection	NA	0
7	Triplet	92	254	578	6	0	0	457717	691	0	correct_rejection	NA	0
7	Triplet	93	255	579	5	0	0	458425	692	0	correct_rejection	NA	0
7	Triplet	94	256	580	4	0	0	459134	692	0	correct_rejection	NA	0
7	Triplet	95	257	581	4	0	0	459842	692	0	correct_rejection	NA	0
7	Triplet	96	258	582	5	0	0	460551	692	0	correct_rejection	NA	0
7	Triplet	97	259	583	6	0	0	461260	691	0	correct_rejection	NA	0
7	Triplet	98	260	584	4	0	0	461968	692	0	correct_rejection	NA	0
7	Triplet	99	261	585	5	0	0	462677	691	0	correct_rejection	NA	0
7	Triplet	100	262	586	6	0	0	463385	692	0	correct_rejection	NA	0
7	Triplet	101	263	587	9	0	0	464094	692	0	correct_rejection	NA	0
7	Triplet	102	264	588	8	0	0	464802	692	0	correct_rejection	NA	0
7	Triplet	103	265	589	7	0	0	465511	692	0	correct_rejection	NA	0
7	Triplet	104	266	590	0	1	2	466220	691	1	hit	429	0
7	Triplet	105	267	591	9	0	0	466928	692	0	correct_rejection	NA	0
7	Triplet	106	268	592	8	0	0	467637	691	0	correct_rejection	NA	0
7	Triplet	107	269	593	7	0	0	468345	692	0	correct_rejection	NA	0
7	Triplet	108	270	594	4	0	0	469054	692	0	correct_rejection	NA	0
7	Triplet	109	271	595	5	0	0	469762	692	0	correct_rejection	NA	0
7	Triplet	110	272	596	6	0	0	470471	692	0	correct_rejection	NA	0
7	Triplet	111	273	597	4	0	0	471180	691	0	correct_rejection	NA	0
7	Triplet	112	274	598	5	0	0	471888	692	0	correct_rejection	NA	0
7	Triplet	113	275	599	6	0	0	472597	691	0	correct_rejection	NA	0
7	Triplet	114	276	600	6	0	0	473305	692	0	correct_rejection	NA	0
7	Triplet	115	277	601	0	1	1	474014	691	1	hit	518	0
7	Triplet	116	278	602	5	0	0	474722	692	0	correct_rejection	NA	0
7	Triplet	117	279	603	4	0	0	475431	692	0	correct_rejection	NA	0
7	Triplet	118	280	604	9	0	0	476139	692	0	correct_rejection	NA	0
7	Triplet	119	281	605	8	0	0	476848	692	0	correct_rejection	NA	0
7	Triplet	120	282	606	0	1	1	477557	691	1	hit	433	0
7	Triplet	121	283	607	7	0	0	478265	692	0	correct_rejection	NA	0
7	Triplet	122	284	608	9	0	0	478974	691	0	correct_rejection	NA	0
7	Triplet	123	285	609	0	1	1	479682	692	1	hit	487	0
7	Triplet	124	286	610	8	0	0	480391	692	0	correct_rejection	NA	0
7	Triplet	125	287	611	7	0	0	481099	692	0	correct_rejection	NA	0
7	Triplet	126	288	612	6	0	0	481808	692	0	correct_rejection	NA	0
7	Triplet	127	289	613	5	0	0	482517	691	0	correct_rejection	NA	0
7	Triplet	128	290	614	4	0	0	483225	692	0	correct_rejection	NA	0
7	Triplet	129	291	615	6	0	0	483934	691	0	correct_rejection	NA	0
7	Triplet	130	292	616	5	0	0	484642	692	0	correct_rejection	NA	0
7	Triplet	131	293	617	4	0	0	485351	692	0	correct_rejection	NA	0
7	Triplet	132	294	618	7	0	0	486059	692	0	correct_rejection	NA	0
7	Triplet	133	295	619	0	1	1	486768	692	1	hit	524	0
7	Triplet	134	296	620	8	0	0	487477	691	0	correct_rejection	NA	0
7	Triplet	135	297	621	9	0	0	488185	692	0	correct_rejection	NA	0
7	Triplet	136	298	622	4	0	0	488894	691	0	correct_rejection	NA	0
7	Triplet	137	299	623	5	0	0	489602	692	0	correct_rejection	NA	0
7	Triplet	138	300	624	6	0	0	490311	692	0	correct_rejection	NA	0
7	Triplet	139	301	625	7	0	0	491019	692	0	correct_rejection	NA	0
7	Triplet	140	302	626	8	0	0	491728	692	0	correct_rejection	NA	0
7	Triplet	141	303	627	0	1	1	492437	691	1	hit	367	0
7	Triplet	142	304	628	9	0	0	493145	692	0	correct_rejection	NA	0
7	Triplet	143	305	629	9	0	0	493854	691	0	correct_rejection	NA	0
7	Triplet	144	306	630	8	0	0	494562	692	0	correct_rejection	NA	0
7	Triplet	145	307	631	7	0	0	495271	691	0	correct_rejection	NA	0
7	Triplet	146	308	632	4	0	0	495979	692	0	correct_rejection	NA	0
7	Triplet	147	309	633	5	0	0	496688	692	0	correct_rejection	NA	0
7	Triplet	148	310	634	6	0	0	497396	692	0	correct_rejection	NA	0
7	Triplet	149	311	635	9	0	0	498105	692	0	correct_rejection	NA	0
7	Triplet	150	312	636	0	1	1	498814	691	1	hit	449	0
7	Triplet	151	313	637	8	0	0	499522	692	0	correct_rejection	NA	0
7	Triplet	152	314	638	7	0	0	500231	691	0	correct_rejection	NA	0
7	Triplet	153	315	639	7	0	0	500939	692	0	correct_rejection	NA	0
7	Triplet	154	316	640	8	0	0	501648	692	0	correct_rejection	NA	0
7	Triplet	155	317	641	9	0	0	502356	692	0	correct_rejection	NA	0
7	Triplet	156	318	642	7	0	0	503065	692	0	correct_rejection	NA	0
7	Triplet	157	319	643	0	1	1	503774	691	1	hit	391	0
7	Triplet	158	320	644	8	0	0	504482	692	0	correct_rejection	NA	0
7	Triplet	159	321	645	9	0	0	505191	691	0	correct_rejection	NA	0
7	Triplet	160	322	646	6	0	0	505899	692	0	correct_rejection	NA	0
7	Triplet	161	323	647	5	0	0	506608	692	0	correct_rejection	NA	0
7	Triplet	162	324	648	4	0	0	507316	692	0	correct_rejection	NA	0
7	Correct	1	1	649	4	0	0	516436	692	0	correct_rejection	NA	7099
7	Correct	2	2	650	5	0	0	517145	691	0	correct_rejection	NA	0
7	Correct	3	3	651	6	0	0	517853	692	0	correct_rejection	NA	0
7	Correct	4	4	652	0	1	2	518562	691	1	hit	454	0
7	Correct	5	5	653	4	0	0	519270	692	0	correct_rejection	NA	0
7	Correct	6	6	654	5	0	0	519979	692	0	correct_rejection	NA	0
7	Correct	7	7	655	6	0	0	520687	692	0	correct_rejection	NA	0
7	Correct	8	8	656	4	0	0	521396	692	0	correct_rejection	NA	0
7	Correct	9	9	657	5	0	0	522105	691	0	correct_rejection	NA	0
7	Correct	10	10	658	6	0	0	522813	692	0	correct_rejection	NA	0
7	Correct	11	11	659	0	1	3	523522	691	1	hit	485	0
7	Correct	12	12	660	6	0	0	524230	692	0	correct_rejection	NA	0
7	Correct	13	13	661	5	0	0	524939	692	0	correct_rejection	NA	0
7	Correct	14	14	662	4	0	0	525647	692	0	correct_rejection	NA	0
7	Correct	15	15	663	6	0	0	526356	692	0	correct_rejection	NA	0
7	Correct	16	16	664	0	1	1	527065	691	1	hit	430	0
7	Correct	17	17	665	5	0	0	527773	692	0	correct_rejection	NA	0
7	Correct	18	18	666	4	0	0	528482	691	0	correct_rejection	NA	0
7	Correct	19	19	667	6	0	0	529190	692	0	correct_rejection	NA	0
7	Correct	20	20	668	5	0	0	529899	692	0	correct_rejection	NA	0
7	Correct	21	21	669	4	0	0	530607	692	0	correct_rejection	NA	0
7	Correct	22	22	670	9	0	0	531316	692	0	correct_rejection	NA	0
7	Correct	23	23	671	8	0	0	532025	691	0	correct_rejection	NA	0
7	Correct	24	24	672	7	0	0	532733	692	0	correct_rejection	NA	0
7	Correct	25	25	673	9	0	0	533442	691	0	correct_rejection	NA	0
7	Correct	26	26	674	8	0	0	534150	692	0	correct_rejection	NA	0
7	Correct	27	27	675	7	0	0	534859	692	0	correct_rejection	NA	0
7	Correct	28	28	676	0	1	2	535567	692	1	hit	422	0
7	Correct	29	29	677	9	0	0	536276	692	0	correct_rejection	NA	0
7	Correct	30	30	678	8	0	0	536985	691	0	correct_rejection	NA	0
7	Correct	31	31	679	7	0	0	537693	692	0	correct_rejection	NA	0
7	Correct	32	32	680	7	0	0	538402	691	0	correct_rejection	NA	0
7	Correct	33	33	681	8	0	0	539110	692	0	correct_rejection	NA	0
7	Correct	34	34	682	9	0	0	539819	691	0	correct_rejection	NA	0
7	Correct	35	35	683	7	0	0	540527	692	0	correct_rejection	NA	0
7	Correct	36	36	684	8	0	0	541236	692	0	correct_rejection	NA	0
7	Correct	37	37	685	9	0	0	541944	692	0	correct_rejection	NA	0
7	Correct	38	38	686	7	0	0	542653	692	0	correct_rejection	NA	0
7	Correct	39	39	687	8	0	0	543362	691	0	correct_rejection	NA	0
7	Correct	40	40	688	9	0	0	544070	692	0	correct_rejection	NA	0
7	Correct	41	41	689	0	1	4	544779	691	1	hit	461	0
7	Correct	42	42	690	4	0	0	545487	692	0	correct_rejection	NA	0
7	Correct	43	43	691	5	0	0	546196	692	0	correct_rejection	NA	0
7	Correct	44	44	692	0	1	1	546904	692	1	hit	537	0
7	Correct	45	45	693	6	0	0	547613	692	0	correct_rejection	NA	0
7	Correct	46	46	694	4	0	0	548322	691	0	correct_rejection	NA	0
7	Correct	47	47	695	5	0	0	549030	692	0	correct_rejection	NA	0
7	Correct	48	48	696	6	0	0	549739	691	0	correct_rejection	NA	0
7	Correct	49	49	697	4	0	0	550447	692	0	correct_rejection	NA	0
7	Correct	50	50	698	5	0	0	551156	692	0	correct_rejection	NA	0
7	Correct	51	51	699	6	0	0	551864	692	0	correct_rejection	NA	0
7	Correct	52	52	700	6	0	0	552573	692	0	correct_rejection	NA	0
7	Correct	53	53	701	5	0	0	553282	691	0	correct_rejection	NA	0
7	Correct	54	54	702	4	0	0	553990	692	0	correct_rejection	NA	0
7	Correct	55	55	703	6	0	0	554699	691	0	correct_rejection	NA	0
7	Correct	56	56	704	5	0	0	555407	692	0	correct_rejection	NA	0
7	Correct	57	57	705	4	0	0	556116	692	0	correct_rejection	NA	0
7	Correct	58	58	706	6	0	0	556824	692	0	correct_rejection	NA	0
7	Correct	59	59	707	5	0	0	557533	692	0	correct_rejection	NA	0
7	Correct	60	60	708	4	0	0	558242	691	0	correct_rejection	NA	0
7	Correct	61	61	709	9	0	0	558950	692	0	correct_rejection	NA	0
7	Correct	62	62	710	8	0	0	559659	691	0	correct_rejection	NA	0
7	Correct	63	63	711	7	0	0	560367	692	0	correct_rejection	NA	0
7	Correct	64	64	712	9	0	0	561076	691	0	correct_rejection	NA	0
7	Correct	65	65	713	8	0	0	561784	692	0	correct_rejection	NA	0
7	Correct	66	66	714	7	0	0	562493	692	0	correct_rejection	NA	0
7	Correct	67	67	715	9	0	0	563201	692	0	correct_rejection	NA	0
7	Correct	68	68	716	8	0	0	563910	692	0	correct_rejection	NA	0
7	Correct	69	69	717	7	0	0	564619	691	0	correct_rejection	NA	0
7	Correct	70	70	718	7	0	0	565327	692	0	correct_rejection	NA	0
7	Correct	71	71	719	8	0	0	566036	691	0	correct_rejection	NA	0
7	Correct	72	72	720	9	0	0	566744	692	0	correct_rejection	NA	0
7	Correct	73	73	721	7	0	0	567453	692	0	correct_rejection	NA	0
7	Correct	74	74	722	8	0	0	568161	692	0	correct_rejection	NA	0
7	Correct	75	75	723	9	0	0	568870	692	0	correct_rejection	NA	0
7	Correct	76	76	724	7	0	0	569579	691	0	correct_rejection	NA	0
7	Correct	77	77	725	8	0	0	570287	692	0	correct_rejection	NA	0
7	Correct	78	78	726	9	0	0	570996	691	0	correct_rejection	NA	0
7	Correct	79	79	727	4	0	0	571704	692	0	correct_rejection	NA	0
7	Correct	80	80	728	0	1	1	572413	692	1	hit	385	0
7	Correct	81	81	729	5	0	0	573121	692	0	correct_rejection	NA	0
7	Correct	82	82	730	6	0	0	573830	692	0	correct_rejection	NA	0
7	Correct	83	83	731	4	0	0	574539	691	0	correct_rejection	NA	0
7	Correct	84	84	732	5	0	0	575247	692	0	correct_rejection	NA	0
7	Correct	85	85	733	6	0	0	575956	691	0	correct_rejection	NA	0
7	Correct	86	86	734	4	0	0	576664	692	0	correct_rejection	NA	0
7	Correct	87	87	735	0	1	1	577373	692	1	hit	450	0
7	Correct	88	88	736	5	0	0	578081	692	0	correct_rejection	NA	0
7	Correct	89	89	737	6	0	0	578790	692	0	correct_rejection	NA	0
7	Correct	90	90	738	6	0	0	579499	691	0	correct_rejection	NA	0
7	Correct	91	91	739	5	0	0	580207	692	0	correct_rejection	NA	0
7	Correct	92	92	740	0	1	1	580916	691	1	hit	624	0
7	Correct	93	93	741	4	0	0	581624	692	0	correct_rejection	NA	0
7	Correct	94	94	742	6	0	0	582333	691	0	correct_rejection	NA	0
7	Correct	95	95	743	5	0	0	583041	692	0	correct_rejection	NA	0
7	Correct	96	96	744	0	1	1	583750	692	1	hit	415	0
7	Correct	97	97	745	4	0	0	584458	692	0	correct_rejection	NA	0
7	Correct	98	98	746	6	0	0	585167	692	0	correct_rejection	NA	0
7	Correct	99	99	747	5	0	0	585876	691	0	correct_rejection	NA	0
7	Correct	100	100	748	4	0	0	586584	692	0	correct_rejection	NA	0
7	Correct	101	101	749	9	0	0	587293	691	0	correct_rejection	NA	0
7	Correct	102	102	750	0	1	1	588001	692	1	hit	410	0
7	Correct	103	103	751	8	0	0	588710	692	0	correct_rejection	NA	0
7	Correct	104	104	752	7	0	0	589418	692	0	correct_rejection	NA	0
7	Correct	105	105	753	9	0	0	590127	692	0	correct_rejection	NA	0
7	Correct	106	106	754	8	0	0	590836	691	0	correct_rejection	NA	0
7	Correct	107	107	755	7	0	0	591544	692	0	correct_rejection	NA	0
7	Correct	108	108	756	9	0	0	592253	691	0	correct_rejection	NA	0
7	Correct	109	109	757	8	0	0	592961	692	0	correct_rejection	NA	0
7	Correct	110	110	758	0	1	1	593670	692	1	hit	442	0
7	Correct	111	111	759	7	0	0	594378	692	0	correct_rejection	NA	0
7	Correct	112	112	760	7	0	0	595087	692	0	correct_rejection	NA	0
7	Correct	113	113	761	8	0	0	595796	691	0	correct_rejection	NA	0
7	Correct	114	114	762	9	0	0	596504	692	0	correct_rejection	NA	0
7	Correct	115	115	763	7	0	0	597213	691	0	correct_rejection	NA	0
7	Correct	116	116	764	8	0	0	597921	692	0	correct_rejection	NA	0
7	Correct	117	117	765	9	0	0	598630	692	0	correct_rejection	NA	0
7	Correct	118	118	766	7	0	0	599338	692	0	correct_rejection	NA	0
7	Correct	119	119	767	8	0	0	600047	692	0	correct_rejection	NA	0
7	Correct	120	120	768	0	1	1	600756	691	1	hit	409	0
7	Correct	121	121	769	9	0	0	601464	692	0	correct_rejection	NA	0
7	Correct	122	122	770	4	0	0	602173	691	0	correct_rejection	NA	0
7	Correct	123	123	771	5	0	0	602881	692	0	correct_rejection	NA	0
7	Correct	124	124	772	6	0	0	603590	691	0	correct_rejection	NA	0
7	Correct	125	125	773	4	0	0	604298	692	0	correct_rejection	NA	0
7	Correct	126	126	774	5	0	0	605007	692	0	correct_rejection	NA	0
7	Correct	127	127	775	6	0	0	605715	692	0	correct_rejection	NA	0
7	Correct	128	128	776	4	0	0	606424	692	0	correct_rejection	NA	0
7	Correct	129	129	777	5	0	0	607133	691	0	correct_rejection	NA	0
7	Correct	130	130	778	0	1	1	607841	692	1	hit	469	0
7	Correct	131	131	779	6	0	0	608550	691	0	correct_rejection	NA	0
7	Correct	132	132	780	6	0	0	609258	692	0	correct_rejection	NA	0
7	Correct	133	133	781	0	1	1	609967	692	1	hit	415	0
7	Correct	134	134	782	5	0	0	610675	692	0	correct_rejection	NA	0
7	Correct	135	135	783	4	0	0	611384	692	0	correct_rejection	NA	0
7	Correct	136	136	784	6	0	0	612093	691	0	correct_rejection	NA	0
7	Correct	137	137	785	5	0	0	612801	692	0	correct_rejection	NA	0
7	Correct	138	138	786	4	0	0	613510	691	0	correct_rejection	NA	0
7	Correct	139	139	787	0	1	2	614218	692	1	hit	430	0
7	Correct	140	140	788	6	0	0	614927	692	0	correct_rejection	NA	0
7	Correct	141	141	789	5	0	0	615635	692	0	correct_rejection	NA	0
7	Correct	142	142	790	4	0	0	616344	692	0	correct_rejection	NA	0
7	Correct	143	143	791	9	0	0	617053	691	0	correct_rejection	NA	0
7	Correct	144	144	792	8	0	0	617761	692	0	correct_rejection	NA	0
7	Correct	145	145	793	7	0	0	618470	691	0	correct_rejection	NA	0
7	Correct	146	146	794	9	0	0	619178	692	0	correct_rejection	NA	0
7	Correct	147	147	795	8	0	0	619887	691	0	correct_rejection	NA	0
7	Correct	148	148	796	7	0	0	620595	692	0	correct_rejection	NA	0
7	Correct	149	149	797	9	0	0	621304	692	0	correct_rejection	NA	0
7	Correct	150	150	798	0	1	1	622013	691	1	hit	480	0
7	Correct	151	151	799	8	0	0	622721	692	0	correct_rejection	NA	0
7	Correct	152	152	800	7	0	0	623430	691	0	correct_rejection	NA	0
7	Correct	153	153	801	7	0	0	624138	692	0	correct_rejection	NA	0
7	Correct	154	154	802	8	0	0	624847	691	0	correct_rejection	NA	0
7	Correct	155	155	803	9	0	0	625555	692	0	correct_rejection	NA	0
7	Correct	156	156	804	0	1	2	626264	692	1	hit	452	0
7	Correct	157	157	805	7	0	0	626972	692	0	correct_rejection	NA	0
7	Correct	158	158	806	8	0	0	627681	692	0	correct_rejection	NA	0
7	Correct	159	159	807	9	0	0	628390	691	0	correct_rejection	NA	0
7	Correct	160	160	808	7	0	0	629098	692	0	correct_rejection	NA	0
7	Correct	161	161	809	8	0	0	629807	691	0	correct_rejection	NA	0
7	Correct	162	162	810	9	0	0	630515	692	0	correct_rejection	NA	0
trigger nr 622 at 632299
trigger nr 629 at 711998
7	Nonet	1	649	811	6	0	0	719853	692	0	correct_rejection	NA	7809
7	Nonet	2	650	812	5	0	0	720562	691	0	correct_rejection	NA	0
7	Nonet	3	651	813	4	0	0	721270	692	0	correct_rejection	NA	0
7	Nonet	4	652	814	6	0	0	721979	691	0	correct_rejection	NA	0
7	Nonet	5	653	815	5	0	0	722687	692	0	correct_rejection	NA	0
7	Nonet	6	654	816	4	0	0	723396	692	0	correct_rejection	NA	0
7	Nonet	7	655	817	6	0	0	724104	692	0	correct_rejection	NA	0
7	Nonet	8	656	818	5	0	0	724813	692	0	correct_rejection	NA	0
7	Nonet	9	657	819	4	0	0	725522	691	0	correct_rejection	NA	0
7	Nonet	10	658	820	9	0	0	726230	692	0	correct_rejection	NA	0
7	Nonet	11	659	821	8	0	0	726939	691	0	correct_rejection	NA	0
7	Nonet	12	660	822	7	0	0	727647	692	0	correct_rejection	NA	0
7	Nonet	13	661	823	9	0	0	728356	692	0	correct_rejection	NA	0
7	Nonet	14	662	824	8	0	0	729064	692	0	correct_rejection	NA	0
7	Nonet	15	663	825	7	0	0	729773	692	0	correct_rejection	NA	0
7	Nonet	16	664	826	0	1	2	730482	691	1	hit	393	0
7	Nonet	17	665	827	9	0	0	731190	692	0	correct_rejection	NA	0
7	Nonet	18	666	828	8	0	0	731899	691	0	correct_rejection	NA	0
7	Nonet	19	667	829	7	0	0	732607	692	0	correct_rejection	NA	0
7	Nonet	20	668	830	0	1	3	733316	691	1	hit	288	0
7	Nonet	21	669	831	4	0	0	734024	692	0	correct_rejection	NA	0
7	Nonet	22	670	832	5	0	0	734733	692	0	correct_rejection	NA	0
7	Nonet	23	671	833	0	1	1	735441	692	1	hit	364	0
7	Nonet	24	672	834	6	0	0	736150	692	0	correct_rejection	NA	0
7	Nonet	25	673	835	4	0	0	736859	691	0	correct_rejection	NA	0
7	Nonet	26	674	836	5	0	0	737567	692	0	correct_rejection	NA	0
7	Nonet	27	675	837	6	0	0	738276	691	0	correct_rejection	NA	0
7	Nonet	28	676	838	4	0	0	738984	692	0	correct_rejection	NA	0
7	Nonet	29	677	839	5	0	0	739693	692	0	correct_rejection	NA	0
7	Nonet	30	678	840	0	1	1	740401	692	1	hit	360	0
7	Nonet	31	679	841	6	0	0	741110	692	0	correct_rejection	NA	0
7	Nonet	32	680	842	4	0	0	741819	691	0	correct_rejection	NA	0
7	Nonet	33	681	843	5	0	0	742527	692	0	correct_rejection	NA	0
7	Nonet	34	682	844	6	0	0	743236	691	0	correct_rejection	NA	0
7	Nonet	35	683	845	4	0	0	743944	692	0	correct_rejection	NA	0
7	Nonet	36	684	846	5	0	0	744653	692	0	correct_rejection	NA	0
7	Nonet	37	685	847	6	0	0	745361	692	0	correct_rejection	NA	0
7	Nonet	38	686	848	4	0	0	746070	692	0	correct_rejection	NA	0
7	Nonet	39	687	849	5	0	0	746779	691	0	correct_rejection	NA	0
7	Nonet	40	688	850	6	0	0	747487	692	0	correct_rejection	NA	0
7	Nonet	41	689	851	6	0	0	748196	691	0	correct_rejection	NA	0
7	Nonet	42	690	852	5	0	0	748904	692	0	correct_rejection	NA	0
7	Nonet	43	691	853	4	0	0	749613	692	0	correct_rejection	NA	0
7	Nonet	44	692	854	6	0	0	750321	692	0	correct_rejection	NA	0
7	Nonet	45	693	855	5	0	0	751030	692	0	correct_rejection	NA	0
7	Nonet	46	694	856	4	0	0	751739	691	0	correct_rejection	NA	0
7	Nonet	47	695	857	6	0	0	752447	692	0	correct_rejection	NA	0
7	Nonet	48	696	858	5	0	0	753156	691	0	correct_rejection	NA	0
7	Nonet	49	697	859	0	1	1	753864	692	1	hit	375	0
7	Nonet	50	698	860	4	0	0	754573	691	0	correct_rejection	NA	0
7	Nonet	51	699	861	6	0	0	755281	692	0	correct_rejection	NA	0
7	Nonet	52	700	862	5	0	0	755990	692	0	correct_rejection	NA	0
7	Nonet	53	701	863	4	0	0	756698	692	0	correct_rejection	NA	0
7	Nonet	54	702	864	6	0	0	757407	692	0	correct_rejection	NA	0
7	Nonet	55	703	865	0	1	1	758116	691	1	hit	528	0
7	Nonet	56	704	866	5	0	0	758824	692	0	correct_rejection	NA	0
7	Nonet	57	705	867	4	0	0	759533	691	0	correct_rejection	NA	0
7	Nonet	58	706	868	0	1	2	760241	692	1	hit	376	0
7	Nonet	59	707	869	6	0	0	760950	692	0	correct_rejection	NA	0
7	Nonet	60	708	870	5	0	0	761658	692	0	correct_rejection	NA	0
7	Nonet	61	709	871	4	0	0	762367	692	0	correct_rejection	NA	0
7	Nonet	62	710	872	4	0	0	763076	691	0	correct_rejection	NA	0
7	Nonet	63	711	873	5	0	0	763784	692	0	correct_rejection	NA	0
7	Nonet	64	712	874	6	0	0	764493	691	0	correct_rejection	NA	0
7	Nonet	65	713	875	4	0	0	765201	692	0	correct_rejection	NA	0
7	Nonet	66	714	876	5	0	0	765910	692	0	correct_rejection	NA	0
7	Nonet	67	715	877	6	0	0	766618	692	0	correct_rejection	NA	0
7	Nonet	68	716	878	4	0	0	767327	692	0	correct_rejection	NA	0
7	Nonet	69	717	879	5	0	0	768036	691	0	correct_rejection	NA	0
7	Nonet	70	718	880	6	0	0	768744	692	0	correct_rejection	NA	0
7	Nonet	71	719	881	7	0	0	769453	691	0	correct_rejection	NA	0
7	Nonet	72	720	882	8	0	0	770161	692	0	correct_rejection	NA	0
7	Nonet	73	721	883	9	0	0	770870	692	0	correct_rejection	NA	0
7	Nonet	74	722	884	0	1	2	771578	692	1	hit	442	0
7	Nonet	75	723	885	7	0	0	772287	692	0	correct_rejection	NA	0
7	Nonet	76	724	886	8	0	0	772996	691	0	correct_rejection	NA	0
7	Nonet	77	725	887	0	1	1	773704	692	1	hit	432	0
7	Nonet	78	726	888	9	0	0	774413	691	0	correct_rejection	NA	0
7	Nonet	79	727	889	7	0	0	775121	692	0	correct_rejection	NA	0
7	Nonet	80	728	890	8	0	0	775830	691	0	correct_rejection	NA	0
7	Nonet	81	729	891	9	0	0	776538	692	0	correct_rejection	NA	0
7	Nonet	82	730	892	6	0	0	777247	692	0	correct_rejection	NA	0
7	Nonet	83	731	893	5	0	0	777955	692	0	correct_rejection	NA	0
7	Nonet	84	732	894	4	0	0	778664	692	0	correct_rejection	NA	0
7	Nonet	85	733	895	6	0	0	779373	691	0	correct_rejection	NA	0
7	Nonet	86	734	896	5	0	0	780081	692	0	correct_rejection	NA	0
7	Nonet	87	735	897	4	0	0	780790	691	0	correct_rejection	NA	0
7	Nonet	88	736	898	0	1	2	781498	692	1	hit	407	0
7	Nonet	89	737	899	6	0	0	782207	692	0	correct_rejection	NA	0
7	Nonet	90	738	900	5	0	0	782915	692	0	correct_rejection	NA	0
7	Nonet	91	739	901	4	0	0	783624	692	0	correct_rejection	NA	0
7	Nonet	92	740	902	7	0	0	784333	691	0	correct_rejection	NA	0
7	Nonet	93	741	903	8	0	0	785041	692	0	correct_rejection	NA	0
7	Nonet	94	742	904	9	0	0	785750	691	0	correct_rejection	NA	0
7	Nonet	95	743	905	7	0	0	786458	692	0	correct_rejection	NA	0
7	Nonet	96	744	906	8	0	0	787167	692	0	correct_rejection	NA	0
7	Nonet	97	745	907	9	0	0	787875	692	0	correct_rejection	NA	0
7	Nonet	98	746	908	7	0	0	788584	692	0	correct_rejection	NA	0
7	Nonet	99	747	909	0	1	1	789293	691	1	hit	340	0
7	Nonet	100	748	910	8	0	0	790001	692	0	correct_rejection	NA	0
7	Nonet	101	749	911	9	0	0	790710	691	0	correct_rejection	NA	0
7	Nonet	102	750	912	4	0	0	791418	692	0	correct_rejection	NA	0
7	Nonet	103	751	913	0	1	1	792127	692	1	hit	475	0
7	Nonet	104	752	914	5	0	0	792835	692	0	correct_rejection	NA	0
7	Nonet	105	753	915	6	0	0	793544	692	0	correct_rejection	NA	0
7	Nonet	106	754	916	0	1	2	794253	691	1	hit	394	0
7	Nonet	107	755	917	4	0	0	794961	692	0	correct_rejection	NA	0
7	Nonet	108	756	918	5	0	0	795670	691	0	correct_rejection	NA	0
7	Nonet	109	757	919	6	0	0	796378	692	0	correct_rejection	NA	0
7	Nonet	110	758	920	4	0	0	797087	691	0	correct_rejection	NA	0
7	Nonet	111	759	921	5	0	0	797795	692	0	correct_rejection	NA	0
7	Nonet	112	760	922	6	0	0	798504	692	0	correct_rejection	NA	0
7	Nonet	113	761	923	9	0	0	799212	692	0	correct_rejection	NA	0
7	Nonet	114	762	924	8	0	0	799921	692	0	correct_rejection	NA	0
7	Nonet	115	763	925	7	0	0	800630	691	0	correct_rejection	NA	0
7	Nonet	116	764	926	9	0	0	801338	692	0	correct_rejection	NA	0
7	Nonet	117	765	927	0	1	1	802047	691	1	hit	473	0
7	Nonet	118	766	928	8	0	0	802755	692	0	correct_rejection	NA	0
7	Nonet	119	767	929	7	0	0	803464	692	0	correct_rejection	NA	0
7	Nonet	120	768	930	9	0	0	804172	692	0	correct_rejection	NA	0
7	Nonet	121	769	931	8	0	0	804881	692	0	correct_rejection	NA	0
7	Nonet	122	770	932	0	1	1	805590	691	1	hit	455	0
7	Nonet	123	771	933	7	0	0	806298	692	0	correct_rejection	NA	0
7	Nonet	124	772	934	9	0	0	807007	691	0	correct_rejection	NA	0
7	Nonet	125	773	935	8	0	0	807715	692	0	correct_rejection	NA	0
7	Nonet	126	774	936	7	0	0	808424	692	0	correct_rejection	NA	0
7	Nonet	127	775	937	0	1	2	809132	692	1	hit	534	0
7	Nonet	128	776	938	9	0	0	809841	692	0	correct_rejection	NA	0
7	Nonet	129	777	939	8	0	0	810550	691	0	correct_rejection	NA	0
7	Nonet	130	778	940	0	1	1	811258	692	1	hit	381	0
7	Nonet	131	779	941	7	0	0	811967	691	0	correct_rejection	NA	0
7	Nonet	132	780	942	9	0	0	812675	692	0	correct_rejection	NA	0
7	Nonet	133	781	943	8	0	0	813384	691	0	correct_rejection	NA	0
7	Nonet	134	782	944	7	0	0	814092	692	0	correct_rejection	NA	0
7	Nonet	135	783	945	7	0	0	814801	692	0	correct_rejection	NA	0
7	Nonet	136	784	946	8	0	0	815510	691	0	correct_rejection	NA	0
7	Nonet	137	785	947	9	0	0	816218	692	0	correct_rejection	NA	0
7	Nonet	138	786	948	7	0	0	816927	691	0	correct_rejection	NA	0
7	Nonet	139	787	949	8	0	0	817635	692	0	correct_rejection	NA	0
7	Nonet	140	788	950	9	0	0	818344	691	0	correct_rejection	NA	0
7	Nonet	141	789	951	7	0	0	819052	692	0	correct_rejection	NA	0
7	Nonet	142	790	952	8	0	0	819761	692	0	correct_rejection	NA	0
7	Nonet	143	791	953	9	0	0	820469	692	0	correct_rejection	NA	0
7	Nonet	144	792	954	0	1	3	821178	692	1	hit	561	0
7	Nonet	145	793	955	7	0	0	821887	691	0	correct_rejection	NA	0
7	Nonet	146	794	956	8	0	0	822595	692	0	correct_rejection	NA	0
7	Nonet	147	795	957	9	0	0	823304	691	0	correct_rejection	NA	0
7	Nonet	148	796	958	7	0	0	824012	692	0	correct_rejection	NA	0
7	Nonet	149	797	959	8	0	0	824721	692	0	correct_rejection	NA	0
7	Nonet	150	798	960	9	0	0	825429	692	0	correct_rejection	NA	0
7	Nonet	151	799	961	7	0	0	826138	692	0	correct_rejection	NA	0
7	Nonet	152	800	962	8	0	0	826847	691	0	correct_rejection	NA	0
7	Nonet	153	801	963	9	0	0	827555	692	0	correct_rejection	NA	0
7	Nonet	154	802	964	9	0	0	828264	691	0	correct_rejection	NA	0
7	Nonet	155	803	965	8	0	0	828972	692	0	correct_rejection	NA	0
7	Nonet	156	804	966	7	0	0	829681	692	0	correct_rejection	NA	0
7	Nonet	157	805	967	9	0	0	830389	692	0	correct_rejection	NA	0
7	Nonet	158	806	968	8	0	0	831098	692	0	correct_rejection	NA	0
7	Nonet	159	807	969	7	0	0	831807	691	0	correct_rejection	NA	0
7	Nonet	160	808	970	9	0	0	832515	692	0	correct_rejection	NA	0
7	Nonet	161	809	971	8	0	0	833224	691	0	correct_rejection	NA	0
7	Nonet	162	810	972	7	0	0	833932	692	0	correct_rejection	NA	0
7	Triplet	1	1	973	9	0	0	843860	692	0	correct_rejection	NA	7829
7	Triplet	2	2	974	8	0	0	844569	692	0	correct_rejection	NA	0
7	Triplet	3	3	975	7	0	0	845278	691	0	correct_rejection	NA	0
7	Triplet	4	4	976	6	0	0	845986	692	0	correct_rejection	NA	0
7	Triplet	5	5	977	5	0	0	846695	691	0	correct_rejection	NA	0
7	Triplet	6	6	978	4	0	0	847403	692	0	correct_rejection	NA	0
7	Triplet	7	7	979	7	0	0	848112	692	0	correct_rejection	NA	0
7	Triplet	8	8	980	8	0	0	848820	692	0	correct_rejection	NA	0
7	Triplet	9	9	981	9	0	0	849529	692	0	correct_rejection	NA	0
7	Triplet	10	10	982	7	0	0	850238	691	0	correct_rejection	NA	0
7	Triplet	11	11	983	8	0	0	850946	692	0	correct_rejection	NA	0
7	Triplet	12	12	984	9	0	0	851655	691	0	correct_rejection	NA	0
7	Triplet	13	13	985	0	1	2	852363	692	1	hit	381	0
7	Triplet	14	14	986	4	0	0	853072	692	0	correct_rejection	NA	0
7	Triplet	15	15	987	5	0	0	853780	692	0	correct_rejection	NA	0
7	Triplet	16	16	988	0	1	1	854489	692	1	hit	429	0
7	Triplet	17	17	989	6	0	0	855198	691	0	correct_rejection	NA	0
7	Triplet	18	18	990	6	0	0	855906	692	0	correct_rejection	NA	0
7	Triplet	19	19	991	0	1	1	856615	691	1	hit	476	0
7	Triplet	20	20	992	5	0	0	857323	692	0	correct_rejection	NA	0
7	Triplet	21	21	993	4	0	0	858032	692	0	correct_rejection	NA	0
7	Triplet	22	22	994	4	0	0	858740	692	0	correct_rejection	NA	0
7	Triplet	23	23	995	5	0	0	859449	692	0	correct_rejection	NA	0
7	Triplet	24	24	996	6	0	0	860158	691	0	correct_rejection	NA	0
7	Triplet	25	25	997	0	1	2	860866	692	1	hit	452	0
7	Triplet	26	26	998	7	0	0	861575	691	0	correct_rejection	NA	0
7	Triplet	27	27	999	8	0	0	862283	692	0	correct_rejection	NA	0
7	Triplet	28	28	1000	9	0	0	862992	691	0	correct_rejection	NA	0
7	Triplet	29	29	1001	9	0	0	863700	692	0	correct_rejection	NA	0
7	Triplet	30	30	1002	8	0	0	864409	692	0	correct_rejection	NA	0
7	Triplet	31	31	1003	7	0	0	865117	692	0	correct_rejection	NA	0
7	Triplet	32	32	1004	7	0	0	865826	692	0	correct_rejection	NA	0
7	Triplet	33	33	1005	8	0	0	866535	691	0	correct_rejection	NA	0
7	Triplet	34	34	1006	9	0	0	867243	692	0	correct_rejection	NA	0
7	Triplet	35	35	1007	6	0	0	867952	691	0	correct_rejection	NA	0
7	Triplet	36	36	1008	5	0	0	868660	692	0	correct_rejection	NA	0
7	Triplet	37	37	1009	4	0	0	869369	692	0	correct_rejection	NA	0
7	Triplet	38	38	1010	6	0	0	870077	692	0	correct_rejection	NA	0
7	Triplet	39	39	1011	5	0	0	870786	692	0	correct_rejection	NA	0
7	Triplet	40	40	1012	4	0	0	871495	691	0	correct_rejection	NA	0
7	Triplet	41	41	1013	9	0	0	872203	692	0	correct_rejection	NA	0
7	Triplet	42	42	1014	8	0	0	872912	691	0	correct_rejection	NA	0
7	Triplet	43	43	1015	7	0	0	873620	692	0	correct_rejection	NA	0
7	Triplet	44	44	1016	9	0	0	874329	692	0	correct_rejection	NA	0
7	Triplet	45	45	1017	8	0	0	875037	692	0	correct_rejection	NA	0
7	Triplet	46	46	1018	7	0	0	875746	692	0	correct_rejection	NA	0
7	Triplet	47	47	1019	0	1	2	876455	691	1	hit	358	0
7	Triplet	48	48	1020	4	0	0	877163	692	0	correct_rejection	NA	0
7	Triplet	49	49	1021	5	0	0	877872	691	0	correct_rejection	NA	0
7	Triplet	50	50	1022	0	1	1	878580	692	1	hit	409	0
7	Triplet	51	51	1023	6	0	0	879289	692	0	correct_rejection	NA	0
7	Triplet	52	52	1024	4	0	0	879997	692	0	correct_rejection	NA	0
7	Triplet	53	53	1025	5	0	0	880706	692	0	correct_rejection	NA	0
7	Triplet	54	54	1026	6	0	0	881415	691	0	correct_rejection	NA	0
7	Triplet	55	55	1027	9	0	0	882123	692	0	correct_rejection	NA	0
7	Triplet	56	56	1028	8	0	0	882832	691	0	correct_rejection	NA	0
7	Triplet	57	57	1029	7	0	0	883540	692	0	correct_rejection	NA	0
7	Triplet	58	58	1030	4	0	0	884249	691	0	correct_rejection	NA	0
7	Triplet	59	59	1031	5	0	0	884957	692	0	correct_rejection	NA	0
7	Triplet	60	60	1032	6	0	0	885666	692	0	correct_rejection	NA	0
7	Triplet	61	61	1033	0	1	2	886374	692	1	hit	513	0
7	Triplet	62	62	1034	6	0	0	887083	692	0	correct_rejection	NA	0
7	Triplet	63	63	1035	5	0	0	887792	691	0	correct_rejection	NA	0
7	Triplet	64	64	1036	0	1	1	888500	692	1	hit	616	0
7	Triplet	65	65	1037	4	0	0	889209	691	0	correct_rejection	NA	0
7	Triplet	66	66	1038	6	0	0	889917	692	0	correct_rejection	NA	0
7	Triplet	67	67	1039	5	0	0	890626	692	0	correct_rejection	NA	0
7	Triplet	68	68	1040	4	0	0	891334	692	0	correct_rejection	NA	0
7	Triplet	69	69	1041	0	1	2	892043	692	1	hit	479	0
7	Triplet	70	70	1042	7	0	0	892752	691	0	correct_rejection	NA	0
7	Triplet	71	71	1043	8	0	0	893460	692	0	correct_rejection	NA	0
7	Triplet	72	72	1044	0	1	1	894169	691	1	hit	439	0
7	Triplet	73	73	1045	9	0	0	894877	692	0	correct_rejection	NA	0
7	Triplet	74	74	1046	4	0	0	895586	692	0	correct_rejection	NA	0
7	Triplet	75	75	1047	0	1	1	896294	692	1	hit	348	0
7	Triplet	76	76	1048	5	0	0	897003	692	0	correct_rejection	NA	0
7	Triplet	77	77	1049	6	0	0	897712	691	0	correct_rejection	NA	0
7	Triplet	78	78	1050	9	0	0	898420	692	0	correct_rejection	NA	0
7	Triplet	79	79	1051	8	0	0	899129	691	0	correct_rejection	NA	0
7	Triplet	80	80	1052	7	0	0	899837	692	0	correct_rejection	NA	0
7	Triplet	81	81	1053	7	0	0	900546	692	0	correct_rejection	NA	0
7	Triplet	82	82	1054	8	0	0	901254	692	0	correct_rejection	NA	0
7	Triplet	83	83	1055	9	0	0	901963	692	0	correct_rejection	NA	0
7	Triplet	84	84	1056	0	1	2	902672	691	1	hit	410	0
7	Triplet	85	85	1057	9	0	0	903380	692	0	correct_rejection	NA	0
7	Triplet	86	86	1058	8	0	0	904089	691	0	correct_rejection	NA	0
7	Triplet	87	87	1059	7	0	0	904797	692	0	correct_rejection	NA	0
7	Triplet	88	88	1060	6	0	0	905506	691	0	correct_rejection	NA	0
7	Triplet	89	89	1061	5	0	0	906214	692	0	correct_rejection	NA	0
7	Triplet	90	90	1062	4	0	0	906923	692	0	correct_rejection	NA	0
7	Triplet	91	91	1063	4	0	0	907631	692	0	correct_rejection	NA	0
7	Triplet	92	92	1064	5	0	0	908340	692	0	correct_rejection	NA	0
7	Triplet	93	93	1065	6	0	0	909049	691	0	correct_rejection	NA	0
7	Triplet	94	94	1066	4	0	0	909757	692	0	correct_rejection	NA	0
7	Triplet	95	95	1067	0	1	1	910466	691	0	miss	NA	0
7	Triplet	96	96	1068	5	0	0	911174	692	1	false_alarm	78	0
7	Triplet	97	97	1069	6	0	0	911883	692	0	correct_rejection	NA	0
7	Triplet	98	98	1070	7	0	0	912591	692	0	correct_rejection	NA	0
7	Triplet	99	99	1071	8	0	0	913300	692	0	correct_rejection	NA	0
7	Triplet	100	100	1072	9	0	0	914009	691	0	correct_rejection	NA	0
7	Triplet	101	101	1073	7	0	0	914717	692	0	correct_rejection	NA	0
7	Triplet	102	102	1074	8	0	0	915426	691	0	correct_rejection	NA	0
7	Triplet	103	103	1075	9	0	0	916134	692	0	correct_rejection	NA	0
7	Triplet	104	104	1076	6	0	0	916843	692	0	correct_rejection	NA	0
7	Triplet	105	105	1077	5	0	0	917551	692	0	correct_rejection	NA	0
7	Triplet	106	106	1078	4	0	0	918260	692	0	correct_rejection	NA	0
7	Triplet	107	107	1079	9	0	0	918969	691	0	correct_rejection	NA	0
7	Triplet	108	108	1080	8	0	0	919677	692	0	correct_rejection	NA	0
7	Triplet	109	109	1081	0	1	1	920386	691	1	hit	387	0
7	Triplet	110	110	1082	7	0	0	921094	692	0	correct_rejection	NA	0
7	Triplet	111	111	1083	7	0	0	921803	692	0	correct_rejection	NA	0
7	Triplet	112	112	1084	8	0	0	922511	692	0	correct_rejection	NA	0
7	Triplet	113	113	1085	9	0	0	923220	692	0	correct_rejection	NA	0
7	Triplet	114	114	1086	4	0	0	923929	691	0	correct_rejection	NA	0
7	Triplet	115	115	1087	5	0	0	924637	692	0	correct_rejection	NA	0
7	Triplet	116	116	1088	6	0	0	925346	691	0	correct_rejection	NA	0
7	Triplet	117	117	1089	4	0	0	926054	692	0	correct_rejection	NA	0
7	Triplet	118	118	1090	5	0	0	926763	691	0	correct_rejection	NA	0
7	Triplet	119	119	1091	6	0	0	927471	692	0	correct_rejection	NA	0
7	Triplet	120	120	1092	0	1	2	928180	692	1	hit	423	0
7	Triplet	121	121	1093	9	0	0	928888	692	0	correct_rejection	NA	0
7	Triplet	122	122	1094	8	0	0	929597	692	0	correct_rejection	NA	0
7	Triplet	123	123	1095	7	0	0	930306	691	0	correct_rejection	NA	0
7	Triplet	124	124	1096	4	0	0	931014	692	0	correct_rejection	NA	0
7	Triplet	125	125	1097	5	0	0	931723	691	0	correct_rejection	NA	0
7	Triplet	126	126	1098	6	0	0	932431	692	0	correct_rejection	NA	0
7	Triplet	127	127	1099	7	0	0	933140	692	0	correct_rejection	NA	0
7	Triplet	128	128	1100	8	0	0	933848	692	0	correct_rejection	NA	0
7	Triplet	129	129	1101	0	1	1	934557	692	1	hit	413	0
7	Triplet	130	130	1102	9	0	0	935266	691	0	correct_rejection	NA	0
7	Triplet	131	131	1103	6	0	0	935974	692	0	correct_rejection	NA	0
7	Triplet	132	132	1104	5	0	0	936683	691	0	correct_rejection	NA	0
7	Triplet	133	133	1105	4	0	0	937391	692	0	correct_rejection	NA	0
7	Triplet	134	134	1106	0	1	2	938100	692	1	hit	442	0
7	Triplet	135	135	1107	4	0	0	938808	692	0	correct_rejection	NA	0
7	Triplet	136	136	1108	5	0	0	939517	692	0	correct_rejection	NA	0
7	Triplet	137	137	1109	6	0	0	940226	691	0	correct_rejection	NA	0
7	Triplet	138	138	1110	6	0	0	940934	692	0	correct_rejection	NA	0
7	Triplet	139	139	1111	5	0	0	941643	691	0	correct_rejection	NA	0
7	Triplet	140	140	1112	4	0	0	942351	692	0	correct_rejection	NA	0
7	Triplet	141	141	1113	9	0	0	943060	692	0	correct_rejection	NA	0
7	Triplet	142	142	1114	8	0	0	943768	692	0	correct_rejection	NA	0
7	Triplet	143	143	1115	7	0	0	944477	692	0	correct_rejection	NA	0
7	Triplet	144	144	1116	7	0	0	945186	691	0	correct_rejection	NA	0
7	Triplet	145	145	1117	8	0	0	945894	692	0	correct_rejection	NA	0
7	Triplet	146	146	1118	9	0	0	946603	691	0	correct_rejection	NA	0
7	Triplet	147	147	1119	7	0	0	947311	692	0	correct_rejection	NA	0
7	Triplet	148	148	1120	8	0	0	948020	691	0	correct_rejection	NA	0
7	Triplet	149	149	1121	9	0	0	948728	692	0	correct_rejection	NA	0
7	Triplet	150	150	1122	9	0	0	949437	692	0	correct_rejection	NA	0
7	Triplet	151	151	1123	0	1	1	950145	692	1	hit	355	0
7	Triplet	152	152	1124	8	0	0	950854	692	0	correct_rejection	NA	0
7	Triplet	153	153	1125	7	0	0	951563	691	0	correct_rejection	NA	0
7	Triplet	154	154	1126	9	0	0	952271	692	0	correct_rejection	NA	0
7	Triplet	155	155	1127	8	0	0	952980	691	0	correct_rejection	NA	0
7	Triplet	156	156	1128	7	0	0	953688	692	0	correct_rejection	NA	0
7	Triplet	157	157	1129	6	0	0	954397	692	0	correct_rejection	NA	0
7	Triplet	158	158	1130	5	0	0	955105	692	0	correct_rejection	NA	0
7	Triplet	159	159	1131	4	0	0	955814	692	0	correct_rejection	NA	0
7	Triplet	160	160	1132	6	0	0	956523	691	0	correct_rejection	NA	0
7	Triplet	161	161	1133	5	0	0	957231	692	0	correct_rejection	NA	0
7	Triplet	162	162	1134	4	0	0	957940	691	0	correct_rejection	NA	0
7	Single	1	163	1135	8	0	0	967026	692	0	correct_rejection	NA	6999
7	Single	2	164	1136	6	0	0	967735	691	0	correct_rejection	NA	0
7	Single	3	165	1137	7	0	0	968443	692	0	correct_rejection	NA	0
7	Single	4	166	1138	5	0	0	969152	691	0	correct_rejection	NA	0
7	Single	5	167	1139	0	1	1	969860	692	1	hit	329	0
7	Single	6	168	1140	5	0	0	970569	692	0	correct_rejection	NA	0
7	Single	7	169	1141	7	0	0	971277	692	0	correct_rejection	NA	0
7	Single	8	170	1142	6	0	0	971986	692	0	correct_rejection	NA	0
7	Single	9	171	1143	0	1	1	972695	691	1	hit	401	0
7	Single	10	172	1144	8	0	0	973403	692	0	correct_rejection	NA	0
7	Single	11	173	1145	7	0	0	974112	691	0	correct_rejection	NA	0
7	Single	12	174	1146	7	0	0	974820	692	0	correct_rejection	NA	0
7	Single	13	175	1147	8	0	0	975529	692	0	correct_rejection	NA	0
7	Single	14	176	1148	8	0	0	976237	692	0	correct_rejection	NA	0
7	Single	15	177	1149	4	0	0	976946	692	0	correct_rejection	NA	0
7	Single	16	178	1150	7	0	0	977655	691	0	correct_rejection	NA	0
7	Single	17	179	1151	0	1	1	978363	692	1	hit	444	0
7	Single	18	180	1152	9	0	0	979072	691	0	correct_rejection	NA	0
7	Single	19	181	1153	6	0	0	979780	692	0	correct_rejection	NA	0
7	Single	20	182	1154	5	0	0	980489	691	0	correct_rejection	NA	0
7	Single	21	183	1155	9	0	0	981197	692	0	correct_rejection	NA	0
7	Single	22	184	1156	7	0	0	981906	692	0	correct_rejection	NA	0
7	Single	23	185	1157	4	0	0	982614	692	0	correct_rejection	NA	0
7	Single	24	186	1158	4	0	0	983323	692	0	correct_rejection	NA	0
7	Single	25	187	1159	0	1	1	984032	691	1	hit	473	0
7	Single	26	188	1160	6	0	0	984740	692	0	correct_rejection	NA	0
7	Single	27	189	1161	9	0	0	985449	691	0	correct_rejection	NA	0
7	Single	28	190	1162	9	0	0	986157	692	0	correct_rejection	NA	0
7	Single	29	191	1163	5	0	0	986866	692	0	correct_rejection	NA	0
7	Single	30	192	1164	6	0	0	987574	692	0	correct_rejection	NA	0
7	Single	31	193	1165	6	0	0	988283	692	0	correct_rejection	NA	0
7	Single	32	194	1166	0	1	1	988992	691	1	hit	560	0
7	Single	33	195	1167	4	0	0	989700	692	0	correct_rejection	NA	0
7	Single	34	196	1168	8	0	0	990409	691	0	correct_rejection	NA	0
7	Single	35	197	1169	5	0	0	991117	692	0	correct_rejection	NA	0
7	Single	36	198	1170	4	0	0	991826	692	0	correct_rejection	NA	0
7	Single	37	199	1171	9	0	0	992534	692	0	correct_rejection	NA	0
7	Single	38	200	1172	4	0	0	993243	692	0	correct_rejection	NA	0
7	Single	39	201	1173	5	0	0	993952	691	0	correct_rejection	NA	0
7	Single	40	202	1174	8	0	0	994660	692	0	correct_rejection	NA	0
7	Single	41	203	1175	9	0	0	995369	691	0	correct_rejection	NA	0
7	Single	42	204	1176	9	0	0	996077	692	0	correct_rejection	NA	0
7	Single	43	205	1177	7	0	0	996786	692	0	correct_rejection	NA	0
7	Single	44	206	1178	6	0	0	997494	692	0	correct_rejection	NA	0
7	Single	45	207	1179	9	0	0	998203	692	0	correct_rejection	NA	0
7	Single	46	208	1180	6	0	0	998912	691	0	correct_rejection	NA	0
7	Single	47	209	1181	8	0	0	999620	692	0	correct_rejection	NA	0
7	Single	48	210	1182	0	1	1	1000329	691	1	hit	412	0
7	Single	49	211	1183	4	0	0	1001037	692	0	correct_rejection	NA	0
7	Single	50	212	1184	8	0	0	1001746	691	0	correct_rejection	NA	0
7	Single	51	213	1185	8	0	0	1002454	692	0	correct_rejection	NA	0
7	Single	52	214	1186	0	1	1	1003163	692	1	hit	433	0
7	Single	53	215	1187	5	0	0	1003871	692	0	correct_rejection	NA	0
7	Single	54	216	1188	7	0	0	1004580	692	0	correct_rejection	NA	0
7	Single	55	217	1189	7	0	0	1005289	691	0	correct_rejection	NA	0
7	Single	56	218	1190	5	0	0	1005997	692	0	correct_rejection	NA	0
7	Single	57	219	1191	6	0	0	1006706	691	0	correct_rejection	NA	0
7	Single	58	220	1192	4	0	0	1007414	692	0	correct_rejection	NA	0
7	Single	59	221	1193	7	0	0	1008123	692	0	correct_rejection	NA	0
7	Single	60	222	1194	0	1	1	1008831	692	1	hit	458	0
7	Single	61	223	1195	4	0	0	1009540	692	0	correct_rejection	NA	0
7	Single	62	224	1196	6	0	0	1010249	691	0	correct_rejection	NA	0
7	Single	63	225	1197	5	0	0	1010957	692	0	correct_rejection	NA	0
7	Single	64	226	1198	5	0	0	1011666	691	0	correct_rejection	NA	0
7	Single	65	227	1199	8	0	0	1012374	692	0	correct_rejection	NA	0
7	Single	66	228	1200	0	1	1	1013083	692	1	hit	365	0
7	Single	67	229	1201	7	0	0	1013791	692	0	correct_rejection	NA	0
7	Single	68	230	1202	8	0	0	1014500	692	0	correct_rejection	NA	0
7	Single	69	231	1203	9	0	0	1015209	691	0	correct_rejection	NA	0
7	Single	70	232	1204	0	1	1	1015917	692	1	hit	541	0
7	Single	71	233	1205	4	0	0	1016626	691	0	correct_rejection	NA	0
7	Single	72	234	1206	9	0	0	1017334	692	0	correct_rejection	NA	0
7	Single	73	235	1207	5	0	0	1018043	692	0	correct_rejection	NA	0
7	Single	74	236	1208	4	0	0	1018751	692	0	correct_rejection	NA	0
7	Single	75	237	1209	4	0	0	1019460	692	0	correct_rejection	NA	0
7	Single	76	238	1210	5	0	0	1020169	691	0	correct_rejection	NA	0
7	Single	77	239	1211	0	1	1	1020877	692	1	hit	498	0
7	Single	78	240	1212	9	0	0	1021586	691	0	correct_rejection	NA	0
7	Single	79	241	1213	9	0	0	1022294	692	0	correct_rejection	NA	0
7	Single	80	242	1214	8	0	0	1023003	691	0	correct_rejection	NA	0
7	Single	81	243	1215	6	0	0	1023711	692	0	correct_rejection	NA	0
7	Single	82	244	1216	6	0	0	1024420	692	0	correct_rejection	NA	0
7	Single	83	245	1217	7	0	0	1025128	692	0	correct_rejection	NA	0
7	Single	84	246	1218	7	0	0	1025837	692	0	correct_rejection	NA	0
7	Single	85	247	1219	5	0	0	1026546	691	0	correct_rejection	NA	0
7	Single	86	248	1220	7	0	0	1027254	692	0	correct_rejection	NA	0
7	Single	87	249	1221	9	0	0	1027963	691	0	correct_rejection	NA	0
7	Single	88	250	1222	9	0	0	1028671	692	0	correct_rejection	NA	0
7	Single	89	251	1223	7	0	0	1029380	692	0	correct_rejection	NA	0
7	Single	90	252	1224	7	0	0	1030088	692	0	correct_rejection	NA	0
7	Single	91	253	1225	4	0	0	1030797	692	0	correct_rejection	NA	0
7	Single	92	254	1226	8	0	0	1031506	691	0	correct_rejection	NA	0
7	Single	93	255	1227	7	0	0	1032214	692	0	correct_rejection	NA	0
7	Single	94	256	1228	6	0	0	1032923	691	0	correct_rejection	NA	0
7	Single	95	257	1229	5	0	0	1033631	692	0	correct_rejection	NA	0
7	Single	96	258	1230	6	0	0	1034340	692	0	correct_rejection	NA	0
7	Single	97	259	1231	7	0	0	1035048	692	0	correct_rejection	NA	0
7	Single	98	260	1232	8	0	0	1035757	692	0	correct_rejection	NA	0
7	Single	99	261	1233	5	0	0	1036466	691	0	correct_rejection	NA	0
7	Single	100	262	1234	9	0	0	1037174	692	0	correct_rejection	NA	0
7	Single	101	263	1235	4	0	0	1037883	691	0	correct_rejection	NA	0
7	Single	102	264	1236	4	0	0	1038591	692	0	correct_rejection	NA	0
7	Single	103	265	1237	9	0	0	1039300	692	0	correct_rejection	NA	0
7	Single	104	266	1238	0	1	1	1040008	692	1	hit	527	0
7	Single	105	267	1239	8	0	0	1040717	692	0	correct_rejection	NA	0
7	Single	106	268	1240	9	0	0	1041426	691	0	correct_rejection	NA	0
7	Single	107	269	1241	6	0	0	1042134	692	0	correct_rejection	NA	0
7	Single	108	270	1242	9	0	0	1042843	691	0	correct_rejection	NA	0
7	Single	109	271	1243	0	1	1	1043551	692	1	hit	647	0
7	Single	110	272	1244	5	0	0	1044260	691	0	correct_rejection	NA	0
7	Single	111	273	1245	8	0	0	1044968	692	0	correct_rejection	NA	0
7	Single	112	274	1246	4	0	0	1045677	692	0	correct_rejection	NA	0
7	Single	113	275	1247	5	0	0	1046385	692	0	correct_rejection	NA	0
7	Single	114	276	1248	5	0	0	1047094	692	0	correct_rejection	NA	0
7	Single	115	277	1249	4	0	0	1047803	691	0	correct_rejection	NA	0
7	Single	116	278	1250	6	0	0	1048511	692	0	correct_rejection	NA	0
7	Single	117	279	1251	6	0	0	1049220	691	0	correct_rejection	NA	0
7	Single	118	280	1252	8	0	0	1049928	692	0	correct_rejection	NA	0
7	Single	119	281	1253	8	0	0	1050637	692	0	correct_rejection	NA	0
7	Single	120	282	1254	6	0	0	1051345	692	0	correct_rejection	NA	0
7	Single	121	283	1255	4	0	0	1052054	692	0	correct_rejection	NA	0
7	Single	122	284	1256	8	0	0	1052763	691	0	correct_rejection	NA	0
7	Single	123	285	1257	4	0	0	1053471	692	0	correct_rejection	NA	0
7	Single	124	286	1258	6	0	0	1054180	691	0	correct_rejection	NA	0
7	Single	125	287	1259	0	1	1	1054888	692	1	hit	418	0
7	Single	126	288	1260	9	0	0	1055597	692	0	correct_rejection	NA	0
7	Single	127	289	1261	8	0	0	1056305	692	0	correct_rejection	NA	0
7	Single	128	290	1262	8	0	0	1057014	692	0	correct_rejection	NA	0
7	Single	129	291	1263	0	1	1	1057723	691	1	hit	356	0
7	Single	130	292	1264	9	0	0	1058431	692	0	correct_rejection	NA	0
7	Single	131	293	1265	5	0	0	1059140	691	0	correct_rejection	NA	0
7	Single	132	294	1266	9	0	0	1059848	692	0	correct_rejection	NA	0
7	Single	133	295	1267	7	0	0	1060557	692	0	correct_rejection	NA	0
7	Single	134	296	1268	5	0	0	1061265	692	0	correct_rejection	NA	0
7	Single	135	297	1269	8	0	0	1061974	692	0	correct_rejection	NA	0
7	Single	136	298	1270	5	0	0	1062683	691	0	correct_rejection	NA	0
7	Single	137	299	1271	5	0	0	1063391	692	0	correct_rejection	NA	0
7	Single	138	300	1272	6	0	0	1064100	691	0	correct_rejection	NA	0
7	Single	139	301	1273	8	0	0	1064808	692	0	correct_rejection	NA	0
7	Single	140	302	1274	0	1	1	1065517	691	1	hit	333	0
7	Single	141	303	1275	6	0	0	1066225	692	0	correct_rejection	NA	0
7	Single	142	304	1276	7	0	0	1066934	692	0	correct_rejection	NA	0
7	Single	143	305	1277	9	0	0	1067642	692	0	correct_rejection	NA	0
7	Single	144	306	1278	6	0	0	1068351	692	0	correct_rejection	NA	0
7	Single	145	307	1279	0	1	1	1069060	691	1	hit	450	0
7	Single	146	308	1280	5	0	0	1069768	692	0	correct_rejection	NA	0
7	Single	147	309	1281	4	0	0	1070477	691	0	correct_rejection	NA	0
7	Single	148	310	1282	0	1	1	1071185	692	1	hit	480	0
7	Single	149	311	1283	5	0	0	1071894	692	0	correct_rejection	NA	0
7	Single	150	312	1284	7	0	0	1072602	692	0	correct_rejection	NA	0
7	Single	151	313	1285	8	0	0	1073311	692	0	correct_rejection	NA	0
7	Single	152	314	1286	7	0	0	1074020	691	0	correct_rejection	NA	0
7	Single	153	315	1287	4	0	0	1074728	692	0	correct_rejection	NA	0
7	Single	154	316	1288	4	0	0	1075437	691	0	correct_rejection	NA	0
7	Single	155	317	1289	7	0	0	1076145	692	0	correct_rejection	NA	0
7	Single	156	318	1290	7	0	0	1076854	692	0	correct_rejection	NA	0
7	Single	157	319	1291	6	0	0	1077562	692	0	correct_rejection	NA	0
7	Single	158	320	1292	6	0	0	1078271	692	0	correct_rejection	NA	0
7	Single	159	321	1293	4	0	0	1078980	691	0	correct_rejection	NA	0
7	Single	160	322	1294	9	0	0	1079688	692	0	correct_rejection	NA	0
7	Single	161	323	1295	9	0	0	1080397	691	0	correct_rejection	NA	0
7	Single	162	324	1296	4	0	0	1081105	692	0	correct_rejection	NA	0
7	Nonet	1	487	1297	7	0	0	1090650	692	0	correct_rejection	NA	7619
7	Nonet	2	488	1298	8	0	0	1091359	691	0	correct_rejection	NA	0
7	Nonet	3	489	1299	9	0	0	1092067	692	0	correct_rejection	NA	0
7	Nonet	4	490	1300	0	1	2	1092776	691	1	hit	410	0
7	Nonet	5	491	1301	7	0	0	1093484	692	0	correct_rejection	NA	0
7	Nonet	6	492	1302	8	0	0	1094193	692	0	correct_rejection	NA	0
7	Nonet	7	493	1303	9	0	0	1094901	692	0	correct_rejection	NA	0
7	Nonet	8	494	1304	7	0	0	1095610	692	0	correct_rejection	NA	0
7	Nonet	9	495	1305	8	0	0	1096319	691	0	correct_rejection	NA	0
7	Nonet	10	496	1306	9	0	0	1097027	692	0	correct_rejection	NA	0
7	Nonet	11	497	1307	7	0	0	1097736	691	0	correct_rejection	NA	0
7	Nonet	12	498	1308	8	0	0	1098444	692	0	correct_rejection	NA	0
7	Nonet	13	499	1309	0	1	1	1099153	692	1	hit	395	0
7	Nonet	14	500	1310	9	0	0	1099861	692	0	correct_rejection	NA	0
7	Nonet	15	501	1311	7	0	0	1100570	692	0	correct_rejection	NA	0
7	Nonet	16	502	1312	0	1	1	1101279	691	1	hit	582	0
7	Nonet	17	503	1313	8	0	0	1101987	692	0	correct_rejection	NA	0
7	Nonet	18	504	1314	9	0	0	1102696	691	0	correct_rejection	NA	0
7	Nonet	19	505	1315	7	0	0	1103404	692	0	correct_rejection	NA	0
7	Nonet	20	506	1316	8	0	0	1104113	692	0	correct_rejection	NA	0
7	Nonet	21	507	1317	9	0	0	1104821	692	0	correct_rejection	NA	0
7	Nonet	22	508	1318	9	0	0	1105530	692	0	correct_rejection	NA	0
7	Nonet	23	509	1319	8	0	0	1106239	691	0	correct_rejection	NA	0
7	Nonet	24	510	1320	7	0	0	1106947	692	0	correct_rejection	NA	0
7	Nonet	25	511	1321	9	0	0	1107656	691	0	correct_rejection	NA	0
7	Nonet	26	512	1322	8	0	0	1108364	692	0	correct_rejection	NA	0
7	Nonet	27	513	1323	7	0	0	1109073	691	0	correct_rejection	NA	0
7	Nonet	28	514	1324	9	0	0	1109781	692	0	correct_rejection	NA	0
7	Nonet	29	515	1325	0	1	1	1110490	692	1	hit	440	0
7	Nonet	30	516	1326	8	0	0	1111198	692	0	correct_rejection	NA	0
7	Nonet	31	517	1327	7	0	0	1111907	692	0	correct_rejection	NA	0
7	Nonet	32	518	1328	9	0	0	1112616	691	0	correct_rejection	NA	0
7	Nonet	33	519	1329	8	0	0	1113324	692	0	correct_rejection	NA	0
7	Nonet	34	520	1330	7	0	0	1114033	691	0	correct_rejection	NA	0
7	Nonet	35	521	1331	9	0	0	1114741	692	0	correct_rejection	NA	0
7	Nonet	36	522	1332	0	1	1	1115450	692	1	hit	455	0
7	Nonet	37	523	1333	8	0	0	1116158	692	0	correct_rejection	NA	0
7	Nonet	38	524	1334	7	0	0	1116867	692	0	correct_rejection	NA	0
7	Nonet	39	525	1335	9	0	0	1117576	691	0	correct_rejection	NA	0
7	Nonet	40	526	1336	8	0	0	1118284	692	0	correct_rejection	NA	0
7	Nonet	41	527	1337	7	0	0	1118993	691	0	correct_rejection	NA	0
7	Nonet	42	528	1338	4	0	0	1119701	692	0	correct_rejection	NA	0
7	Nonet	43	529	1339	5	0	0	1120410	692	0	correct_rejection	NA	0
7	Nonet	44	530	1340	6	0	0	1121118	692	0	correct_rejection	NA	0
7	Nonet	45	531	1341	4	0	0	1121827	692	0	correct_rejection	NA	0
7	Nonet	46	532	1342	5	0	0	1122536	691	0	correct_rejection	NA	0
7	Nonet	47	533	1343	0	1	1	1123244	692	1	hit	346	0
7	Nonet	48	534	1344	6	0	0	1123953	691	0	correct_rejection	NA	0
7	Nonet	49	535	1345	4	0	0	1124661	692	0	correct_rejection	NA	0
7	Nonet	50	536	1346	5	0	0	1125370	692	0	correct_rejection	NA	0
7	Nonet	51	537	1347	6	0	0	1126078	692	0	correct_rejection	NA	0
7	Nonet	52	538	1348	6	0	0	1126787	692	0	correct_rejection	NA	0
7	Nonet	53	539	1349	5	0	0	1127496	691	0	correct_rejection	NA	0
7	Nonet	54	540	1350	4	0	0	1128204	692	0	correct_rejection	NA	0
7	Nonet	55	541	1351	6	0	0	1128913	691	0	correct_rejection	NA	0
7	Nonet	56	542	1352	5	0	0	1129621	692	0	correct_rejection	NA	0
7	Nonet	57	543	1353	4	0	0	1130330	691	0	correct_rejection	NA	0
7	Nonet	58	544	1354	6	0	0	1131038	692	0	correct_rejection	NA	0
7	Nonet	59	545	1355	5	0	0	1131747	692	0	correct_rejection	NA	0
7	Nonet	60	546	1356	4	0	0	1132455	692	0	correct_rejection	NA	0
7	Nonet	61	547	1357	4	0	0	1133164	692	0	correct_rejection	NA	0
7	Nonet	62	548	1358	5	0	0	1133873	691	0	correct_rejection	NA	0
7	Nonet	63	549	1359	6	0	0	1134581	692	0	correct_rejection	NA	0
7	Nonet	64	550	1360	4	0	0	1135290	691	0	correct_rejection	NA	0
7	Nonet	65	551	1361	5	0	0	1135998	692	0	correct_rejection	NA	0
7	Nonet	66	552	1362	6	0	0	1136707	692	0	correct_rejection	NA	0
7	Nonet	67	553	1363	0	1	2	1137415	692	1	hit	449	0
7	Nonet	68	554	1364	4	0	0	1138124	692	0	correct_rejection	NA	0
7	Nonet	69	555	1365	5	0	0	1138833	691	0	correct_rejection	NA	0
7	Nonet	70	556	1366	6	0	0	1139541	692	0	correct_rejection	NA	0
7	Nonet	71	557	1367	7	0	0	1140250	691	0	correct_rejection	NA	0
7	Nonet	72	558	1368	8	0	0	1140958	692	0	correct_rejection	NA	0
7	Nonet	73	559	1369	9	0	0	1141667	692	0	correct_rejection	NA	0
7	Nonet	74	560	1370	7	0	0	1142375	692	0	correct_rejection	NA	0
7	Nonet	75	561	1371	8	0	0	1143084	692	0	correct_rejection	NA	0
7	Nonet	76	562	1372	9	0	0	1143793	691	0	correct_rejection	NA	0
7	Nonet	77	563	1373	7	0	0	1144501	692	0	correct_rejection	NA	0
7	Nonet	78	564	1374	8	0	0	1145210	691	0	correct_rejection	NA	0
7	Nonet	79	565	1375	9	0	0	1145918	692	0	correct_rejection	NA	0
7	Nonet	80	566	1376	6	0	0	1146627	691	0	correct_rejection	NA	0
7	Nonet	81	567	1377	5	0	0	1147335	692	0	correct_rejection	NA	0
7	Nonet	82	568	1378	0	1	1	1148044	692	1	hit	413	0
7	Nonet	83	569	1379	4	0	0	1148753	691	0	correct_rejection	NA	0
7	Nonet	84	570	1380	6	0	0	1149461	692	0	correct_rejection	NA	0
7	Nonet	85	571	1381	5	0	0	1150170	691	0	correct_rejection	NA	0
7	Nonet	86	572	1382	4	0	0	1150878	692	0	correct_rejection	NA	0
7	Nonet	87	573	1383	0	1	2	1151587	691	1	hit	518	0
7	Nonet	88	574	1384	6	0	0	1152295	692	0	correct_rejection	NA	0
7	Nonet	89	575	1385	5	0	0	1153004	692	0	correct_rejection	NA	0
7	Nonet	90	576	1386	4	0	0	1153712	692	0	correct_rejection	NA	0
7	Nonet	91	577	1387	9	0	0	1154421	692	0	correct_rejection	NA	0
7	Nonet	92	578	1388	8	0	0	1155130	691	0	correct_rejection	NA	0
7	Nonet	93	579	1389	7	0	0	1155838	692	0	correct_rejection	NA	0
7	Nonet	94	580	1390	9	0	0	1156547	691	0	correct_rejection	NA	0
7	Nonet	95	581	1391	8	0	0	1157255	692	0	correct_rejection	NA	0
7	Nonet	96	582	1392	7	0	0	1157964	692	0	correct_rejection	NA	0
7	Nonet	97	583	1393	0	1	2	1158672	692	1	hit	411	0
7	Nonet	98	584	1394	9	0	0	1159381	692	0	correct_rejection	NA	0
7	Nonet	99	585	1395	8	0	0	1160090	691	0	correct_rejection	NA	0
7	Nonet	100	586	1396	7	0	0	1160798	692	0	correct_rejection	NA	0
7	Nonet	101	587	1397	6	0	0	1161507	691	0	correct_rejection	NA	0
7	Nonet	102	588	1398	5	0	0	1162215	692	0	correct_rejection	NA	0
7	Nonet	103	589	1399	0	1	1	1162924	692	1	hit	492	0
7	Nonet	104	590	1400	4	0	0	1163632	692	0	correct_rejection	NA	0
7	Nonet	105	591	1401	6	0	0	1164341	692	0	correct_rejection	NA	0
7	Nonet	106	592	1402	5	0	0	1165050	691	0	correct_rejection	NA	0
7	Nonet	107	593	1403	4	0	0	1165758	692	0	correct_rejection	NA	0
7	Nonet	108	594	1404	6	0	0	1166467	691	0	correct_rejection	NA	0
7	Nonet	109	595	1405	5	0	0	1167175	692	0	correct_rejection	NA	0
7	Nonet	110	596	1406	4	0	0	1167884	691	0	correct_rejection	NA	0
7	Nonet	111	597	1407	6	0	0	1168592	692	0	correct_rejection	NA	0
7	Nonet	112	598	1408	5	0	0	1169301	692	0	correct_rejection	NA	0
7	Nonet	113	599	1409	4	0	0	1170009	692	0	correct_rejection	NA	0
7	Nonet	114	600	1410	6	0	0	1170718	692	0	correct_rejection	NA	0
7	Nonet	115	601	1411	5	0	0	1171427	691	0	correct_rejection	NA	0
7	Nonet	116	602	1412	4	0	0	1172135	692	0	correct_rejection	NA	0
7	Nonet	117	603	1413	6	0	0	1172844	691	0	correct_rejection	NA	0
7	Nonet	118	604	1414	0	1	1	1173552	692	1	hit	656	0
7	Nonet	119	605	1415	5	0	0	1174261	692	0	correct_rejection	NA	0
7	Nonet	120	606	1416	4	0	0	1174969	692	0	correct_rejection	NA	0
7	Nonet	121	607	1417	7	0	0	1175678	692	0	correct_rejection	NA	0
7	Nonet	122	608	1418	8	0	0	1176387	691	0	correct_rejection	NA	0
7	Nonet	123	609	1419	0	1	1	1177095	692	1	hit	476	0
7	Nonet	124	610	1420	9	0	0	1177804	691	0	correct_rejection	NA	0
7	Nonet	125	611	1421	7	0	0	1178512	692	0	correct_rejection	NA	0
7	Nonet	126	612	1422	0	1	1	1179221	692	1	hit	434	0
7	Nonet	127	613	1423	8	0	0	1179929	692	0	correct_rejection	NA	0
7	Nonet	128	614	1424	9	0	0	1180638	692	0	correct_rejection	NA	0
7	Nonet	129	615	1425	0	1	2	1181347	691	1	hit	497	0
7	Nonet	130	616	1426	7	0	0	1182055	692	0	correct_rejection	NA	0
7	Nonet	131	617	1427	8	0	0	1182764	691	0	correct_rejection	NA	0
7	Nonet	132	618	1428	9	0	0	1183472	692	0	correct_rejection	NA	0
7	Nonet	133	619	1429	4	0	0	1184181	692	0	correct_rejection	NA	0
7	Nonet	134	620	1430	5	0	0	1184889	692	0	correct_rejection	NA	0
7	Nonet	135	621	1431	6	0	0	1185598	692	0	correct_rejection	NA	0
7	Nonet	136	622	1432	4	0	0	1186307	691	0	correct_rejection	NA	0
7	Nonet	137	623	1433	5	0	0	1187015	692	0	correct_rejection	NA	0
7	Nonet	138	624	1434	6	0	0	1187724	691	0	correct_rejection	NA	0
7	Nonet	139	625	1435	4	0	0	1188432	692	0	correct_rejection	NA	0
7	Nonet	140	626	1436	5	0	0	1189141	691	0	correct_rejection	NA	0
7	Nonet	141	627	1437	6	0	0	1189849	692	0	correct_rejection	NA	0
7	Nonet	142	628	1438	4	0	0	1190558	692	0	correct_rejection	NA	0
7	Nonet	143	629	1439	5	0	0	1191266	692	0	correct_rejection	NA	0
7	Nonet	144	630	1440	6	0	0	1191975	692	0	correct_rejection	NA	0
7	Nonet	145	631	1441	4	0	0	1192684	691	0	correct_rejection	NA	0
7	Nonet	146	632	1442	0	1	1	1193392	692	1	hit	449	0
7	Nonet	147	633	1443	5	0	0	1194101	691	0	correct_rejection	NA	0
7	Nonet	148	634	1444	6	0	0	1194809	692	0	correct_rejection	NA	0
7	Nonet	149	635	1445	0	1	2	1195518	692	1	hit	510	0
7	Nonet	150	636	1446	4	0	0	1196226	692	0	correct_rejection	NA	0
7	Nonet	151	637	1447	5	0	0	1196935	692	0	correct_rejection	NA	0
7	Nonet	152	638	1448	6	0	0	1197644	691	0	correct_rejection	NA	0
7	Nonet	153	639	1449	9	0	0	1198352	692	0	correct_rejection	NA	0
7	Nonet	154	640	1450	8	0	0	1199061	691	0	correct_rejection	NA	0
7	Nonet	155	641	1451	7	0	0	1199769	692	0	correct_rejection	NA	0
7	Nonet	156	642	1452	9	0	0	1200478	692	0	correct_rejection	NA	0
7	Nonet	157	643	1453	8	0	0	1201186	692	0	correct_rejection	NA	0
7	Nonet	158	644	1454	7	0	0	1201895	692	0	correct_rejection	NA	0
7	Nonet	159	645	1455	9	0	0	1202604	691	0	correct_rejection	NA	0
7	Nonet	160	646	1456	8	0	0	1203312	692	0	correct_rejection	NA	0
7	Nonet	161	647	1457	0	1	1	1204021	691	1	hit	657	0
7	Nonet	162	648	1458	7	0	0	1204729	692	0	correct_rejection	NA	0
7	Correct	1	325	1459	4	0	0	1214816	692	0	correct_rejection	NA	7799
7	Correct	2	326	1460	5	0	0	1215524	692	0	correct_rejection	NA	0
7	Correct	3	327	1461	6	0	0	1216233	692	0	correct_rejection	NA	0
7	Correct	4	328	1462	4	0	0	1216942	691	0	correct_rejection	NA	0
7	Correct	5	329	1463	5	0	0	1217650	692	0	correct_rejection	NA	0
7	Correct	6	330	1464	6	0	0	1218359	691	0	correct_rejection	NA	0
7	Correct	7	331	1465	4	0	0	1219067	692	0	correct_rejection	NA	0
7	Correct	8	332	1466	5	0	0	1219776	692	0	correct_rejection	NA	0
7	Correct	9	333	1467	6	0	0	1220484	692	0	correct_rejection	NA	0
7	Correct	10	334	1468	0	1	3	1221193	692	1	hit	424	0
7	Correct	11	335	1469	6	0	0	1221902	691	0	correct_rejection	NA	0
7	Correct	12	336	1470	5	0	0	1222610	692	0	correct_rejection	NA	0
7	Correct	13	337	1471	4	0	0	1223319	691	0	correct_rejection	NA	0
7	Correct	14	338	1472	6	0	0	1224027	692	0	correct_rejection	NA	0
7	Correct	15	339	1473	5	0	0	1224736	692	0	correct_rejection	NA	0
7	Correct	16	340	1474	4	0	0	1225444	692	0	correct_rejection	NA	0
7	Correct	17	341	1475	6	0	0	1226153	692	0	correct_rejection	NA	0
7	Correct	18	342	1476	0	1	1	1226862	691	1	hit	443	0
7	Correct	19	343	1477	5	0	0	1227570	692	0	correct_rejection	NA	0
7	Correct	20	344	1478	4	0	0	1228279	691	0	correct_rejection	NA	0
7	Correct	21	345	1479	9	0	0	1228987	692	0	correct_rejection	NA	0
7	Correct	22	346	1480	8	0	0	1229696	692	0	correct_rejection	NA	0
7	Correct	23	347	1481	7	0	0	1230404	692	0	correct_rejection	NA	0
7	Correct	24	348	1482	0	1	2	1231113	692	1	hit	686	0
7	Correct	25	349	1483	9	0	0	1231822	691	0	correct_rejection	NA	0
7	Correct	26	350	1484	8	0	0	1232530	692	0	correct_rejection	NA	0
7	Correct	27	351	1485	7	0	0	1233239	691	0	correct_rejection	NA	0
7	Correct	28	352	1486	9	0	0	1233947	692	0	correct_rejection	NA	0
7	Correct	29	353	1487	8	0	0	1234656	691	0	correct_rejection	NA	0
7	Correct	30	354	1488	7	0	0	1235364	692	0	correct_rejection	NA	0
7	Correct	31	355	1489	7	0	0	1236073	692	0	correct_rejection	NA	0
7	Correct	32	356	1490	8	0	0	1236781	692	0	correct_rejection	NA	0
7	Correct	33	357	1491	9	0	0	1237490	692	0	correct_rejection	NA	0
7	Correct	34	358	1492	7	0	0	1238199	691	0	correct_rejection	NA	0
7	Correct	35	359	1493	8	0	0	1238907	692	0	correct_rejection	NA	0
7	Correct	36	360	1494	9	0	0	1239616	691	0	correct_rejection	NA	0
7	Correct	37	361	1495	7	0	0	1240324	692	0	correct_rejection	NA	0
7	Correct	38	362	1496	0	1	1	1241033	692	1	hit	531	0
7	Correct	39	363	1497	8	0	0	1241741	692	0	correct_rejection	NA	0
7	Correct	40	364	1498	9	0	0	1242450	692	0	correct_rejection	NA	0
7	Correct	41	365	1499	4	0	0	1243159	691	0	correct_rejection	NA	0
7	Correct	42	366	1500	5	0	0	1243867	692	0	correct_rejection	NA	0
7	Correct	43	367	1501	6	0	0	1244576	691	0	correct_rejection	NA	0
7	Correct	44	368	1502	4	0	0	1245284	692	0	correct_rejection	NA	0
7	Correct	45	369	1503	5	0	0	1245993	692	0	correct_rejection	NA	0
7	Correct	46	370	1504	6	0	0	1246701	692	0	correct_rejection	NA	0
7	Correct	47	371	1505	4	0	0	1247410	692	0	correct_rejection	NA	0
7	Correct	48	372	1506	0	1	1	1248119	691	1	hit	333	0
7	Correct	49	373	1507	5	0	0	1248827	692	0	correct_rejection	NA	0
7	Correct	50	374	1508	6	0	0	1249536	691	0	correct_rejection	NA	0
7	Correct	51	375	1509	6	0	0	1250244	692	0	correct_rejection	NA	0
7	Correct	52	376	1510	5	0	0	1250953	691	0	correct_rejection	NA	0
7	Correct	53	377	1511	4	0	0	1251661	692	0	correct_rejection	NA	0
7	Correct	54	378	1512	6	0	0	1252370	692	0	correct_rejection	NA	0
7	Correct	55	379	1513	5	0	0	1253078	692	0	correct_rejection	NA	0
7	Correct	56	380	1514	4	0	0	1253787	692	0	correct_rejection	NA	0
7	Correct	57	381	1515	6	0	0	1254496	691	0	correct_rejection	NA	0
7	Correct	58	382	1516	5	0	0	1255204	692	0	correct_rejection	NA	0
7	Correct	59	383	1517	4	0	0	1255913	691	0	correct_rejection	NA	0
7	Correct	60	384	1518	9	0	0	1256621	692	0	correct_rejection	NA	0
7	Correct	61	385	1519	8	0	0	1257330	692	0	correct_rejection	NA	0
7	Correct	62	386	1520	7	0	0	1258038	692	0	correct_rejection	NA	0
7	Correct	63	387	1521	9	0	0	1258747	692	0	correct_rejection	NA	0
7	Correct	64	388	1522	8	0	0	1259456	691	0	correct_rejection	NA	0
7	Correct	65	389	1523	0	1	1	1260164	692	1	hit	505	0
7	Correct	66	390	1524	7	0	0	1260873	691	0	correct_rejection	NA	0
7	Correct	67	391	1525	9	0	0	1261581	692	0	correct_rejection	NA	0
7	Correct	68	392	1526	8	0	0	1262290	692	0	correct_rejection	NA	0
7	Correct	69	393	1527	7	0	0	1262998	692	0	correct_rejection	NA	0
7	Correct	70	394	1528	7	0	0	1263707	692	0	correct_rejection	NA	0
7	Correct	71	395	1529	8	0	0	1264416	691	0	correct_rejection	NA	0
7	Correct	72	396	1530	9	0	0	1265124	692	0	correct_rejection	NA	0
7	Correct	73	397	1531	0	1	2	1265833	691	1	hit	452	0
7	Correct	74	398	1532	7	0	0	1266541	692	0	correct_rejection	NA	0
7	Correct	75	399	1533	8	0	0	1267250	692	0	correct_rejection	NA	0
7	Correct	76	400	1534	0	1	1	1267958	692	1	hit	536	0
7	Correct	77	401	1535	9	0	0	1268667	692	0	correct_rejection	NA	0
7	Correct	78	402	1536	7	0	0	1269376	691	0	correct_rejection	NA	0
7	Correct	79	403	1537	8	0	0	1270084	692	0	correct_rejection	NA	0
7	Correct	80	404	1538	0	1	1	1270793	691	1	hit	451	0
7	Correct	81	405	1539	9	0	0	1271501	692	0	correct_rejection	NA	0
7	Correct	82	406	1540	4	0	0	1272210	691	0	correct_rejection	NA	0
7	Correct	83	407	1541	5	0	0	1272918	692	0	correct_rejection	NA	0
7	Correct	84	408	1542	0	1	1	1273627	692	1	hit	556	0
7	Correct	85	409	1543	6	0	0	1274335	692	0	correct_rejection	NA	0
7	Correct	86	410	1544	4	0	0	1275044	692	0	correct_rejection	NA	0
7	Correct	87	411	1545	5	0	0	1275753	691	0	correct_rejection	NA	0
7	Correct	88	412	1546	6	0	0	1276461	692	0	correct_rejection	NA	0
7	Correct	89	413	1547	4	0	0	1277170	691	0	correct_rejection	NA	0
7	Correct	90	414	1548	5	0	0	1277878	692	0	correct_rejection	NA	0
7	Correct	91	415	1549	6	0	0	1278587	692	0	correct_rejection	NA	0
7	Correct	92	416	1550	6	0	0	1279295	692	0	correct_rejection	NA	0
7	Correct	93	417	1551	5	0	0	1280004	692	0	correct_rejection	NA	0
7	Correct	94	418	1552	4	0	0	1280713	691	0	correct_rejection	NA	0
7	Correct	95	419	1553	6	0	0	1281421	692	0	correct_rejection	NA	0
7	Correct	96	420	1554	5	0	0	1282130	691	0	correct_rejection	NA	0
7	Correct	97	421	1555	4	0	0	1282838	692	0	correct_rejection	NA	0
7	Correct	98	422	1556	6	0	0	1283547	692	0	correct_rejection	NA	0
7	Correct	99	423	1557	5	0	0	1284255	692	0	correct_rejection	NA	0
7	Correct	100	424	1558	4	0	0	1284964	692	0	correct_rejection	NA	0
7	Correct	101	425	1559	9	0	0	1285673	691	0	correct_rejection	NA	0
7	Correct	102	426	1560	8	0	0	1286381	692	0	correct_rejection	NA	0
7	Correct	103	427	1561	7	0	0	1287090	691	0	correct_rejection	NA	0
7	Correct	104	428	1562	0	1	2	1287798	692	1	hit	404	0
7	Correct	105	429	1563	9	0	0	1288507	692	0	correct_rejection	NA	0
7	Correct	106	430	1564	8	0	0	1289215	692	0	correct_rejection	NA	0
7	Correct	107	431	1565	7	0	0	1289924	692	0	correct_rejection	NA	0
7	Correct	108	432	1566	9	0	0	1290633	691	0	correct_rejection	NA	0
7	Correct	109	433	1567	8	0	0	1291341	692	0	correct_rejection	NA	0
7	Correct	110	434	1568	7	0	0	1292050	691	0	correct_rejection	NA	0
7	Correct	111	435	1569	0	1	3	1292758	692	1	hit	512	0
7	Correct	112	436	1570	7	0	0	1293467	691	0	correct_rejection	NA	0
7	Correct	113	437	1571	8	0	0	1294175	692	0	correct_rejection	NA	0
7	Correct	114	438	1572	9	0	0	1294884	692	0	correct_rejection	NA	0
7	Correct	115	439	1573	7	0	0	1295592	692	0	correct_rejection	NA	0
7	Correct	116	440	1574	0	1	1	1296301	692	1	hit	522	0
7	Correct	117	441	1575	8	0	0	1297010	691	0	correct_rejection	NA	0
7	Correct	118	442	1576	9	0	0	1297718	692	0	correct_rejection	NA	0
7	Correct	119	443	1577	7	0	0	1298427	691	0	correct_rejection	NA	0
7	Correct	120	444	1578	0	1	1	1299135	692	1	hit	577	0
7	Correct	121	445	1579	8	0	0	1299844	692	0	correct_rejection	NA	0
7	Correct	122	446	1580	9	0	0	1300552	692	0	correct_rejection	NA	0
7	Correct	123	447	1581	4	0	0	1301261	692	0	correct_rejection	NA	0
7	Correct	124	448	1582	5	0	0	1301970	691	0	correct_rejection	NA	0
7	Correct	125	449	1583	6	0	0	1302678	692	0	correct_rejection	NA	0
7	Correct	126	450	1584	4	0	0	1303387	691	0	correct_rejection	NA	0
7	Correct	127	451	1585	0	1	1	1304095	692	1	hit	416	0
7	Correct	128	452	1586	5	0	0	1304804	692	0	correct_rejection	NA	0
7	Correct	129	453	1587	6	0	0	1305512	692	0	correct_rejection	NA	0
7	Correct	130	454	1588	4	0	0	1306221	692	0	correct_rejection	NA	0
7	Correct	131	455	1589	5	0	0	1306930	691	0	correct_rejection	NA	0
7	Correct	132	456	1590	6	0	0	1307638	692	0	correct_rejection	NA	0
7	Correct	133	457	1591	6	0	0	1308347	691	0	correct_rejection	NA	0
7	Correct	134	458	1592	5	0	0	1309055	692	0	correct_rejection	NA	0
7	Correct	135	459	1593	0	1	1	1309764	692	0	miss	NA	0
7	Correct	136	460	1594	4	0	0	1310472	692	1	false_alarm	56	0
7	Correct	137	461	1595	6	0	0	1311181	692	0	correct_rejection	NA	0
7	Correct	138	462	1596	5	0	0	1311890	691	0	correct_rejection	NA	0
7	Correct	139	463	1597	4	0	0	1312598	692	0	correct_rejection	NA	0
7	Correct	140	464	1598	6	0	0	1313307	691	0	correct_rejection	NA	0
7	Correct	141	465	1599	5	0	0	1314015	692	0	correct_rejection	NA	0
7	Correct	142	466	1600	4	0	0	1314724	691	0	correct_rejection	NA	0
7	Correct	143	467	1601	9	0	0	1315432	692	0	correct_rejection	NA	0
7	Correct	144	468	1602	8	0	0	1316141	692	0	correct_rejection	NA	0
7	Correct	145	469	1603	7	0	0	1316849	692	0	correct_rejection	NA	0
7	Correct	146	470	1604	9	0	0	1317558	692	0	correct_rejection	NA	0
7	Correct	147	471	1605	0	1	1	1318267	691	1	hit	395	0
7	Correct	148	472	1606	8	0	0	1318975	692	0	correct_rejection	NA	0
7	Correct	149	473	1607	7	0	0	1319684	691	0	correct_rejection	NA	0
7	Correct	150	474	1608	9	0	0	1320392	692	0	correct_rejection	NA	0
7	Correct	151	475	1609	8	0	0	1321101	692	0	correct_rejection	NA	0
7	Correct	152	476	1610	7	0	0	1321809	692	0	correct_rejection	NA	0
7	Correct	153	477	1611	7	0	0	1322518	692	0	correct_rejection	NA	0
7	Correct	154	478	1612	8	0	0	1323227	691	0	correct_rejection	NA	0
7	Correct	155	479	1613	9	0	0	1323935	692	0	correct_rejection	NA	0
7	Correct	156	480	1614	0	1	2	1324644	691	1	hit	597	0
7	Correct	157	481	1615	7	0	0	1325352	692	0	correct_rejection	NA	0
7	Correct	158	482	1616	8	0	0	1326061	692	0	correct_rejection	NA	0
7	Correct	159	483	1617	9	0	0	1326769	692	0	correct_rejection	NA	0
7	Correct	160	484	1618	7	0	0	1327478	692	0	correct_rejection	NA	0
7	Correct	161	485	1619	8	0	0	1328187	691	0	correct_rejection	NA	0
7	Correct	162	486	1620	9	0	0	1328895	692	0	correct_rejection	NA	0
trigger nr 1248 at 1330983
trigger nr 1253 at 1406281
7	Single	1	649	1621	8	0	0	1413648	692	0	correct_rejection	NA	7329
