ID	block	trial_block	trial_cat	trial_total	number	violation	level_violation	onset	duration	Response	Hit_Miss	RT	pre_trial_fixcross_ISI
first_trigger_at: 11320
trigger nr 3 at 13320
8	Correct	1	325	1	4	0	0	21156	692	0	correct_rejection	NA	7799
8	Correct	2	326	2	5	0	0	21865	692	0	correct_rejection	NA	0
8	Correct	3	327	3	6	0	0	22574	691	0	correct_rejection	NA	0
8	Correct	4	328	4	4	0	0	23282	692	0	correct_rejection	NA	0
8	Correct	5	329	5	5	0	0	23991	691	0	correct_rejection	NA	0
8	Correct	6	330	6	6	0	0	24699	692	0	correct_rejection	NA	0
8	Correct	7	331	7	4	0	0	25408	692	0	correct_rejection	NA	0
8	Correct	8	332	8	5	0	0	26116	692	0	correct_rejection	NA	0
8	Correct	9	333	9	6	0	0	26825	692	0	correct_rejection	NA	0
8	Correct	10	334	10	0	1	3	27534	691	1	hit	309	0
8	Correct	11	335	11	6	0	0	28242	692	0	correct_rejection	NA	0
8	Correct	12	336	12	5	0	0	28951	691	0	correct_rejection	NA	0
8	Correct	13	337	13	4	0	0	29659	692	0	correct_rejection	NA	0
8	Correct	14	338	14	6	0	0	30368	692	0	correct_rejection	NA	0
8	Correct	15	339	15	5	0	0	31076	692	0	correct_rejection	NA	0
8	Correct	16	340	16	4	0	0	31785	692	0	correct_rejection	NA	0
8	Correct	17	341	17	6	0	0	32494	691	0	correct_rejection	NA	0
8	Correct	18	342	18	0	1	1	33202	692	1	hit	352	0
8	Correct	19	343	19	5	0	0	33911	691	0	correct_rejection	NA	0
8	Correct	20	344	20	4	0	0	34619	692	0	correct_rejection	NA	0
8	Correct	21	345	21	9	0	0	35328	691	0	correct_rejection	NA	0
8	Correct	22	346	22	8	0	0	36036	692	0	correct_rejection	NA	0
8	Correct	23	347	23	7	0	0	36745	692	0	correct_rejection	NA	0
8	Correct	24	348	24	0	1	2	37453	692	1	hit	287	0
8	Correct	25	349	25	9	0	0	38162	692	0	correct_rejection	NA	0
8	Correct	26	350	26	8	0	0	38871	691	0	correct_rejection	NA	0
8	Correct	27	351	27	7	0	0	39579	692	0	correct_rejection	NA	0
8	Correct	28	352	28	9	0	0	40288	691	0	correct_rejection	NA	0
8	Correct	29	353	29	8	0	0	40996	692	0	correct_rejection	NA	0
8	Correct	30	354	30	7	0	0	41705	692	0	correct_rejection	NA	0
8	Correct	31	355	31	7	0	0	42413	692	0	correct_rejection	NA	0
8	Correct	32	356	32	8	0	0	43122	692	0	correct_rejection	NA	0
8	Correct	33	357	33	9	0	0	43831	691	0	correct_rejection	NA	0
8	Correct	34	358	34	7	0	0	44539	692	0	correct_rejection	NA	0
8	Correct	35	359	35	8	0	0	45248	691	0	correct_rejection	NA	0
8	Correct	36	360	36	9	0	0	45956	692	0	correct_rejection	NA	0
8	Correct	37	361	37	7	0	0	46665	692	0	correct_rejection	NA	0
8	Correct	38	362	38	0	1	1	47373	692	1	hit	329	0
8	Correct	39	363	39	8	0	0	48082	692	0	correct_rejection	NA	0
8	Correct	40	364	40	9	0	0	48791	691	0	correct_rejection	NA	0
8	Correct	41	365	41	4	0	0	49499	692	0	correct_rejection	NA	0
8	Correct	42	366	42	5	0	0	50208	691	0	correct_rejection	NA	0
8	Correct	43	367	43	6	0	0	50916	692	0	correct_rejection	NA	0
8	Correct	44	368	44	4	0	0	51625	692	0	correct_rejection	NA	0
8	Correct	45	369	45	5	0	0	52333	692	0	correct_rejection	NA	0
8	Correct	46	370	46	6	0	0	53042	692	0	correct_rejection	NA	0
8	Correct	47	371	47	4	0	0	53751	691	0	correct_rejection	NA	0
8	Correct	48	372	48	0	1	1	54459	692	1	hit	327	0
8	Correct	49	373	49	5	0	0	55168	691	0	correct_rejection	NA	0
8	Correct	50	374	50	6	0	0	55876	692	0	correct_rejection	NA	0
8	Correct	51	375	51	6	0	0	56585	691	0	correct_rejection	NA	0
8	Correct	52	376	52	5	0	0	57293	692	0	correct_rejection	NA	0
8	Correct	53	377	53	4	0	0	58002	692	0	correct_rejection	NA	0
8	Correct	54	378	54	6	0	0	58710	692	0	correct_rejection	NA	0
8	Correct	55	379	55	5	0	0	59419	692	0	correct_rejection	NA	0
8	Correct	56	380	56	4	0	0	60128	691	0	correct_rejection	NA	0
8	Correct	57	381	57	6	0	0	60836	692	0	correct_rejection	NA	0
8	Correct	58	382	58	5	0	0	61545	691	0	correct_rejection	NA	0
8	Correct	59	383	59	4	0	0	62253	692	0	correct_rejection	NA	0
8	Correct	60	384	60	9	0	0	62962	692	0	correct_rejection	NA	0
8	Correct	61	385	61	8	0	0	63670	692	0	correct_rejection	NA	0
8	Correct	62	386	62	7	0	0	64379	692	0	correct_rejection	NA	0
8	Correct	63	387	63	9	0	0	65088	691	0	correct_rejection	NA	0
8	Correct	64	388	64	8	0	0	65796	692	0	correct_rejection	NA	0
8	Correct	65	389	65	0	1	1	66505	691	1	hit	416	0
8	Correct	66	390	66	7	0	0	67213	692	0	correct_rejection	NA	0
8	Correct	67	391	67	9	0	0	67922	692	0	correct_rejection	NA	0
8	Correct	68	392	68	8	0	0	68630	692	0	correct_rejection	NA	0
8	Correct	69	393	69	7	0	0	69339	692	0	correct_rejection	NA	0
8	Correct	70	394	70	7	0	0	70048	691	0	correct_rejection	NA	0
8	Correct	71	395	71	8	0	0	70756	692	0	correct_rejection	NA	0
8	Correct	72	396	72	9	0	0	71465	691	0	correct_rejection	NA	0
8	Correct	73	397	73	0	1	2	72173	692	1	hit	304	0
8	Correct	74	398	74	7	0	0	72882	692	0	correct_rejection	NA	0
8	Correct	75	399	75	8	0	0	73590	692	0	correct_rejection	NA	0
8	Correct	76	400	76	0	1	1	74299	692	1	hit	430	0
8	Correct	77	401	77	9	0	0	75008	691	0	correct_rejection	NA	0
8	Correct	78	402	78	7	0	0	75716	692	0	correct_rejection	NA	0
8	Correct	79	403	79	8	0	0	76425	691	0	correct_rejection	NA	0
8	Correct	80	404	80	0	1	1	77133	692	1	hit	317	0
8	Correct	81	405	81	9	0	0	77842	691	0	correct_rejection	NA	0
8	Correct	82	406	82	4	0	0	78550	692	0	correct_rejection	NA	0
8	Correct	83	407	83	5	0	0	79259	692	0	correct_rejection	NA	0
8	Correct	84	408	84	0	1	1	79968	691	1	hit	304	0
8	Correct	85	409	85	6	0	0	80676	692	0	correct_rejection	NA	0
8	Correct	86	410	86	4	0	0	81385	691	0	correct_rejection	NA	0
8	Correct	87	411	87	5	0	0	82093	692	0	correct_rejection	NA	0
8	Correct	88	412	88	6	0	0	82802	691	0	correct_rejection	NA	0
8	Correct	89	413	89	4	0	0	83510	692	0	correct_rejection	NA	0
8	Correct	90	414	90	5	0	0	84219	692	0	correct_rejection	NA	0
8	Correct	91	415	91	6	0	0	84927	692	0	correct_rejection	NA	0
8	Correct	92	416	92	6	0	0	85636	692	0	correct_rejection	NA	0
8	Correct	93	417	93	5	0	0	86345	691	0	correct_rejection	NA	0
8	Correct	94	418	94	4	0	0	87053	692	0	correct_rejection	NA	0
8	Correct	95	419	95	6	0	0	87762	691	0	correct_rejection	NA	0
8	Correct	96	420	96	5	0	0	88470	692	0	correct_rejection	NA	0
8	Correct	97	421	97	4	0	0	89179	692	0	correct_rejection	NA	0
8	Correct	98	422	98	6	0	0	89887	692	0	correct_rejection	NA	0
8	Correct	99	423	99	5	0	0	90596	692	0	correct_rejection	NA	0
8	Correct	100	424	100	4	0	0	91305	691	0	correct_rejection	NA	0
8	Correct	101	425	101	9	0	0	92013	692	0	correct_rejection	NA	0
8	Correct	102	426	102	8	0	0	92722	691	0	correct_rejection	NA	0
8	Correct	103	427	103	7	0	0	93430	692	0	correct_rejection	NA	0
8	Correct	104	428	104	0	1	2	94139	692	1	hit	316	0
8	Correct	105	429	105	9	0	0	94847	692	0	correct_rejection	NA	0
8	Correct	106	430	106	8	0	0	95556	692	0	correct_rejection	NA	0
8	Correct	107	431	107	7	0	0	96265	691	0	correct_rejection	NA	0
8	Correct	108	432	108	9	0	0	96973	692	0	correct_rejection	NA	0
8	Correct	109	433	109	8	0	0	97682	691	0	correct_rejection	NA	0
8	Correct	110	434	110	7	0	0	98390	692	0	correct_rejection	NA	0
8	Correct	111	435	111	0	1	3	99099	692	1	hit	308	0
8	Correct	112	436	112	7	0	0	99807	692	0	correct_rejection	NA	0
8	Correct	113	437	113	8	0	0	100516	692	0	correct_rejection	NA	0
8	Correct	114	438	114	9	0	0	101225	691	0	correct_rejection	NA	0
8	Correct	115	439	115	7	0	0	101933	692	0	correct_rejection	NA	0
8	Correct	116	440	116	0	1	1	102642	691	1	hit	350	0
8	Correct	117	441	117	8	0	0	103350	692	0	correct_rejection	NA	0
8	Correct	118	442	118	9	0	0	104059	691	0	correct_rejection	NA	0
8	Correct	119	443	119	7	0	0	104767	692	0	correct_rejection	NA	0
8	Correct	120	444	120	0	1	1	105476	692	1	hit	382	0
8	Correct	121	445	121	8	0	0	106184	692	0	correct_rejection	NA	0
8	Correct	122	446	122	9	0	0	106893	692	0	correct_rejection	NA	0
8	Correct	123	447	123	4	0	0	107602	691	0	correct_rejection	NA	0
8	Correct	124	448	124	5	0	0	108310	692	0	correct_rejection	NA	0
8	Correct	125	449	125	6	0	0	109019	691	0	correct_rejection	NA	0
8	Correct	126	450	126	4	0	0	109727	692	0	correct_rejection	NA	0
8	Correct	127	451	127	0	1	1	110436	692	1	hit	310	0
8	Correct	128	452	128	5	0	0	111144	692	0	correct_rejection	NA	0
8	Correct	129	453	129	6	0	0	111853	692	0	correct_rejection	NA	0
8	Correct	130	454	130	4	0	0	112562	691	0	correct_rejection	NA	0
8	Correct	131	455	131	5	0	0	113270	692	0	correct_rejection	NA	0
8	Correct	132	456	132	6	0	0	113979	691	0	correct_rejection	NA	0
8	Correct	133	457	133	6	0	0	114687	692	0	correct_rejection	NA	0
8	Correct	134	458	134	5	0	0	115396	692	0	correct_rejection	NA	0
8	Correct	135	459	135	0	1	1	116104	692	1	hit	296	0
8	Correct	136	460	136	4	0	0	116813	692	0	correct_rejection	NA	0
8	Correct	137	461	137	6	0	0	117522	691	0	correct_rejection	NA	0
8	Correct	138	462	138	5	0	0	118230	692	0	correct_rejection	NA	0
8	Correct	139	463	139	4	0	0	118939	691	0	correct_rejection	NA	0
8	Correct	140	464	140	6	0	0	119647	692	0	correct_rejection	NA	0
8	Correct	141	465	141	5	0	0	120356	692	0	correct_rejection	NA	0
8	Correct	142	466	142	4	0	0	121064	692	0	correct_rejection	NA	0
8	Correct	143	467	143	9	0	0	121773	692	0	correct_rejection	NA	0
8	Correct	144	468	144	8	0	0	122482	691	0	correct_rejection	NA	0
8	Correct	145	469	145	7	0	0	123190	692	0	correct_rejection	NA	0
8	Correct	146	470	146	9	0	0	123899	691	0	correct_rejection	NA	0
8	Correct	147	471	147	0	1	1	124607	692	1	hit	293	0
8	Correct	148	472	148	8	0	0	125316	691	0	correct_rejection	NA	0
8	Correct	149	473	149	7	0	0	126024	692	0	correct_rejection	NA	0
8	Correct	150	474	150	9	0	0	126733	692	0	correct_rejection	NA	0
8	Correct	151	475	151	8	0	0	127441	692	0	correct_rejection	NA	0
8	Correct	152	476	152	7	0	0	128150	692	0	correct_rejection	NA	0
8	Correct	153	477	153	7	0	0	128859	691	0	correct_rejection	NA	0
8	Correct	154	478	154	8	0	0	129567	692	0	correct_rejection	NA	0
8	Correct	155	479	155	9	0	0	130276	691	0	correct_rejection	NA	0
8	Correct	156	480	156	0	1	2	130984	692	1	hit	310	0
8	Correct	157	481	157	7	0	0	131693	692	0	correct_rejection	NA	0
8	Correct	158	482	158	8	0	0	132401	692	0	correct_rejection	NA	0
8	Correct	159	483	159	9	0	0	133110	692	0	correct_rejection	NA	0
8	Correct	160	484	160	7	0	0	133819	691	0	correct_rejection	NA	0
8	Correct	161	485	161	8	0	0	134527	692	0	correct_rejection	NA	0
8	Correct	162	486	162	9	0	0	135236	691	0	correct_rejection	NA	0
8	Triplet	1	487	163	6	0	0	144572	692	0	correct_rejection	NA	7219
8	Triplet	2	488	164	5	0	0	145281	691	0	correct_rejection	NA	0
8	Triplet	3	489	165	4	0	0	145989	692	0	correct_rejection	NA	0
8	Triplet	4	490	166	4	0	0	146698	692	0	correct_rejection	NA	0
8	Triplet	5	491	167	5	0	0	147406	692	0	correct_rejection	NA	0
8	Triplet	6	492	168	6	0	0	148115	692	0	correct_rejection	NA	0
8	Triplet	7	493	169	9	0	0	148824	691	0	correct_rejection	NA	0
8	Triplet	8	494	170	8	0	0	149532	692	0	correct_rejection	NA	0
8	Triplet	9	495	171	7	0	0	150241	691	0	correct_rejection	NA	0
8	Triplet	10	496	172	0	1	2	150949	692	1	hit	414	0
8	Triplet	11	497	173	4	0	0	151658	691	0	correct_rejection	NA	0
8	Triplet	12	498	174	5	0	0	152366	692	0	correct_rejection	NA	0
8	Triplet	13	499	175	0	1	1	153075	692	1	hit	442	0
8	Triplet	14	500	176	6	0	0	153784	691	0	correct_rejection	NA	0
8	Triplet	15	501	177	6	0	0	154492	692	0	correct_rejection	NA	0
8	Triplet	16	502	178	5	0	0	155201	691	0	correct_rejection	NA	0
8	Triplet	17	503	179	0	1	1	155909	692	1	hit	284	0
8	Triplet	18	504	180	4	0	0	156618	691	0	correct_rejection	NA	0
8	Triplet	19	505	181	6	0	0	157326	692	0	correct_rejection	NA	0
8	Triplet	20	506	182	5	0	0	158035	692	0	correct_rejection	NA	0
8	Triplet	21	507	183	4	0	0	158743	692	0	correct_rejection	NA	0
8	Triplet	22	508	184	7	0	0	159452	692	0	correct_rejection	NA	0
8	Triplet	23	509	185	0	1	1	160161	691	1	hit	278	0
8	Triplet	24	510	186	8	0	0	160869	692	0	correct_rejection	NA	0
8	Triplet	25	511	187	9	0	0	161578	691	0	correct_rejection	NA	0
8	Triplet	26	512	188	6	0	0	162286	692	0	correct_rejection	NA	0
8	Triplet	27	513	189	0	1	1	162995	692	1	hit	324	0
8	Triplet	28	514	190	5	0	0	163703	692	0	correct_rejection	NA	0
8	Triplet	29	515	191	4	0	0	164412	692	0	correct_rejection	NA	0
8	Triplet	30	516	192	9	0	0	165121	691	0	correct_rejection	NA	0
8	Triplet	31	517	193	0	1	1	165829	692	1	hit	286	0
8	Triplet	32	518	194	8	0	0	166538	691	0	correct_rejection	NA	0
8	Triplet	33	519	195	7	0	0	167246	692	0	correct_rejection	NA	0
8	Triplet	34	520	196	9	0	0	167955	692	0	correct_rejection	NA	0
8	Triplet	35	521	197	8	0	0	168663	692	0	correct_rejection	NA	0
8	Triplet	36	522	198	0	1	1	169372	692	1	hit	323	0
8	Triplet	37	523	199	7	0	0	170081	691	0	correct_rejection	NA	0
8	Triplet	38	524	200	7	0	0	170789	692	0	correct_rejection	NA	0
8	Triplet	39	525	201	8	0	0	171498	691	0	correct_rejection	NA	0
8	Triplet	40	526	202	9	0	0	172206	692	0	correct_rejection	NA	0
8	Triplet	41	527	203	0	1	2	172915	692	1	hit	305	0
8	Triplet	42	528	204	4	0	0	173623	692	0	correct_rejection	NA	0
8	Triplet	43	529	205	5	0	0	174332	692	0	correct_rejection	NA	0
8	Triplet	44	530	206	6	0	0	175041	691	0	correct_rejection	NA	0
8	Triplet	45	531	207	4	0	0	175749	692	0	correct_rejection	NA	0
8	Triplet	46	532	208	5	0	0	176458	691	0	correct_rejection	NA	0
8	Triplet	47	533	209	6	0	0	177166	692	0	correct_rejection	NA	0
8	Triplet	48	534	210	7	0	0	177875	691	0	correct_rejection	NA	0
8	Triplet	49	535	211	8	0	0	178583	692	0	correct_rejection	NA	0
8	Triplet	50	536	212	9	0	0	179292	692	0	correct_rejection	NA	0
8	Triplet	51	537	213	7	0	0	180000	692	0	correct_rejection	NA	0
8	Triplet	52	538	214	8	0	0	180709	692	0	correct_rejection	NA	0
8	Triplet	53	539	215	0	1	1	181418	691	1	hit	317	0
8	Triplet	54	540	216	9	0	0	182126	692	0	correct_rejection	NA	0
8	Triplet	55	541	217	9	0	0	182835	691	0	correct_rejection	NA	0
8	Triplet	56	542	218	8	0	0	183543	692	0	correct_rejection	NA	0
8	Triplet	57	543	219	7	0	0	184252	692	0	correct_rejection	NA	0
8	Triplet	58	544	220	4	0	0	184960	692	0	correct_rejection	NA	0
8	Triplet	59	545	221	5	0	0	185669	692	0	correct_rejection	NA	0
8	Triplet	60	546	222	0	1	1	186378	691	1	hit	301	0
8	Triplet	61	547	223	6	0	0	187086	692	0	correct_rejection	NA	0
8	Triplet	62	548	224	7	0	0	187795	691	0	correct_rejection	NA	0
8	Triplet	63	549	225	8	0	0	188503	692	0	correct_rejection	NA	0
8	Triplet	64	550	226	9	0	0	189212	692	0	correct_rejection	NA	0
8	Triplet	65	551	227	6	0	0	189920	692	0	correct_rejection	NA	0
8	Triplet	66	552	228	0	1	1	190629	692	1	hit	324	0
8	Triplet	67	553	229	5	0	0	191338	691	0	correct_rejection	NA	0
8	Triplet	68	554	230	4	0	0	192046	692	0	correct_rejection	NA	0
8	Triplet	69	555	231	6	0	0	192755	691	0	correct_rejection	NA	0
8	Triplet	70	556	232	5	0	0	193463	692	0	correct_rejection	NA	0
8	Triplet	71	557	233	4	0	0	194172	692	0	correct_rejection	NA	0
8	Triplet	72	558	234	4	0	0	194880	692	0	correct_rejection	NA	0
8	Triplet	73	559	235	5	0	0	195589	692	0	correct_rejection	NA	0
8	Triplet	74	560	236	6	0	0	196298	691	0	correct_rejection	NA	0
8	Triplet	75	561	237	4	0	0	197006	692	0	correct_rejection	NA	0
8	Triplet	76	562	238	5	0	0	197715	691	0	correct_rejection	NA	0
8	Triplet	77	563	239	6	0	0	198423	692	0	correct_rejection	NA	0
8	Triplet	78	564	240	0	1	2	199132	691	1	hit	302	0
8	Triplet	79	565	241	6	0	0	199840	692	0	correct_rejection	NA	0
8	Triplet	80	566	242	5	0	0	200549	692	0	correct_rejection	NA	0
8	Triplet	81	567	243	4	0	0	201257	692	0	correct_rejection	NA	0
8	Triplet	82	568	244	7	0	0	201966	692	0	correct_rejection	NA	0
8	Triplet	83	569	245	0	1	1	202675	691	1	hit	359	0
8	Triplet	84	570	246	8	0	0	203383	692	0	correct_rejection	NA	0
8	Triplet	85	571	247	9	0	0	204092	691	0	correct_rejection	NA	0
8	Triplet	86	572	248	0	1	2	204800	692	1	hit	307	0
8	Triplet	87	573	249	9	0	0	205509	692	0	correct_rejection	NA	0
8	Triplet	88	574	250	8	0	0	206217	692	0	correct_rejection	NA	0
8	Triplet	89	575	251	0	1	1	206926	692	1	hit	314	0
8	Triplet	90	576	252	7	0	0	207635	691	0	correct_rejection	NA	0
8	Triplet	91	577	253	4	0	0	208343	692	0	correct_rejection	NA	0
8	Triplet	92	578	254	5	0	0	209052	691	0	correct_rejection	NA	0
8	Triplet	93	579	255	6	0	0	209760	692	0	correct_rejection	NA	0
8	Triplet	94	580	256	9	0	0	210469	692	0	correct_rejection	NA	0
8	Triplet	95	581	257	8	0	0	211177	692	0	correct_rejection	NA	0
8	Triplet	96	582	258	7	0	0	211886	692	0	correct_rejection	NA	0
8	Triplet	97	583	259	9	0	0	212595	691	0	correct_rejection	NA	0
8	Triplet	98	584	260	8	0	0	213303	692	0	correct_rejection	NA	0
8	Triplet	99	585	261	0	1	1	214012	691	1	hit	360	0
8	Triplet	100	586	262	7	0	0	214720	692	0	correct_rejection	NA	0
8	Triplet	101	587	263	6	0	0	215429	692	0	correct_rejection	NA	0
8	Triplet	102	588	264	5	0	0	216137	692	0	correct_rejection	NA	0
8	Triplet	103	589	265	4	0	0	216846	692	0	correct_rejection	NA	0
8	Triplet	104	590	266	9	0	0	217555	691	0	correct_rejection	NA	0
8	Triplet	105	591	267	8	0	0	218263	692	0	correct_rejection	NA	0
8	Triplet	106	592	268	7	0	0	218972	691	0	correct_rejection	NA	0
8	Triplet	107	593	269	7	0	0	219680	692	0	correct_rejection	NA	0
8	Triplet	108	594	270	8	0	0	220389	691	0	correct_rejection	NA	0
8	Triplet	109	595	271	9	0	0	221097	692	0	correct_rejection	NA	0
8	Triplet	110	596	272	7	0	0	221806	692	0	correct_rejection	NA	0
8	Triplet	111	597	273	8	0	0	222514	692	0	correct_rejection	NA	0
8	Triplet	112	598	274	9	0	0	223223	692	0	correct_rejection	NA	0
8	Triplet	113	599	275	6	0	0	223932	691	0	correct_rejection	NA	0
8	Triplet	114	600	276	5	0	0	224640	692	0	correct_rejection	NA	0
8	Triplet	115	601	277	4	0	0	225349	691	0	correct_rejection	NA	0
8	Triplet	116	602	278	0	1	2	226057	692	1	hit	321	0
8	Triplet	117	603	279	9	0	0	226766	692	0	correct_rejection	NA	0
8	Triplet	118	604	280	8	0	0	227474	692	0	correct_rejection	NA	0
8	Triplet	119	605	281	7	0	0	228183	692	0	correct_rejection	NA	0
8	Triplet	120	606	282	6	0	0	228892	691	0	correct_rejection	NA	0
8	Triplet	121	607	283	5	0	0	229600	692	0	correct_rejection	NA	0
8	Triplet	122	608	284	4	0	0	230309	691	0	correct_rejection	NA	0
8	Triplet	123	609	285	7	0	0	231017	692	0	correct_rejection	NA	0
8	Triplet	124	610	286	8	0	0	231726	692	0	correct_rejection	NA	0
8	Triplet	125	611	287	9	0	0	232434	692	0	correct_rejection	NA	0
8	Triplet	126	612	288	7	0	0	233143	692	0	correct_rejection	NA	0
8	Triplet	127	613	289	8	0	0	233852	691	0	correct_rejection	NA	0
8	Triplet	128	614	290	9	0	0	234560	692	0	correct_rejection	NA	0
8	Triplet	129	615	291	4	0	0	235269	691	0	correct_rejection	NA	0
8	Triplet	130	616	292	5	0	0	235977	692	0	correct_rejection	NA	0
8	Triplet	131	617	293	6	0	0	236686	692	0	correct_rejection	NA	0
8	Triplet	132	618	294	6	0	0	237394	692	0	correct_rejection	NA	0
8	Triplet	133	619	295	5	0	0	238103	692	0	correct_rejection	NA	0
8	Triplet	134	620	296	4	0	0	238812	691	0	correct_rejection	NA	0
8	Triplet	135	621	297	4	0	0	239520	692	0	correct_rejection	NA	0
8	Triplet	136	622	298	5	0	0	240229	691	0	correct_rejection	NA	0
8	Triplet	137	623	299	6	0	0	240937	692	0	correct_rejection	NA	0
8	Triplet	138	624	300	7	0	0	241646	691	0	correct_rejection	NA	0
8	Triplet	139	625	301	8	0	0	242354	692	0	correct_rejection	NA	0
8	Triplet	140	626	302	9	0	0	243063	692	0	correct_rejection	NA	0
8	Triplet	141	627	303	9	0	0	243771	692	0	correct_rejection	NA	0
8	Triplet	142	628	304	8	0	0	244480	692	0	correct_rejection	NA	0
8	Triplet	143	629	305	7	0	0	245189	691	0	correct_rejection	NA	0
8	Triplet	144	630	306	0	1	2	245897	692	1	hit	331	0
8	Triplet	145	631	307	9	0	0	246606	691	0	correct_rejection	NA	0
8	Triplet	146	632	308	8	0	0	247314	692	0	correct_rejection	NA	0
8	Triplet	147	633	309	7	0	0	248023	692	0	correct_rejection	NA	0
8	Triplet	148	634	310	4	0	0	248731	692	0	correct_rejection	NA	0
8	Triplet	149	635	311	5	0	0	249440	692	0	correct_rejection	NA	0
8	Triplet	150	636	312	6	0	0	250149	691	0	correct_rejection	NA	0
8	Triplet	151	637	313	4	0	0	250857	692	0	correct_rejection	NA	0
8	Triplet	152	638	314	5	0	0	251566	691	0	correct_rejection	NA	0
8	Triplet	153	639	315	6	0	0	252274	692	0	correct_rejection	NA	0
8	Triplet	154	640	316	9	0	0	252983	692	0	correct_rejection	NA	0
8	Triplet	155	641	317	8	0	0	253691	692	0	correct_rejection	NA	0
8	Triplet	156	642	318	7	0	0	254400	692	0	correct_rejection	NA	0
8	Triplet	157	643	319	7	0	0	255109	691	0	correct_rejection	NA	0
8	Triplet	158	644	320	8	0	0	255817	692	0	correct_rejection	NA	0
8	Triplet	159	645	321	9	0	0	256526	691	0	correct_rejection	NA	0
8	Triplet	160	646	322	6	0	0	257234	692	0	correct_rejection	NA	0
8	Triplet	161	647	323	5	0	0	257943	692	0	correct_rejection	NA	0
8	Triplet	162	648	324	4	0	0	258651	692	0	correct_rejection	NA	0
8	Nonet	1	163	325	4	0	0	269013	692	0	correct_rejection	NA	7659
8	Nonet	2	164	326	5	0	0	269722	691	0	correct_rejection	NA	0
8	Nonet	3	165	327	6	0	0	270430	692	0	correct_rejection	NA	0
8	Nonet	4	166	328	4	0	0	271139	692	0	correct_rejection	NA	0
8	Nonet	5	167	329	5	0	0	271847	692	0	correct_rejection	NA	0
8	Nonet	6	168	330	6	0	0	272556	692	0	correct_rejection	NA	0
8	Nonet	7	169	331	4	0	0	273265	691	0	correct_rejection	NA	0
8	Nonet	8	170	332	5	0	0	273973	692	0	correct_rejection	NA	0
8	Nonet	9	171	333	0	1	1	274682	691	1	hit	316	0
8	Nonet	10	172	334	6	0	0	275390	692	0	correct_rejection	NA	0
8	Nonet	11	173	335	4	0	0	276099	692	0	correct_rejection	NA	0
8	Nonet	12	174	336	5	0	0	276807	692	0	correct_rejection	NA	0
8	Nonet	13	175	337	6	0	0	277516	692	0	correct_rejection	NA	0
8	Nonet	14	176	338	4	0	0	278225	691	0	correct_rejection	NA	0
8	Nonet	15	177	339	5	0	0	278933	692	0	correct_rejection	NA	0
8	Nonet	16	178	340	6	0	0	279642	691	0	correct_rejection	NA	0
8	Nonet	17	179	341	4	0	0	280350	692	0	correct_rejection	NA	0
8	Nonet	18	180	342	5	0	0	281059	691	0	correct_rejection	NA	0
8	Nonet	19	181	343	6	0	0	281767	692	0	correct_rejection	NA	0
8	Nonet	20	182	344	7	0	0	282476	692	0	correct_rejection	NA	0
8	Nonet	21	183	345	8	0	0	283184	692	0	correct_rejection	NA	0
8	Nonet	22	184	346	9	0	0	283893	692	0	correct_rejection	NA	0
8	Nonet	23	185	347	7	0	0	284602	691	0	correct_rejection	NA	0
8	Nonet	24	186	348	8	0	0	285310	692	0	correct_rejection	NA	0
8	Nonet	25	187	349	9	0	0	286019	691	0	correct_rejection	NA	0
8	Nonet	26	188	350	7	0	0	286727	692	0	correct_rejection	NA	0
8	Nonet	27	189	351	0	1	1	287436	692	1	hit	317	0
8	Nonet	28	190	352	8	0	0	288144	692	0	correct_rejection	NA	0
8	Nonet	29	191	353	9	0	0	288853	692	0	correct_rejection	NA	0
8	Nonet	30	192	354	0	1	3	289562	691	1	hit	391	0
8	Nonet	31	193	355	7	0	0	290270	692	0	correct_rejection	NA	0
8	Nonet	32	194	356	8	0	0	290979	691	0	correct_rejection	NA	0
8	Nonet	33	195	357	9	0	0	291687	692	0	correct_rejection	NA	0
8	Nonet	34	196	358	7	0	0	292396	692	0	correct_rejection	NA	0
8	Nonet	35	197	359	0	1	1	293104	692	1	hit	293	0
8	Nonet	36	198	360	8	0	0	293813	692	0	correct_rejection	NA	0
8	Nonet	37	199	361	9	0	0	294522	691	0	correct_rejection	NA	0
8	Nonet	38	200	362	7	0	0	295230	692	0	correct_rejection	NA	0
8	Nonet	39	201	363	8	0	0	295939	691	0	correct_rejection	NA	0
8	Nonet	40	202	364	9	0	0	296647	692	0	correct_rejection	NA	0
8	Nonet	41	203	365	6	0	0	297356	692	0	correct_rejection	NA	0
8	Nonet	42	204	366	5	0	0	298064	692	0	correct_rejection	NA	0
8	Nonet	43	205	367	4	0	0	298773	692	0	correct_rejection	NA	0
8	Nonet	44	206	368	6	0	0	299482	691	0	correct_rejection	NA	0
8	Nonet	45	207	369	5	0	0	300190	692	0	correct_rejection	NA	0
8	Nonet	46	208	370	4	0	0	300899	691	0	correct_rejection	NA	0
8	Nonet	47	209	371	6	0	0	301607	692	0	correct_rejection	NA	0
8	Nonet	48	210	372	5	0	0	302316	691	0	correct_rejection	NA	0
8	Nonet	49	211	373	0	1	1	303024	692	1	hit	311	0
8	Nonet	50	212	374	4	0	0	303733	692	0	correct_rejection	NA	0
8	Nonet	51	213	375	6	0	0	304441	692	0	correct_rejection	NA	0
8	Nonet	52	214	376	5	0	0	305150	692	0	correct_rejection	NA	0
8	Nonet	53	215	377	4	0	0	305859	691	0	correct_rejection	NA	0
8	Nonet	54	216	378	6	0	0	306567	692	0	correct_rejection	NA	0
8	Nonet	55	217	379	0	1	1	307276	691	1	hit	330	0
8	Nonet	56	218	380	5	0	0	307984	692	0	correct_rejection	NA	0
8	Nonet	57	219	381	4	0	0	308693	692	0	correct_rejection	NA	0
8	Nonet	58	220	382	6	0	0	309401	692	0	correct_rejection	NA	0
8	Nonet	59	221	383	5	0	0	310110	692	0	correct_rejection	NA	0
8	Nonet	60	222	384	4	0	0	310819	691	0	correct_rejection	NA	0
8	Nonet	61	223	385	4	0	0	311527	692	0	correct_rejection	NA	0
8	Nonet	62	224	386	0	1	1	312236	691	1	hit	289	0
8	Nonet	63	225	387	5	0	0	312944	692	0	correct_rejection	NA	0
8	Nonet	64	226	388	6	0	0	313653	692	0	correct_rejection	NA	0
8	Nonet	65	227	389	4	0	0	314361	692	0	correct_rejection	NA	0
8	Nonet	66	228	390	5	0	0	315070	692	0	correct_rejection	NA	0
8	Nonet	67	229	391	6	0	0	315779	691	0	correct_rejection	NA	0
8	Nonet	68	230	392	4	0	0	316487	692	0	correct_rejection	NA	0
8	Nonet	69	231	393	5	0	0	317196	691	0	correct_rejection	NA	0
8	Nonet	70	232	394	6	0	0	317904	692	0	correct_rejection	NA	0
8	Nonet	71	233	395	6	0	0	318613	692	0	correct_rejection	NA	0
8	Nonet	72	234	396	5	0	0	319321	692	0	correct_rejection	NA	0
8	Nonet	73	235	397	4	0	0	320030	692	0	correct_rejection	NA	0
8	Nonet	74	236	398	6	0	0	320739	691	0	correct_rejection	NA	0
8	Nonet	75	237	399	0	1	1	321447	692	1	hit	324	0
8	Nonet	76	238	400	5	0	0	322156	691	0	correct_rejection	NA	0
8	Nonet	77	239	401	4	0	0	322864	692	0	correct_rejection	NA	0
8	Nonet	78	240	402	0	1	2	323573	692	1	hit	313	0
8	Nonet	79	241	403	6	0	0	324281	692	0	correct_rejection	NA	0
8	Nonet	80	242	404	5	0	0	324990	692	0	correct_rejection	NA	0
8	Nonet	81	243	405	4	0	0	325699	691	0	correct_rejection	NA	0
8	Nonet	82	244	406	9	0	0	326407	692	0	correct_rejection	NA	0
8	Nonet	83	245	407	0	1	1	327116	691	1	hit	305	0
8	Nonet	84	246	408	8	0	0	327824	692	0	correct_rejection	NA	0
8	Nonet	85	247	409	7	0	0	328533	691	0	correct_rejection	NA	0
8	Nonet	86	248	410	9	0	0	329241	692	0	correct_rejection	NA	0
8	Nonet	87	249	411	8	0	0	329950	692	0	correct_rejection	NA	0
8	Nonet	88	250	412	7	0	0	330658	692	0	correct_rejection	NA	0
8	Nonet	89	251	413	9	0	0	331367	692	0	correct_rejection	NA	0
8	Nonet	90	252	414	8	0	0	332076	691	0	correct_rejection	NA	0
8	Nonet	91	253	415	7	0	0	332784	692	0	correct_rejection	NA	0
8	Nonet	92	254	416	4	0	0	333493	691	0	correct_rejection	NA	0
8	Nonet	93	255	417	5	0	0	334201	692	0	correct_rejection	NA	0
8	Nonet	94	256	418	6	0	0	334910	692	0	correct_rejection	NA	0
8	Nonet	95	257	419	0	1	2	335618	692	1	hit	305	0
8	Nonet	96	258	420	4	0	0	336327	692	0	correct_rejection	NA	0
8	Nonet	97	259	421	5	0	0	337036	691	0	correct_rejection	NA	0
8	Nonet	98	260	422	6	0	0	337744	692	0	correct_rejection	NA	0
8	Nonet	99	261	423	4	0	0	338453	691	0	correct_rejection	NA	0
8	Nonet	100	262	424	0	1	1	339161	692	1	hit	326	0
8	Nonet	101	263	425	5	0	0	339870	692	0	correct_rejection	NA	0
8	Nonet	102	264	426	6	0	0	340578	692	0	correct_rejection	NA	0
8	Nonet	103	265	427	9	0	0	341287	692	0	correct_rejection	NA	0
8	Nonet	104	266	428	0	1	1	341996	691	1	hit	308	0
8	Nonet	105	267	429	8	0	0	342704	692	0	correct_rejection	NA	0
8	Nonet	106	268	430	7	0	0	343413	691	0	correct_rejection	NA	0
8	Nonet	107	269	431	9	0	0	344121	692	0	correct_rejection	NA	0
8	Nonet	108	270	432	0	1	1	344830	692	1	hit	299	0
8	Nonet	109	271	433	8	0	0	345538	692	0	correct_rejection	NA	0
8	Nonet	110	272	434	7	0	0	346247	692	0	correct_rejection	NA	0
8	Nonet	111	273	435	9	0	0	346956	691	0	correct_rejection	NA	0
8	Nonet	112	274	436	8	0	0	347664	692	0	correct_rejection	NA	0
8	Nonet	113	275	437	7	0	0	348373	691	0	correct_rejection	NA	0
8	Nonet	114	276	438	0	1	3	349081	692	1	hit	386	0
8	Nonet	115	277	439	7	0	0	349790	691	0	correct_rejection	NA	0
8	Nonet	116	278	440	8	0	0	350498	692	0	correct_rejection	NA	0
8	Nonet	117	279	441	9	0	0	351207	692	0	correct_rejection	NA	0
8	Nonet	118	280	442	7	0	0	351915	692	0	correct_rejection	NA	0
8	Nonet	119	281	443	8	0	0	352624	692	0	correct_rejection	NA	0
8	Nonet	120	282	444	9	0	0	353333	691	0	correct_rejection	NA	0
8	Nonet	121	283	445	7	0	0	354041	692	0	correct_rejection	NA	0
8	Nonet	122	284	446	8	0	0	354750	691	0	correct_rejection	NA	0
8	Nonet	123	285	447	9	0	0	355458	692	0	correct_rejection	NA	0
8	Nonet	124	286	448	9	0	0	356167	692	0	correct_rejection	NA	0
8	Nonet	125	287	449	8	0	0	356875	692	0	correct_rejection	NA	0
8	Nonet	126	288	450	7	0	0	357584	692	0	correct_rejection	NA	0
8	Nonet	127	289	451	9	0	0	358293	691	0	correct_rejection	NA	0
8	Nonet	128	290	452	8	0	0	359001	692	0	correct_rejection	NA	0
8	Nonet	129	291	453	7	0	0	359710	691	0	correct_rejection	NA	0
8	Nonet	130	292	454	9	0	0	360418	692	0	correct_rejection	NA	0
8	Nonet	131	293	455	8	0	0	361127	692	0	correct_rejection	NA	0
8	Nonet	132	294	456	7	0	0	361835	692	0	correct_rejection	NA	0
8	Nonet	133	295	457	0	1	3	362544	692	1	hit	375	0
8	Nonet	134	296	458	9	0	0	363253	691	0	correct_rejection	NA	0
8	Nonet	135	297	459	8	0	0	363961	692	0	correct_rejection	NA	0
8	Nonet	136	298	460	7	0	0	364670	691	0	correct_rejection	NA	0
8	Nonet	137	299	461	9	0	0	365378	692	0	correct_rejection	NA	0
8	Nonet	138	300	462	8	0	0	366087	692	0	correct_rejection	NA	0
8	Nonet	139	301	463	7	0	0	366795	692	0	correct_rejection	NA	0
8	Nonet	140	302	464	9	0	0	367504	692	0	correct_rejection	NA	0
8	Nonet	141	303	465	8	0	0	368213	691	0	correct_rejection	NA	0
8	Nonet	142	304	466	7	0	0	368921	692	0	correct_rejection	NA	0
8	Nonet	143	305	467	6	0	0	369630	691	0	correct_rejection	NA	0
8	Nonet	144	306	468	5	0	0	370338	692	0	correct_rejection	NA	0
8	Nonet	145	307	469	4	0	0	371047	691	0	correct_rejection	NA	0
8	Nonet	146	308	470	0	1	2	371755	692	1	hit	464	0
8	Nonet	147	309	471	6	0	0	372464	692	0	correct_rejection	NA	0
8	Nonet	148	310	472	5	0	0	373172	692	0	correct_rejection	NA	0
8	Nonet	149	311	473	4	0	0	373881	692	0	correct_rejection	NA	0
8	Nonet	150	312	474	6	0	0	374590	691	0	correct_rejection	NA	0
8	Nonet	151	313	475	5	0	0	375298	692	0	correct_rejection	NA	0
8	Nonet	152	314	476	4	0	0	376007	691	0	correct_rejection	NA	0
8	Nonet	153	315	477	7	0	0	376715	692	0	correct_rejection	NA	0
8	Nonet	154	316	478	8	0	0	377424	692	0	correct_rejection	NA	0
8	Nonet	155	317	479	0	1	1	378132	692	1	hit	295	0
8	Nonet	156	318	480	9	0	0	378841	692	0	correct_rejection	NA	0
8	Nonet	157	319	481	7	0	0	379550	691	0	correct_rejection	NA	0
8	Nonet	158	320	482	8	0	0	380258	692	0	correct_rejection	NA	0
8	Nonet	159	321	483	9	0	0	380967	691	0	correct_rejection	NA	0
8	Nonet	160	322	484	7	0	0	381675	692	0	correct_rejection	NA	0
8	Nonet	161	323	485	8	0	0	382384	692	0	correct_rejection	NA	0
8	Nonet	162	324	486	9	0	0	383092	692	0	correct_rejection	NA	0
8	Single	1	163	487	8	0	0	392345	692	0	correct_rejection	NA	6999
8	Single	2	164	488	6	0	0	393054	692	0	correct_rejection	NA	0
8	Single	3	165	489	7	0	0	393763	691	0	correct_rejection	NA	0
8	Single	4	166	490	5	0	0	394471	692	0	correct_rejection	NA	0
8	Single	5	167	491	0	1	1	395180	691	1	hit	294	0
8	Single	6	168	492	5	0	0	395888	692	0	correct_rejection	NA	0
8	Single	7	169	493	7	0	0	396597	692	0	correct_rejection	NA	0
8	Single	8	170	494	6	0	0	397305	692	0	correct_rejection	NA	0
8	Single	9	171	495	0	1	1	398014	692	1	hit	372	0
8	Single	10	172	496	8	0	0	398723	691	0	correct_rejection	NA	0
8	Single	11	173	497	7	0	0	399431	692	0	correct_rejection	NA	0
8	Single	12	174	498	7	0	0	400140	691	0	correct_rejection	NA	0
8	Single	13	175	499	8	0	0	400848	692	0	correct_rejection	NA	0
8	Single	14	176	500	8	0	0	401557	692	0	correct_rejection	NA	0
8	Single	15	177	501	4	0	0	402265	692	0	correct_rejection	NA	0
8	Single	16	178	502	7	0	0	402974	692	0	correct_rejection	NA	0
8	Single	17	179	503	0	1	1	403683	691	1	hit	304	0
8	Single	18	180	504	9	0	0	404391	692	0	correct_rejection	NA	0
8	Single	19	181	505	6	0	0	405100	691	0	correct_rejection	NA	0
8	Single	20	182	506	5	0	0	405808	692	0	correct_rejection	NA	0
8	Single	21	183	507	9	0	0	406517	692	0	correct_rejection	NA	0
8	Single	22	184	508	7	0	0	407225	692	0	correct_rejection	NA	0
8	Single	23	185	509	4	0	0	407934	692	0	correct_rejection	NA	0
8	Single	24	186	510	4	0	0	408643	691	0	correct_rejection	NA	0
8	Single	25	187	511	0	1	1	409351	692	1	hit	402	0
8	Single	26	188	512	6	0	0	410060	691	0	correct_rejection	NA	0
8	Single	27	189	513	9	0	0	410768	692	0	correct_rejection	NA	0
8	Single	28	190	514	9	0	0	411477	691	0	correct_rejection	NA	0
8	Single	29	191	515	5	0	0	412185	692	0	correct_rejection	NA	0
8	Single	30	192	516	6	0	0	412894	692	0	correct_rejection	NA	0
8	Single	31	193	517	6	0	0	413602	692	0	correct_rejection	NA	0
8	Single	32	194	518	0	1	1	414311	692	1	hit	315	0
8	Single	33	195	519	4	0	0	415020	691	0	correct_rejection	NA	0
8	Single	34	196	520	8	0	0	415728	692	0	correct_rejection	NA	0
8	Single	35	197	521	5	0	0	416437	691	0	correct_rejection	NA	0
8	Single	36	198	522	4	0	0	417145	692	0	correct_rejection	NA	0
8	Single	37	199	523	9	0	0	417854	692	0	correct_rejection	NA	0
8	Single	38	200	524	4	0	0	418562	692	0	correct_rejection	NA	0
8	Single	39	201	525	5	0	0	419271	692	0	correct_rejection	NA	0
8	Single	40	202	526	8	0	0	419980	691	0	correct_rejection	NA	0
8	Single	41	203	527	9	0	0	420688	692	0	correct_rejection	NA	0
8	Single	42	204	528	9	0	0	421397	691	0	correct_rejection	NA	0
8	Single	43	205	529	7	0	0	422105	692	0	correct_rejection	NA	0
8	Single	44	206	530	6	0	0	422814	692	0	correct_rejection	NA	0
8	Single	45	207	531	9	0	0	423522	692	0	correct_rejection	NA	0
8	Single	46	208	532	6	0	0	424231	692	0	correct_rejection	NA	0
8	Single	47	209	533	8	0	0	424940	691	0	correct_rejection	NA	0
8	Single	48	210	534	0	1	1	425648	692	1	hit	344	0
8	Single	49	211	535	4	0	0	426357	691	0	correct_rejection	NA	0
8	Single	50	212	536	8	0	0	427065	692	0	correct_rejection	NA	0
8	Single	51	213	537	8	0	0	427774	692	0	correct_rejection	NA	0
8	Single	52	214	538	0	1	1	428482	692	1	hit	457	0
8	Single	53	215	539	5	0	0	429191	692	0	correct_rejection	NA	0
8	Single	54	216	540	7	0	0	429900	691	0	correct_rejection	NA	0
8	Single	55	217	541	7	0	0	430608	692	0	correct_rejection	NA	0
8	Single	56	218	542	5	0	0	431317	691	0	correct_rejection	NA	0
8	Single	57	219	543	6	0	0	432025	692	0	correct_rejection	NA	0
8	Single	58	220	544	4	0	0	432734	691	0	correct_rejection	NA	0
8	Single	59	221	545	7	0	0	433442	692	0	correct_rejection	NA	0
8	Single	60	222	546	0	1	1	434151	692	1	hit	381	0
8	Single	61	223	547	4	0	0	434859	692	0	correct_rejection	NA	0
8	Single	62	224	548	6	0	0	435568	692	0	correct_rejection	NA	0
8	Single	63	225	549	5	0	0	436277	691	0	correct_rejection	NA	0
8	Single	64	226	550	5	0	0	436985	692	0	correct_rejection	NA	0
8	Single	65	227	551	8	0	0	437694	691	0	correct_rejection	NA	0
8	Single	66	228	552	0	1	1	438402	692	1	hit	317	0
8	Single	67	229	553	7	0	0	439111	692	0	correct_rejection	NA	0
8	Single	68	230	554	8	0	0	439819	692	0	correct_rejection	NA	0
8	Single	69	231	555	9	0	0	440528	692	0	correct_rejection	NA	0
8	Single	70	232	556	0	1	1	441237	691	1	hit	324	0
8	Single	71	233	557	4	0	0	441945	692	0	correct_rejection	NA	0
8	Single	72	234	558	9	0	0	442654	691	0	correct_rejection	NA	0
8	Single	73	235	559	5	0	0	443362	692	0	correct_rejection	NA	0
8	Single	74	236	560	4	0	0	444071	692	0	correct_rejection	NA	0
8	Single	75	237	561	4	0	0	444779	692	0	correct_rejection	NA	0
8	Single	76	238	562	5	0	0	445488	692	0	correct_rejection	NA	0
8	Single	77	239	563	0	1	1	446197	691	1	hit	292	0
8	Single	78	240	564	9	0	0	446905	692	0	correct_rejection	NA	0
8	Single	79	241	565	9	0	0	447614	691	0	correct_rejection	NA	0
8	Single	80	242	566	8	0	0	448322	692	0	correct_rejection	NA	0
8	Single	81	243	567	6	0	0	449031	692	0	correct_rejection	NA	0
8	Single	82	244	568	6	0	0	449739	692	0	correct_rejection	NA	0
8	Single	83	245	569	7	0	0	450448	692	0	correct_rejection	NA	0
8	Single	84	246	570	7	0	0	451157	691	0	correct_rejection	NA	0
8	Single	85	247	571	5	0	0	451865	692	0	correct_rejection	NA	0
8	Single	86	248	572	7	0	0	452574	691	0	correct_rejection	NA	0
8	Single	87	249	573	9	0	0	453282	692	0	correct_rejection	NA	0
8	Single	88	250	574	9	0	0	453991	691	0	correct_rejection	NA	0
8	Single	89	251	575	7	0	0	454699	692	0	correct_rejection	NA	0
8	Single	90	252	576	7	0	0	455408	692	0	correct_rejection	NA	0
8	Single	91	253	577	4	0	0	456116	692	0	correct_rejection	NA	0
8	Single	92	254	578	8	0	0	456825	692	0	correct_rejection	NA	0
8	Single	93	255	579	7	0	0	457534	691	0	correct_rejection	NA	0
8	Single	94	256	580	6	0	0	458242	692	0	correct_rejection	NA	0
8	Single	95	257	581	5	0	0	458951	691	0	correct_rejection	NA	0
8	Single	96	258	582	6	0	0	459659	692	0	correct_rejection	NA	0
8	Single	97	259	583	7	0	0	460368	692	0	correct_rejection	NA	0
8	Single	98	260	584	8	0	0	461076	692	0	correct_rejection	NA	0
8	Single	99	261	585	5	0	0	461785	692	0	correct_rejection	NA	0
8	Single	100	262	586	9	0	0	462494	691	0	correct_rejection	NA	0
8	Single	101	263	587	4	0	0	463202	692	0	correct_rejection	NA	0
8	Single	102	264	588	4	0	0	463911	691	0	correct_rejection	NA	0
8	Single	103	265	589	9	0	0	464619	692	0	correct_rejection	NA	0
8	Single	104	266	590	0	1	1	465328	692	1	hit	322	0
8	Single	105	267	591	8	0	0	466036	692	0	correct_rejection	NA	0
8	Single	106	268	592	9	0	0	466745	692	0	correct_rejection	NA	0
8	Single	107	269	593	6	0	0	467454	691	0	correct_rejection	NA	0
8	Single	108	270	594	9	0	0	468162	692	0	correct_rejection	NA	0
8	Single	109	271	595	0	1	1	468871	691	1	hit	347	0
8	Single	110	272	596	5	0	0	469579	692	0	correct_rejection	NA	0
8	Single	111	273	597	8	0	0	470288	692	0	correct_rejection	NA	0
8	Single	112	274	598	4	0	0	470996	692	0	correct_rejection	NA	0
8	Single	113	275	599	5	0	0	471705	692	0	correct_rejection	NA	0
8	Single	114	276	600	5	0	0	472414	691	0	correct_rejection	NA	0
8	Single	115	277	601	4	0	0	473122	692	0	correct_rejection	NA	0
8	Single	116	278	602	6	0	0	473831	691	0	correct_rejection	NA	0
8	Single	117	279	603	6	0	0	474539	692	0	correct_rejection	NA	0
8	Single	118	280	604	8	0	0	475248	691	0	correct_rejection	NA	0
8	Single	119	281	605	8	0	0	475956	692	0	correct_rejection	NA	0
8	Single	120	282	606	6	0	0	476665	692	0	correct_rejection	NA	0
8	Single	121	283	607	4	0	0	477374	691	0	correct_rejection	NA	0
8	Single	122	284	608	8	0	0	478082	692	0	correct_rejection	NA	0
8	Single	123	285	609	4	0	0	478791	691	0	correct_rejection	NA	0
8	Single	124	286	610	6	0	0	479499	692	0	correct_rejection	NA	0
8	Single	125	287	611	0	1	1	480208	691	1	hit	353	0
8	Single	126	288	612	9	0	0	480916	692	0	correct_rejection	NA	0
8	Single	127	289	613	8	0	0	481625	692	0	correct_rejection	NA	0
8	Single	128	290	614	8	0	0	482333	692	0	correct_rejection	NA	0
8	Single	129	291	615	0	1	1	483042	692	1	hit	398	0
8	Single	130	292	616	9	0	0	483751	691	0	correct_rejection	NA	0
8	Single	131	293	617	5	0	0	484459	692	0	correct_rejection	NA	0
8	Single	132	294	618	9	0	0	485168	691	0	correct_rejection	NA	0
8	Single	133	295	619	7	0	0	485876	692	0	correct_rejection	NA	0
8	Single	134	296	620	5	0	0	486585	692	0	correct_rejection	NA	0
8	Single	135	297	621	8	0	0	487293	692	0	correct_rejection	NA	0
8	Single	136	298	622	5	0	0	488002	692	0	correct_rejection	NA	0
8	Single	137	299	623	5	0	0	488711	691	0	correct_rejection	NA	0
8	Single	138	300	624	6	0	0	489419	692	0	correct_rejection	NA	0
8	Single	139	301	625	8	0	0	490128	691	0	correct_rejection	NA	0
8	Single	140	302	626	0	1	1	490836	692	1	hit	269	0
8	Single	141	303	627	6	0	0	491545	692	0	correct_rejection	NA	0
8	Single	142	304	628	7	0	0	492253	692	0	correct_rejection	NA	0
8	Single	143	305	629	9	0	0	492962	692	0	correct_rejection	NA	0
8	Single	144	306	630	6	0	0	493671	691	0	correct_rejection	NA	0
8	Single	145	307	631	0	1	1	494379	692	1	hit	364	0
8	Single	146	308	632	5	0	0	495088	691	0	correct_rejection	NA	0
8	Single	147	309	633	4	0	0	495796	692	0	correct_rejection	NA	0
8	Single	148	310	634	0	1	1	496505	691	1	hit	307	0
8	Single	149	311	635	5	0	0	497213	692	0	correct_rejection	NA	0
8	Single	150	312	636	7	0	0	497922	692	0	correct_rejection	NA	0
8	Single	151	313	637	8	0	0	498631	691	0	correct_rejection	NA	0
8	Single	152	314	638	7	0	0	499339	692	0	correct_rejection	NA	0
8	Single	153	315	639	4	0	0	500048	691	0	correct_rejection	NA	0
8	Single	154	316	640	4	0	0	500756	692	0	correct_rejection	NA	0
8	Single	155	317	641	7	0	0	501465	691	0	correct_rejection	NA	0
8	Single	156	318	642	7	0	0	502173	692	0	correct_rejection	NA	0
8	Single	157	319	643	6	0	0	502882	692	0	correct_rejection	NA	0
8	Single	158	320	644	6	0	0	503590	692	0	correct_rejection	NA	0
8	Single	159	321	645	4	0	0	504299	692	0	correct_rejection	NA	0
8	Single	160	322	646	9	0	0	505008	691	0	correct_rejection	NA	0
8	Single	161	323	647	9	0	0	505716	692	0	correct_rejection	NA	0
8	Single	162	324	648	4	0	0	506425	691	0	correct_rejection	NA	0
8	Nonet	1	487	649	7	0	0	515970	691	0	correct_rejection	NA	7619
8	Nonet	2	488	650	8	0	0	516678	692	0	correct_rejection	NA	0
8	Nonet	3	489	651	9	0	0	517387	691	0	correct_rejection	NA	0
8	Nonet	4	490	652	0	1	2	518095	692	1	hit	353	0
8	Nonet	5	491	653	7	0	0	518804	692	0	correct_rejection	NA	0
8	Nonet	6	492	654	8	0	0	519512	692	0	correct_rejection	NA	0
8	Nonet	7	493	655	9	0	0	520221	692	0	correct_rejection	NA	0
8	Nonet	8	494	656	7	0	0	520930	691	0	correct_rejection	NA	0
8	Nonet	9	495	657	8	0	0	521638	692	0	correct_rejection	NA	0
8	Nonet	10	496	658	9	0	0	522347	691	0	correct_rejection	NA	0
8	Nonet	11	497	659	7	0	0	523055	692	0	correct_rejection	NA	0
8	Nonet	12	498	660	8	0	0	523764	691	0	correct_rejection	NA	0
8	Nonet	13	499	661	0	1	1	524472	692	1	hit	324	0
8	Nonet	14	500	662	9	0	0	525181	692	0	correct_rejection	NA	0
8	Nonet	15	501	663	7	0	0	525889	692	0	correct_rejection	NA	0
8	Nonet	16	502	664	0	1	1	526598	692	1	hit	357	0
8	Nonet	17	503	665	8	0	0	527307	691	0	correct_rejection	NA	0
8	Nonet	18	504	666	9	0	0	528015	692	0	correct_rejection	NA	0
8	Nonet	19	505	667	7	0	0	528724	691	0	correct_rejection	NA	0
8	Nonet	20	506	668	8	0	0	529432	692	0	correct_rejection	NA	0
8	Nonet	21	507	669	9	0	0	530141	692	0	correct_rejection	NA	0
8	Nonet	22	508	670	9	0	0	530849	692	0	correct_rejection	NA	0
8	Nonet	23	509	671	8	0	0	531558	692	0	correct_rejection	NA	0
8	Nonet	24	510	672	7	0	0	532267	691	0	correct_rejection	NA	0
8	Nonet	25	511	673	9	0	0	532975	692	0	correct_rejection	NA	0
8	Nonet	26	512	674	8	0	0	533684	691	0	correct_rejection	NA	0
8	Nonet	27	513	675	7	0	0	534392	692	0	correct_rejection	NA	0
8	Nonet	28	514	676	9	0	0	535101	692	0	correct_rejection	NA	0
8	Nonet	29	515	677	0	1	1	535809	692	1	hit	339	0
8	Nonet	30	516	678	8	0	0	536518	692	0	correct_rejection	NA	0
8	Nonet	31	517	679	7	0	0	537227	691	0	correct_rejection	NA	0
8	Nonet	32	518	680	9	0	0	537935	692	0	correct_rejection	NA	0
8	Nonet	33	519	681	8	0	0	538644	691	0	correct_rejection	NA	0
8	Nonet	34	520	682	7	0	0	539352	692	0	correct_rejection	NA	0
8	Nonet	35	521	683	9	0	0	540061	692	0	correct_rejection	NA	0
8	Nonet	36	522	684	0	1	1	540769	692	1	hit	303	0
8	Nonet	37	523	685	8	0	0	541478	692	0	correct_rejection	NA	0
8	Nonet	38	524	686	7	0	0	542187	691	0	correct_rejection	NA	0
8	Nonet	39	525	687	9	0	0	542895	692	0	correct_rejection	NA	0
8	Nonet	40	526	688	8	0	0	543604	691	0	correct_rejection	NA	0
8	Nonet	41	527	689	7	0	0	544312	692	0	correct_rejection	NA	0
8	Nonet	42	528	690	4	0	0	545021	691	0	correct_rejection	NA	0
8	Nonet	43	529	691	5	0	0	545729	692	0	correct_rejection	NA	0
8	Nonet	44	530	692	6	0	0	546438	692	0	correct_rejection	NA	0
8	Nonet	45	531	693	4	0	0	547146	692	0	correct_rejection	NA	0
8	Nonet	46	532	694	5	0	0	547855	692	0	correct_rejection	NA	0
8	Nonet	47	533	695	0	1	1	548564	691	1	hit	332	0
8	Nonet	48	534	696	6	0	0	549272	692	0	correct_rejection	NA	0
8	Nonet	49	535	697	4	0	0	549981	691	0	correct_rejection	NA	0
8	Nonet	50	536	698	5	0	0	550689	692	0	correct_rejection	NA	0
8	Nonet	51	537	699	6	0	0	551398	692	0	correct_rejection	NA	0
8	Nonet	52	538	700	6	0	0	552106	692	0	correct_rejection	NA	0
8	Nonet	53	539	701	5	0	0	552815	692	0	correct_rejection	NA	0
8	Nonet	54	540	702	4	0	0	553524	691	0	correct_rejection	NA	0
8	Nonet	55	541	703	6	0	0	554232	692	0	correct_rejection	NA	0
8	Nonet	56	542	704	5	0	0	554941	691	0	correct_rejection	NA	0
8	Nonet	57	543	705	4	0	0	555649	692	0	correct_rejection	NA	0
8	Nonet	58	544	706	6	0	0	556358	692	0	correct_rejection	NA	0
8	Nonet	59	545	707	5	0	0	557066	692	0	correct_rejection	NA	0
8	Nonet	60	546	708	4	0	0	557775	692	0	correct_rejection	NA	0
8	Nonet	61	547	709	4	0	0	558484	691	0	correct_rejection	NA	0
8	Nonet	62	548	710	5	0	0	559192	692	0	correct_rejection	NA	0
8	Nonet	63	549	711	6	0	0	559901	691	0	correct_rejection	NA	0
8	Nonet	64	550	712	4	0	0	560609	692	0	correct_rejection	NA	0
8	Nonet	65	551	713	5	0	0	561318	692	0	correct_rejection	NA	0
8	Nonet	66	552	714	6	0	0	562026	692	0	correct_rejection	NA	0
8	Nonet	67	553	715	0	1	2	562735	692	1	hit	407	0
8	Nonet	68	554	716	4	0	0	563444	691	0	correct_rejection	NA	0
8	Nonet	69	555	717	5	0	0	564152	692	0	correct_rejection	NA	0
8	Nonet	70	556	718	6	0	0	564861	691	0	correct_rejection	NA	0
8	Nonet	71	557	719	7	0	0	565569	692	0	correct_rejection	NA	0
8	Nonet	72	558	720	8	0	0	566278	692	0	correct_rejection	NA	0
8	Nonet	73	559	721	9	0	0	566986	692	0	correct_rejection	NA	0
8	Nonet	74	560	722	7	0	0	567695	692	0	correct_rejection	NA	0
8	Nonet	75	561	723	8	0	0	568404	691	0	correct_rejection	NA	0
8	Nonet	76	562	724	9	0	0	569112	692	0	correct_rejection	NA	0
8	Nonet	77	563	725	7	0	0	569821	691	0	correct_rejection	NA	0
8	Nonet	78	564	726	8	0	0	570529	692	0	correct_rejection	NA	0
8	Nonet	79	565	727	9	0	0	571238	691	0	correct_rejection	NA	0
8	Nonet	80	566	728	6	0	0	571946	692	0	correct_rejection	NA	0
8	Nonet	81	567	729	5	0	0	572655	692	0	correct_rejection	NA	0
8	Nonet	82	568	730	0	1	1	573363	692	1	hit	382	0
8	Nonet	83	569	731	4	0	0	574072	692	0	correct_rejection	NA	0
8	Nonet	84	570	732	6	0	0	574781	691	0	correct_rejection	NA	0
8	Nonet	85	571	733	5	0	0	575489	692	0	correct_rejection	NA	0
8	Nonet	86	572	734	4	0	0	576198	691	0	correct_rejection	NA	0
8	Nonet	87	573	735	0	1	2	576906	692	1	hit	371	0
8	Nonet	88	574	736	6	0	0	577615	692	0	correct_rejection	NA	0
8	Nonet	89	575	737	5	0	0	578323	692	0	correct_rejection	NA	0
8	Nonet	90	576	738	4	0	0	579032	692	0	correct_rejection	NA	0
8	Nonet	91	577	739	9	0	0	579741	691	0	correct_rejection	NA	0
8	Nonet	92	578	740	8	0	0	580449	692	0	correct_rejection	NA	0
8	Nonet	93	579	741	7	0	0	581158	691	0	correct_rejection	NA	0
8	Nonet	94	580	742	9	0	0	581866	692	0	correct_rejection	NA	0
8	Nonet	95	581	743	8	0	0	582575	692	0	correct_rejection	NA	0
8	Nonet	96	582	744	7	0	0	583283	692	0	correct_rejection	NA	0
8	Nonet	97	583	745	0	1	2	583992	692	1	hit	376	0
8	Nonet	98	584	746	9	0	0	584701	691	0	correct_rejection	NA	0
8	Nonet	99	585	747	8	0	0	585409	692	0	correct_rejection	NA	0
8	Nonet	100	586	748	7	0	0	586118	691	0	correct_rejection	NA	0
8	Nonet	101	587	749	6	0	0	586826	692	0	correct_rejection	NA	0
8	Nonet	102	588	750	5	0	0	587535	692	0	correct_rejection	NA	0
8	Nonet	103	589	751	0	1	1	588243	692	1	hit	307	0
8	Nonet	104	590	752	4	0	0	588952	692	0	correct_rejection	NA	0
8	Nonet	105	591	753	6	0	0	589661	691	0	correct_rejection	NA	0
8	Nonet	106	592	754	5	0	0	590369	692	0	correct_rejection	NA	0
8	Nonet	107	593	755	4	0	0	591078	691	0	correct_rejection	NA	0
8	Nonet	108	594	756	6	0	0	591786	692	0	correct_rejection	NA	0
8	Nonet	109	595	757	5	0	0	592495	691	0	correct_rejection	NA	0
8	Nonet	110	596	758	4	0	0	593203	692	0	correct_rejection	NA	0
8	Nonet	111	597	759	6	0	0	593912	692	0	correct_rejection	NA	0
8	Nonet	112	598	760	5	0	0	594620	692	0	correct_rejection	NA	0
8	Nonet	113	599	761	4	0	0	595329	692	0	correct_rejection	NA	0
8	Nonet	114	600	762	6	0	0	596038	691	0	correct_rejection	NA	0
8	Nonet	115	601	763	5	0	0	596746	692	0	correct_rejection	NA	0
8	Nonet	116	602	764	4	0	0	597455	691	0	correct_rejection	NA	0
8	Nonet	117	603	765	6	0	0	598163	692	0	correct_rejection	NA	0
8	Nonet	118	604	766	0	1	1	598872	692	1	hit	493	0
8	Nonet	119	605	767	5	0	0	599580	692	0	correct_rejection	NA	0
8	Nonet	120	606	768	4	0	0	600289	692	0	correct_rejection	NA	0
8	Nonet	121	607	769	7	0	0	600998	691	0	correct_rejection	NA	0
8	Nonet	122	608	770	8	0	0	601706	692	0	correct_rejection	NA	0
8	Nonet	123	609	771	0	1	1	602415	691	1	hit	373	0
8	Nonet	124	610	772	9	0	0	603123	692	0	correct_rejection	NA	0
8	Nonet	125	611	773	7	0	0	603832	692	0	correct_rejection	NA	0
8	Nonet	126	612	774	0	1	1	604540	692	1	hit	325	0
8	Nonet	127	613	775	8	0	0	605249	692	0	correct_rejection	NA	0
8	Nonet	128	614	776	9	0	0	605958	691	0	correct_rejection	NA	0
8	Nonet	129	615	777	0	1	2	606666	692	1	hit	350	0
8	Nonet	130	616	778	7	0	0	607375	691	0	correct_rejection	NA	0
8	Nonet	131	617	779	8	0	0	608083	692	0	correct_rejection	NA	0
8	Nonet	132	618	780	9	0	0	608792	692	1	false_alarm	275	0
8	Nonet	133	619	781	4	0	0	609500	692	0	correct_rejection	NA	0
8	Nonet	134	620	782	5	0	0	610209	692	0	correct_rejection	NA	0
8	Nonet	135	621	783	6	0	0	610918	691	0	correct_rejection	NA	0
8	Nonet	136	622	784	4	0	0	611626	692	0	correct_rejection	NA	0
8	Nonet	137	623	785	5	0	0	612335	691	0	correct_rejection	NA	0
8	Nonet	138	624	786	6	0	0	613043	692	0	correct_rejection	NA	0
8	Nonet	139	625	787	4	0	0	613752	692	0	correct_rejection	NA	0
8	Nonet	140	626	788	5	0	0	614460	692	0	correct_rejection	NA	0
8	Nonet	141	627	789	6	0	0	615169	692	0	correct_rejection	NA	0
8	Nonet	142	628	790	4	0	0	615877	692	0	correct_rejection	NA	0
8	Nonet	143	629	791	5	0	0	616586	692	0	correct_rejection	NA	0
8	Nonet	144	630	792	6	0	0	617295	691	0	correct_rejection	NA	0
8	Nonet	145	631	793	4	0	0	618003	692	0	correct_rejection	NA	0
8	Nonet	146	632	794	0	1	1	618712	691	1	hit	306	0
8	Nonet	147	633	795	5	0	0	619420	692	0	correct_rejection	NA	0
8	Nonet	148	634	796	6	0	0	620129	692	0	correct_rejection	NA	0
8	Nonet	149	635	797	0	1	2	620837	692	1	hit	366	0
8	Nonet	150	636	798	4	0	0	621546	692	0	correct_rejection	NA	0
8	Nonet	151	637	799	5	0	0	622255	691	0	correct_rejection	NA	0
8	Nonet	152	638	800	6	0	0	622963	692	0	correct_rejection	NA	0
8	Nonet	153	639	801	9	0	0	623672	691	0	correct_rejection	NA	0
8	Nonet	154	640	802	8	0	0	624380	692	0	correct_rejection	NA	0
8	Nonet	155	641	803	7	0	0	625089	692	0	correct_rejection	NA	0
8	Nonet	156	642	804	9	0	0	625797	692	0	correct_rejection	NA	0
8	Nonet	157	643	805	8	0	0	626506	692	0	correct_rejection	NA	0
8	Nonet	158	644	806	7	0	0	627215	691	0	correct_rejection	NA	0
8	Nonet	159	645	807	9	0	0	627923	692	0	correct_rejection	NA	0
8	Nonet	160	646	808	8	0	0	628632	691	0	correct_rejection	NA	0
8	Nonet	161	647	809	0	1	1	629340	692	1	hit	327	0
8	Nonet	162	648	810	7	0	0	630049	692	0	correct_rejection	NA	0
trigger nr 622 at 632304
trigger nr 626 at 706858
8	Correct	1	163	811	4	0	0	713385	691	0	correct_rejection	NA	6489
8	Correct	2	164	812	5	0	0	714093	692	0	correct_rejection	NA	0
8	Correct	3	165	813	6	0	0	714802	691	0	correct_rejection	NA	0
8	Correct	4	166	814	4	0	0	715510	692	0	correct_rejection	NA	0
8	Correct	5	167	815	5	0	0	716219	692	0	correct_rejection	NA	0
8	Correct	6	168	816	6	0	0	716927	692	0	correct_rejection	NA	0
8	Correct	7	169	817	4	0	0	717636	692	0	correct_rejection	NA	0
8	Correct	8	170	818	0	1	1	718345	691	1	hit	354	0
8	Correct	9	171	819	5	0	0	719053	692	0	correct_rejection	NA	0
8	Correct	10	172	820	6	0	0	719762	691	0	correct_rejection	NA	0
8	Correct	11	173	821	6	0	0	720470	692	0	correct_rejection	NA	0
8	Correct	12	174	822	5	0	0	721179	692	0	correct_rejection	NA	0
8	Correct	13	175	823	4	0	0	721887	692	0	correct_rejection	NA	0
8	Correct	14	176	824	0	1	2	722596	692	1	hit	365	0
8	Correct	15	177	825	6	0	0	723305	691	0	correct_rejection	NA	0
8	Correct	16	178	826	5	0	0	724013	692	0	correct_rejection	NA	0
8	Correct	17	179	827	4	0	0	724722	691	0	correct_rejection	NA	0
8	Correct	18	180	828	6	0	0	725430	692	0	correct_rejection	NA	0
8	Correct	19	181	829	5	0	0	726139	692	0	correct_rejection	NA	0
8	Correct	20	182	830	4	0	0	726847	692	0	correct_rejection	NA	0
8	Correct	21	183	831	0	1	3	727556	692	1	hit	296	0
8	Correct	22	184	832	9	0	0	728265	691	0	correct_rejection	NA	0
8	Correct	23	185	833	8	0	0	728973	692	0	correct_rejection	NA	0
8	Correct	24	186	834	7	0	0	729682	691	0	correct_rejection	NA	0
8	Correct	25	187	835	0	1	2	730390	692	1	hit	490	0
8	Correct	26	188	836	9	0	0	731099	691	0	correct_rejection	NA	0
8	Correct	27	189	837	8	0	0	731807	692	0	correct_rejection	NA	0
8	Correct	28	190	838	0	1	1	732516	692	1	hit	326	0
8	Correct	29	191	839	7	0	0	733225	691	0	correct_rejection	NA	0
8	Correct	30	192	840	9	0	0	733933	692	0	correct_rejection	NA	0
8	Correct	31	193	841	8	0	0	734642	691	0	correct_rejection	NA	0
8	Correct	32	194	842	7	0	0	735350	692	0	correct_rejection	NA	0
8	Correct	33	195	843	0	1	3	736059	691	1	hit	275	0
8	Correct	34	196	844	7	0	0	736767	692	0	correct_rejection	NA	0
8	Correct	35	197	845	8	0	0	737476	692	0	correct_rejection	NA	0
8	Correct	36	198	846	9	0	0	738184	692	0	correct_rejection	NA	0
8	Correct	37	199	847	7	0	0	738893	692	0	correct_rejection	NA	0
8	Correct	38	200	848	8	0	0	739602	691	0	correct_rejection	NA	0
8	Correct	39	201	849	9	0	0	740310	692	0	correct_rejection	NA	0
8	Correct	40	202	850	7	0	0	741019	691	0	correct_rejection	NA	0
8	Correct	41	203	851	8	0	0	741727	692	0	correct_rejection	NA	0
8	Correct	42	204	852	9	0	0	742436	692	0	correct_rejection	NA	0
8	Correct	43	205	853	4	0	0	743144	692	0	correct_rejection	NA	0
8	Correct	44	206	854	5	0	0	743853	692	0	correct_rejection	NA	0
8	Correct	45	207	855	6	0	0	744562	691	0	correct_rejection	NA	0
8	Correct	46	208	856	4	0	0	745270	692	0	correct_rejection	NA	0
8	Correct	47	209	857	5	0	0	745979	691	0	correct_rejection	NA	0
8	Correct	48	210	858	6	0	0	746687	692	0	correct_rejection	NA	0
8	Correct	49	211	859	4	0	0	747396	692	0	correct_rejection	NA	0
8	Correct	50	212	860	5	0	0	748104	692	0	correct_rejection	NA	0
8	Correct	51	213	861	6	0	0	748813	692	0	correct_rejection	NA	0
8	Correct	52	214	862	6	0	0	749522	691	0	correct_rejection	NA	0
8	Correct	53	215	863	5	0	0	750230	692	0	correct_rejection	NA	0
8	Correct	54	216	864	4	0	0	750939	691	0	correct_rejection	NA	0
8	Correct	55	217	865	6	0	0	751647	692	0	correct_rejection	NA	0
8	Correct	56	218	866	5	0	0	752356	692	0	correct_rejection	NA	0
8	Correct	57	219	867	4	0	0	753064	692	0	correct_rejection	NA	0
8	Correct	58	220	868	6	0	0	753773	692	0	correct_rejection	NA	0
8	Correct	59	221	869	5	0	0	754482	691	0	correct_rejection	NA	0
8	Correct	60	222	870	0	1	1	755190	692	1	hit	493	0
8	Correct	61	223	871	4	0	0	755899	691	0	correct_rejection	NA	0
8	Correct	62	224	872	9	0	0	756607	692	0	correct_rejection	NA	0
8	Correct	63	225	873	0	1	1	757316	691	1	hit	360	0
8	Correct	64	226	874	8	0	0	758024	692	0	correct_rejection	NA	0
8	Correct	65	227	875	7	0	0	758733	692	0	correct_rejection	NA	0
8	Correct	66	228	876	9	0	0	759441	692	0	correct_rejection	NA	0
8	Correct	67	229	877	8	0	0	760150	692	0	correct_rejection	NA	0
8	Correct	68	230	878	7	0	0	760859	691	0	correct_rejection	NA	0
8	Correct	69	231	879	9	0	0	761567	692	0	correct_rejection	NA	0
8	Correct	70	232	880	8	0	0	762276	691	0	correct_rejection	NA	0
8	Correct	71	233	881	7	0	0	762984	692	0	correct_rejection	NA	0
8	Correct	72	234	882	7	0	0	763693	692	0	correct_rejection	NA	0
8	Correct	73	235	883	8	0	0	764401	692	0	correct_rejection	NA	0
8	Correct	74	236	884	0	1	1	765110	692	1	hit	310	0
8	Correct	75	237	885	9	0	0	765819	691	0	correct_rejection	NA	0
8	Correct	76	238	886	7	0	0	766527	692	0	correct_rejection	NA	0
8	Correct	77	239	887	0	1	1	767236	691	1	hit	299	0
8	Correct	78	240	888	8	0	0	767944	692	0	correct_rejection	NA	0
8	Correct	79	241	889	9	0	0	768653	692	0	correct_rejection	NA	0
8	Correct	80	242	890	7	0	0	769361	692	0	correct_rejection	NA	0
8	Correct	81	243	891	0	1	1	770070	692	1	hit	291	0
8	Correct	82	244	892	8	0	0	770779	691	0	correct_rejection	NA	0
8	Correct	83	245	893	9	0	0	771487	692	0	correct_rejection	NA	0
8	Correct	84	246	894	4	0	0	772196	691	0	correct_rejection	NA	0
8	Correct	85	247	895	5	0	0	772904	692	0	correct_rejection	NA	0
8	Correct	86	248	896	6	0	0	773613	692	0	correct_rejection	NA	0
8	Correct	87	249	897	0	1	2	774321	692	1	hit	307	0
8	Correct	88	250	898	4	0	0	775030	692	0	correct_rejection	NA	0
8	Correct	89	251	899	5	0	0	775739	691	0	correct_rejection	NA	0
8	Correct	90	252	900	6	0	0	776447	692	0	correct_rejection	NA	0
8	Correct	91	253	901	4	0	0	777156	691	0	correct_rejection	NA	0
8	Correct	92	254	902	5	0	0	777864	692	0	correct_rejection	NA	0
8	Correct	93	255	903	6	0	0	778573	691	0	correct_rejection	NA	0
8	Correct	94	256	904	6	0	0	779281	692	0	correct_rejection	NA	0
8	Correct	95	257	905	0	1	1	779990	692	1	hit	348	0
8	Correct	96	258	906	5	0	0	780698	692	0	correct_rejection	NA	0
8	Correct	97	259	907	4	0	0	781407	692	0	correct_rejection	NA	0
8	Correct	98	260	908	6	0	0	782116	691	0	correct_rejection	NA	0
8	Correct	99	261	909	5	0	0	782824	692	0	correct_rejection	NA	0
8	Correct	100	262	910	4	0	0	783533	691	0	correct_rejection	NA	0
8	Correct	101	263	911	6	0	0	784241	692	0	correct_rejection	NA	0
8	Correct	102	264	912	5	0	0	784950	692	0	correct_rejection	NA	0
8	Correct	103	265	913	4	0	0	785658	692	0	correct_rejection	NA	0
8	Correct	104	266	914	9	0	0	786367	692	0	correct_rejection	NA	0
8	Correct	105	267	915	8	0	0	787076	691	0	correct_rejection	NA	0
8	Correct	106	268	916	7	0	0	787784	692	0	correct_rejection	NA	0
8	Correct	107	269	917	9	0	0	788493	691	0	correct_rejection	NA	0
8	Correct	108	270	918	8	0	0	789201	692	0	correct_rejection	NA	0
8	Correct	109	271	919	7	0	0	789910	692	0	correct_rejection	NA	0
8	Correct	110	272	920	9	0	0	790618	692	0	correct_rejection	NA	0
8	Correct	111	273	921	8	0	0	791327	692	0	correct_rejection	NA	0
8	Correct	112	274	922	7	0	0	792036	691	0	correct_rejection	NA	0
8	Correct	113	275	923	7	0	0	792744	692	0	correct_rejection	NA	0
8	Correct	114	276	924	8	0	0	793453	691	0	correct_rejection	NA	0
8	Correct	115	277	925	0	1	1	794161	692	1	hit	335	0
8	Correct	116	278	926	9	0	0	794870	692	0	correct_rejection	NA	0
8	Correct	117	279	927	7	0	0	795578	692	0	correct_rejection	NA	0
8	Correct	118	280	928	8	0	0	796287	692	0	correct_rejection	NA	0
8	Correct	119	281	929	9	0	0	796996	691	0	correct_rejection	NA	0
8	Correct	120	282	930	0	1	2	797704	692	1	hit	366	0
8	Correct	121	283	931	7	0	0	798413	691	0	correct_rejection	NA	0
8	Correct	122	284	932	8	0	0	799121	692	0	correct_rejection	NA	0
8	Correct	123	285	933	9	0	0	799830	691	0	correct_rejection	NA	0
8	Correct	124	286	934	4	0	0	800538	692	0	correct_rejection	NA	0
8	Correct	125	287	935	5	0	0	801247	692	0	correct_rejection	NA	0
8	Correct	126	288	936	0	1	1	801955	692	1	hit	281	0
8	Correct	127	289	937	6	0	0	802664	692	0	correct_rejection	NA	0
8	Correct	128	290	938	4	0	0	803373	691	0	correct_rejection	NA	0
8	Correct	129	291	939	5	0	0	804081	692	0	correct_rejection	NA	0
8	Correct	130	292	940	6	0	0	804790	691	0	correct_rejection	NA	0
8	Correct	131	293	941	4	0	0	805498	692	0	correct_rejection	NA	0
8	Correct	132	294	942	5	0	0	806207	692	0	correct_rejection	NA	0
8	Correct	133	295	943	6	0	0	806915	692	0	correct_rejection	NA	0
8	Correct	134	296	944	6	0	0	807624	692	0	correct_rejection	NA	0
8	Correct	135	297	945	5	0	0	808333	691	0	correct_rejection	NA	0
8	Correct	136	298	946	4	0	0	809041	692	0	correct_rejection	NA	0
8	Correct	137	299	947	6	0	0	809750	691	0	correct_rejection	NA	0
8	Correct	138	300	948	5	0	0	810458	692	0	correct_rejection	NA	0
8	Correct	139	301	949	4	0	0	811167	692	0	correct_rejection	NA	0
8	Correct	140	302	950	6	0	0	811875	692	0	correct_rejection	NA	0
8	Correct	141	303	951	5	0	0	812584	692	0	correct_rejection	NA	0
8	Correct	142	304	952	4	0	0	813293	691	0	correct_rejection	NA	0
8	Correct	143	305	953	9	0	0	814001	692	0	correct_rejection	NA	0
8	Correct	144	306	954	8	0	0	814710	691	0	correct_rejection	NA	0
8	Correct	145	307	955	7	0	0	815418	692	0	correct_rejection	NA	0
8	Correct	146	308	956	9	0	0	816127	692	0	correct_rejection	NA	0
8	Correct	147	309	957	8	0	0	816835	692	0	correct_rejection	NA	0
8	Correct	148	310	958	0	1	1	817544	692	1	hit	315	0
8	Correct	149	311	959	7	0	0	818253	691	0	correct_rejection	NA	0
8	Correct	150	312	960	9	0	0	818961	692	0	correct_rejection	NA	0
8	Correct	151	313	961	8	0	0	819670	691	0	correct_rejection	NA	0
8	Correct	152	314	962	7	0	0	820378	692	0	correct_rejection	NA	0
8	Correct	153	315	963	7	0	0	821087	691	0	correct_rejection	NA	0
8	Correct	154	316	964	0	1	1	821795	692	1	hit	375	0
8	Correct	155	317	965	8	0	0	822504	692	0	correct_rejection	NA	0
8	Correct	156	318	966	9	0	0	823213	691	0	correct_rejection	NA	0
8	Correct	157	319	967	7	0	0	823921	692	0	correct_rejection	NA	0
8	Correct	158	320	968	8	0	0	824630	691	0	correct_rejection	NA	0
8	Correct	159	321	969	9	0	0	825338	692	0	correct_rejection	NA	0
8	Correct	160	322	970	7	0	0	826047	691	0	correct_rejection	NA	0
8	Correct	161	323	971	8	0	0	826755	692	0	correct_rejection	NA	0
8	Correct	162	324	972	9	0	0	827464	692	0	correct_rejection	NA	0
8	Single	1	487	973	7	0	0	837042	692	0	correct_rejection	NA	7149
8	Single	2	488	974	4	0	0	837751	691	0	correct_rejection	NA	0
8	Single	3	489	975	5	0	0	838459	692	0	correct_rejection	NA	0
8	Single	4	490	976	0	1	1	839168	691	1	hit	376	0
8	Single	5	491	977	5	0	0	839876	692	0	correct_rejection	NA	0
8	Single	6	492	978	7	0	0	840585	692	0	correct_rejection	NA	0
8	Single	7	493	979	6	0	0	841293	692	0	correct_rejection	NA	0
8	Single	8	494	980	4	0	0	842002	692	0	correct_rejection	NA	0
8	Single	9	495	981	9	0	0	842711	691	0	correct_rejection	NA	0
8	Single	10	496	982	0	1	1	843419	692	1	hit	617	0
8	Single	11	497	983	5	0	0	844128	691	0	correct_rejection	NA	0
8	Single	12	498	984	9	0	0	844836	692	0	correct_rejection	NA	0
8	Single	13	499	985	0	1	1	845545	692	1	hit	408	0
8	Single	14	500	986	4	0	0	846253	692	0	correct_rejection	NA	0
8	Single	15	501	987	8	0	0	846962	692	0	correct_rejection	NA	0
8	Single	16	502	988	5	0	0	847671	691	0	correct_rejection	NA	0
8	Single	17	503	989	8	0	0	848379	692	0	correct_rejection	NA	0
8	Single	18	504	990	4	0	0	849088	691	0	correct_rejection	NA	0
8	Single	19	505	991	7	0	0	849796	692	0	correct_rejection	NA	0
8	Single	20	506	992	8	0	0	850505	692	0	correct_rejection	NA	0
8	Single	21	507	993	6	0	0	851213	692	0	correct_rejection	NA	0
8	Single	22	508	994	8	0	0	851922	692	0	correct_rejection	NA	0
8	Single	23	509	995	9	0	0	852631	691	0	correct_rejection	NA	0
8	Single	24	510	996	7	0	0	853339	692	0	correct_rejection	NA	0
8	Single	25	511	997	0	1	1	854048	691	1	hit	301	0
8	Single	26	512	998	5	0	0	854756	692	0	correct_rejection	NA	0
8	Single	27	513	999	6	0	0	855465	691	0	correct_rejection	NA	0
8	Single	28	514	1000	9	0	0	856173	692	0	correct_rejection	NA	0
8	Single	29	515	1001	6	0	0	856882	692	0	correct_rejection	NA	0
8	Single	30	516	1002	6	0	0	857590	692	0	correct_rejection	NA	0
8	Single	31	517	1003	5	0	0	858299	692	0	correct_rejection	NA	0
8	Single	32	518	1004	4	0	0	859008	691	0	correct_rejection	NA	0
8	Single	33	519	1005	4	0	0	859716	692	0	correct_rejection	NA	0
8	Single	34	520	1006	0	1	1	860425	691	1	hit	339	0
8	Single	35	521	1007	6	0	0	861133	692	0	correct_rejection	NA	0
8	Single	36	522	1008	7	0	0	861842	692	0	correct_rejection	NA	0
8	Single	37	523	1009	7	0	0	862550	692	0	correct_rejection	NA	0
8	Single	38	524	1010	9	0	0	863259	692	0	correct_rejection	NA	0
8	Single	39	525	1011	9	0	0	863968	691	0	correct_rejection	NA	0
8	Single	40	526	1012	8	0	0	864676	692	0	correct_rejection	NA	0
8	Single	41	527	1013	8	0	0	865385	691	0	correct_rejection	NA	0
8	Single	42	528	1014	5	0	0	866093	692	0	correct_rejection	NA	0
8	Single	43	529	1015	9	0	0	866802	692	0	correct_rejection	NA	0
8	Single	44	530	1016	9	0	0	867510	692	0	correct_rejection	NA	0
8	Single	45	531	1017	7	0	0	868219	692	0	correct_rejection	NA	0
8	Single	46	532	1018	0	1	1	868928	691	1	hit	257	0
8	Single	47	533	1019	9	0	0	869636	692	0	correct_rejection	NA	0
8	Single	48	534	1020	5	0	0	870345	691	0	correct_rejection	NA	0
8	Single	49	535	1021	5	0	0	871053	692	0	correct_rejection	NA	0
8	Single	50	536	1022	0	1	1	871762	692	1	hit	290	0
8	Single	51	537	1023	8	0	0	872470	692	0	correct_rejection	NA	0
8	Single	52	538	1024	7	0	0	873179	692	0	correct_rejection	NA	0
8	Single	53	539	1025	5	0	0	873888	691	0	correct_rejection	NA	0
8	Single	54	540	1026	4	0	0	874596	692	0	correct_rejection	NA	0
8	Single	55	541	1027	5	0	0	875305	691	0	correct_rejection	NA	0
8	Single	56	542	1028	7	0	0	876013	692	0	correct_rejection	NA	0
8	Single	57	543	1029	7	0	0	876722	691	0	correct_rejection	NA	0
8	Single	58	544	1030	4	0	0	877430	692	0	correct_rejection	NA	0
8	Single	59	545	1031	9	0	0	878139	692	0	correct_rejection	NA	0
8	Single	60	546	1032	6	0	0	878848	691	0	correct_rejection	NA	0
8	Single	61	547	1033	7	0	0	879556	692	0	correct_rejection	NA	0
8	Single	62	548	1034	8	0	0	880265	691	0	correct_rejection	NA	0
8	Single	63	549	1035	4	0	0	880973	692	0	correct_rejection	NA	0
8	Single	64	550	1036	6	0	0	881682	691	0	correct_rejection	NA	0
8	Single	65	551	1037	5	0	0	882390	692	0	correct_rejection	NA	0
8	Single	66	552	1038	6	0	0	883099	692	0	correct_rejection	NA	0
8	Single	67	553	1039	6	0	0	883807	692	0	correct_rejection	NA	0
8	Single	68	554	1040	9	0	0	884516	692	0	correct_rejection	NA	0
8	Single	69	555	1041	8	0	0	885225	691	0	correct_rejection	NA	0
8	Single	70	556	1042	9	0	0	885933	692	0	correct_rejection	NA	0
8	Single	71	557	1043	4	0	0	886642	691	0	correct_rejection	NA	0
8	Single	72	558	1044	4	0	0	887350	692	0	correct_rejection	NA	0
8	Single	73	559	1045	8	0	0	888059	692	0	correct_rejection	NA	0
8	Single	74	560	1046	6	0	0	888767	692	0	correct_rejection	NA	0
8	Single	75	561	1047	4	0	0	889476	692	0	correct_rejection	NA	0
8	Single	76	562	1048	7	0	0	890185	691	0	correct_rejection	NA	0
8	Single	77	563	1049	6	0	0	890893	692	0	correct_rejection	NA	0
8	Single	78	564	1050	8	0	0	891602	691	0	correct_rejection	NA	0
8	Single	79	565	1051	8	0	0	892310	692	0	correct_rejection	NA	0
8	Single	80	566	1052	4	0	0	893019	692	0	correct_rejection	NA	0
8	Single	81	567	1053	7	0	0	893727	692	0	correct_rejection	NA	0
8	Single	82	568	1054	5	0	0	894436	692	0	correct_rejection	NA	0
8	Single	83	569	1055	5	0	0	895145	691	0	correct_rejection	NA	0
8	Single	84	570	1056	4	0	0	895853	692	0	correct_rejection	NA	0
8	Single	85	571	1057	0	1	1	896562	691	1	hit	307	0
8	Single	86	572	1058	8	0	0	897270	692	0	correct_rejection	NA	0
8	Single	87	573	1059	9	0	0	897979	692	0	correct_rejection	NA	0
8	Single	88	574	1060	0	1	1	898687	692	1	hit	441	0
8	Single	89	575	1061	6	0	0	899396	692	0	correct_rejection	NA	0
8	Single	90	576	1062	9	0	0	900105	691	0	correct_rejection	NA	0
8	Single	91	577	1063	9	0	0	900813	692	0	correct_rejection	NA	0
8	Single	92	578	1064	5	0	0	901522	691	0	correct_rejection	NA	0
8	Single	93	579	1065	8	0	0	902230	692	0	correct_rejection	NA	0
8	Single	94	580	1066	5	0	0	902939	691	0	correct_rejection	NA	0
8	Single	95	581	1067	6	0	0	903647	692	0	correct_rejection	NA	0
8	Single	96	582	1068	7	0	0	904356	692	0	correct_rejection	NA	0
8	Single	97	583	1069	9	0	0	905064	692	0	correct_rejection	NA	0
8	Single	98	584	1070	4	0	0	905773	692	0	correct_rejection	NA	0
8	Single	99	585	1071	6	0	0	906482	691	0	correct_rejection	NA	0
8	Single	100	586	1072	8	0	0	907190	692	0	correct_rejection	NA	0
8	Single	101	587	1073	0	1	1	907899	691	1	hit	324	0
8	Single	102	588	1074	4	0	0	908607	692	0	correct_rejection	NA	0
8	Single	103	589	1075	5	0	0	909316	692	0	correct_rejection	NA	0
8	Single	104	590	1076	9	0	0	910024	692	0	correct_rejection	NA	0
8	Single	105	591	1077	8	0	0	910733	692	0	correct_rejection	NA	0
8	Single	106	592	1078	7	0	0	911442	691	0	correct_rejection	NA	0
8	Single	107	593	1079	0	1	1	912150	692	1	hit	387	0
8	Single	108	594	1080	6	0	0	912859	691	0	correct_rejection	NA	0
8	Single	109	595	1081	6	0	0	913567	692	0	correct_rejection	NA	0
8	Single	110	596	1082	4	0	0	914276	692	0	correct_rejection	NA	0
8	Single	111	597	1083	0	1	1	914984	692	1	hit	315	0
8	Single	112	598	1084	4	0	0	915693	692	0	correct_rejection	NA	0
8	Single	113	599	1085	9	0	0	916402	691	0	correct_rejection	NA	0
8	Single	114	600	1086	7	0	0	917110	692	0	correct_rejection	NA	0
8	Single	115	601	1087	7	0	0	917819	691	0	correct_rejection	NA	0
8	Single	116	602	1088	0	1	1	918527	692	1	hit	416	0
8	Single	117	603	1089	8	0	0	919236	692	0	correct_rejection	NA	0
8	Single	118	604	1090	8	0	0	919944	692	0	correct_rejection	NA	0
8	Single	119	605	1091	6	0	0	920653	692	0	correct_rejection	NA	0
8	Single	120	606	1092	5	0	0	921362	691	0	correct_rejection	NA	0
8	Single	121	607	1093	7	0	0	922070	692	0	correct_rejection	NA	0
8	Single	122	608	1094	0	1	1	922779	691	1	hit	331	0
8	Single	123	609	1095	7	0	0	923487	692	0	correct_rejection	NA	0
8	Single	124	610	1096	8	0	0	924196	691	0	correct_rejection	NA	0
8	Single	125	611	1097	5	0	0	924904	692	0	correct_rejection	NA	0
8	Single	126	612	1098	0	1	1	925613	692	1	hit	344	0
8	Single	127	613	1099	7	0	0	926321	692	0	correct_rejection	NA	0
8	Single	128	614	1100	6	0	0	927030	692	0	correct_rejection	NA	0
8	Single	129	615	1101	4	0	0	927739	691	0	correct_rejection	NA	0
8	Single	130	616	1102	5	0	0	928447	692	0	correct_rejection	NA	0
8	Single	131	617	1103	5	0	0	929156	691	0	correct_rejection	NA	0
8	Single	132	618	1104	6	0	0	929864	692	0	correct_rejection	NA	0
8	Single	133	619	1105	8	0	0	930573	692	0	correct_rejection	NA	0
8	Single	134	620	1106	0	1	1	931281	692	1	hit	323	0
8	Single	135	621	1107	6	0	0	931990	692	0	correct_rejection	NA	0
8	Single	136	622	1108	9	0	0	932699	691	0	correct_rejection	NA	0
8	Single	137	623	1109	4	0	0	933407	692	0	correct_rejection	NA	0
8	Single	138	624	1110	8	0	0	934116	691	0	correct_rejection	NA	0
8	Single	139	625	1111	7	0	0	934824	692	0	correct_rejection	NA	0
8	Single	140	626	1112	0	1	1	935533	692	1	hit	316	0
8	Single	141	627	1113	4	0	0	936241	692	0	correct_rejection	NA	0
8	Single	142	628	1114	6	0	0	936950	692	0	correct_rejection	NA	0
8	Single	143	629	1115	6	0	0	937659	691	0	correct_rejection	NA	0
8	Single	144	630	1116	7	0	0	938367	692	0	correct_rejection	NA	0
8	Single	145	631	1117	5	0	0	939076	691	0	correct_rejection	NA	0
8	Single	146	632	1118	8	0	0	939784	692	0	correct_rejection	NA	0
8	Single	147	633	1119	9	0	0	940493	692	0	correct_rejection	NA	0
8	Single	148	634	1120	8	0	0	941201	692	0	correct_rejection	NA	0
8	Single	149	635	1121	8	0	0	941910	692	0	correct_rejection	NA	0
8	Single	150	636	1122	4	0	0	942619	691	0	correct_rejection	NA	0
8	Single	151	637	1123	9	0	0	943327	692	0	correct_rejection	NA	0
8	Single	152	638	1124	5	0	0	944036	691	0	correct_rejection	NA	0
8	Single	153	639	1125	4	0	0	944744	692	0	correct_rejection	NA	0
8	Single	154	640	1126	4	0	0	945453	691	0	correct_rejection	NA	0
8	Single	155	641	1127	7	0	0	946161	692	0	correct_rejection	NA	0
8	Single	156	642	1128	9	0	0	946870	692	0	correct_rejection	NA	0
8	Single	157	643	1129	9	0	0	947578	692	0	correct_rejection	NA	0
8	Single	158	644	1130	6	0	0	948287	692	0	correct_rejection	NA	0
8	Single	159	645	1131	5	0	0	948996	691	0	correct_rejection	NA	0
8	Single	160	646	1132	0	1	1	949704	692	1	hit	373	0
8	Single	161	647	1133	9	0	0	950413	691	0	correct_rejection	NA	0
8	Single	162	648	1134	7	0	0	951121	692	0	correct_rejection	NA	0
8	Triplet	1	163	1135	6	0	0	960783	692	0	correct_rejection	NA	7899
8	Triplet	2	164	1136	5	0	0	961491	692	0	correct_rejection	NA	0
8	Triplet	3	165	1137	4	0	0	962200	692	0	correct_rejection	NA	0
8	Triplet	4	166	1138	0	1	2	962909	691	1	hit	423	0
8	Triplet	5	167	1139	6	0	0	963617	692	0	correct_rejection	NA	0
8	Triplet	6	168	1140	5	0	0	964326	691	0	correct_rejection	NA	0
8	Triplet	7	169	1141	0	1	1	965034	692	1	hit	363	0
8	Triplet	8	170	1142	4	0	0	965743	692	0	correct_rejection	NA	0
8	Triplet	9	171	1143	4	0	0	966451	692	0	correct_rejection	NA	0
8	Triplet	10	172	1144	5	0	0	967160	692	0	correct_rejection	NA	0
8	Triplet	11	173	1145	0	1	1	967869	691	1	hit	330	0
8	Triplet	12	174	1146	6	0	0	968577	692	0	correct_rejection	NA	0
8	Triplet	13	175	1147	9	0	0	969286	691	0	correct_rejection	NA	0
8	Triplet	14	176	1148	8	0	0	969994	692	0	correct_rejection	NA	0
8	Triplet	15	177	1149	7	0	0	970703	691	0	correct_rejection	NA	0
8	Triplet	16	178	1150	6	0	0	971411	692	0	correct_rejection	NA	0
8	Triplet	17	179	1151	0	1	1	972120	692	1	hit	319	0
8	Triplet	18	180	1152	5	0	0	972828	692	0	correct_rejection	NA	0
8	Triplet	19	181	1153	4	0	0	973537	692	0	correct_rejection	NA	0
8	Triplet	20	182	1154	9	0	0	974246	691	0	correct_rejection	NA	0
8	Triplet	21	183	1155	8	0	0	974954	692	0	correct_rejection	NA	0
8	Triplet	22	184	1156	7	0	0	975663	691	0	correct_rejection	NA	0
8	Triplet	23	185	1157	0	1	2	976371	692	1	hit	330	0
8	Triplet	24	186	1158	7	0	0	977080	692	0	correct_rejection	NA	0
8	Triplet	25	187	1159	8	0	0	977788	692	0	correct_rejection	NA	0
8	Triplet	26	188	1160	9	0	0	978497	692	0	correct_rejection	NA	0
8	Triplet	27	189	1161	6	0	0	979206	691	0	correct_rejection	NA	0
8	Triplet	28	190	1162	5	0	0	979914	692	0	correct_rejection	NA	0
8	Triplet	29	191	1163	0	1	1	980623	691	1	hit	298	0
8	Triplet	30	192	1164	4	0	0	981331	692	0	correct_rejection	NA	0
8	Triplet	31	193	1165	7	0	0	982040	692	0	correct_rejection	NA	0
8	Triplet	32	194	1166	8	0	0	982748	692	0	correct_rejection	NA	0
8	Triplet	33	195	1167	9	0	0	983457	692	0	correct_rejection	NA	0
8	Triplet	34	196	1168	7	0	0	984166	691	0	correct_rejection	NA	0
8	Triplet	35	197	1169	8	0	0	984874	692	0	correct_rejection	NA	0
8	Triplet	36	198	1170	9	0	0	985583	691	0	correct_rejection	NA	0
8	Triplet	37	199	1171	9	0	0	986291	692	0	correct_rejection	NA	0
8	Triplet	38	200	1172	8	0	0	987000	692	0	correct_rejection	NA	0
8	Triplet	39	201	1173	7	0	0	987708	692	0	correct_rejection	NA	0
8	Triplet	40	202	1174	9	0	0	988417	692	0	correct_rejection	NA	0
8	Triplet	41	203	1175	8	0	0	989126	691	0	correct_rejection	NA	0
8	Triplet	42	204	1176	0	1	1	989834	692	1	hit	322	0
8	Triplet	43	205	1177	7	0	0	990543	691	0	correct_rejection	NA	0
8	Triplet	44	206	1178	4	0	0	991251	692	0	correct_rejection	NA	0
8	Triplet	45	207	1179	5	0	0	991960	691	0	correct_rejection	NA	0
8	Triplet	46	208	1180	6	0	0	992668	692	0	correct_rejection	NA	0
8	Triplet	47	209	1181	4	0	0	993377	692	0	correct_rejection	NA	0
8	Triplet	48	210	1182	5	0	0	994085	692	0	correct_rejection	NA	0
8	Triplet	49	211	1183	6	0	0	994794	692	0	correct_rejection	NA	0
8	Triplet	50	212	1184	7	0	0	995503	691	0	correct_rejection	NA	0
8	Triplet	51	213	1185	8	0	0	996211	692	0	correct_rejection	NA	0
8	Triplet	52	214	1186	9	0	0	996920	691	0	correct_rejection	NA	0
8	Triplet	53	215	1187	4	0	0	997628	692	0	correct_rejection	NA	0
8	Triplet	54	216	1188	5	0	0	998337	692	0	correct_rejection	NA	0
8	Triplet	55	217	1189	6	0	0	999045	692	0	correct_rejection	NA	0
8	Triplet	56	218	1190	7	0	0	999754	692	0	correct_rejection	NA	0
8	Triplet	57	219	1191	0	1	1	1000463	691	1	hit	323	0
8	Triplet	58	220	1192	8	0	0	1001171	692	0	correct_rejection	NA	0
8	Triplet	59	221	1193	9	0	0	1001880	691	0	correct_rejection	NA	0
8	Triplet	60	222	1194	0	1	2	1002588	692	1	hit	394	0
8	Triplet	61	223	1195	6	0	0	1003297	692	0	correct_rejection	NA	0
8	Triplet	62	224	1196	5	0	0	1004005	692	0	correct_rejection	NA	0
8	Triplet	63	225	1197	4	0	0	1004714	692	0	correct_rejection	NA	0
8	Triplet	64	226	1198	6	0	0	1005423	691	0	correct_rejection	NA	0
8	Triplet	65	227	1199	5	0	0	1006131	692	0	correct_rejection	NA	0
8	Triplet	66	228	1200	4	0	0	1006840	691	0	correct_rejection	NA	0
8	Triplet	67	229	1201	9	0	0	1007548	692	0	correct_rejection	NA	0
8	Triplet	68	230	1202	8	0	0	1008257	692	0	correct_rejection	NA	0
8	Triplet	69	231	1203	7	0	0	1008965	692	0	correct_rejection	NA	0
8	Triplet	70	232	1204	4	0	0	1009674	692	0	correct_rejection	NA	0
8	Triplet	71	233	1205	0	1	1	1010383	691	1	hit	341	0
8	Triplet	72	234	1206	5	0	0	1011091	692	0	correct_rejection	NA	0
8	Triplet	73	235	1207	6	0	0	1011800	691	0	correct_rejection	NA	0
8	Triplet	74	236	1208	7	0	0	1012508	692	0	correct_rejection	NA	0
8	Triplet	75	237	1209	8	0	0	1013217	691	0	correct_rejection	NA	0
8	Triplet	76	238	1210	9	0	0	1013925	692	0	correct_rejection	NA	0
8	Triplet	77	239	1211	7	0	0	1014634	692	0	correct_rejection	NA	0
8	Triplet	78	240	1212	8	0	0	1015343	691	0	correct_rejection	NA	0
8	Triplet	79	241	1213	9	0	0	1016051	692	0	correct_rejection	NA	0
8	Triplet	80	242	1214	4	0	0	1016760	691	0	correct_rejection	NA	0
8	Triplet	81	243	1215	5	0	0	1017468	692	0	correct_rejection	NA	0
8	Triplet	82	244	1216	6	0	0	1018177	691	0	correct_rejection	NA	0
8	Triplet	83	245	1217	6	0	0	1018885	692	0	correct_rejection	NA	0
8	Triplet	84	246	1218	5	0	0	1019594	692	0	correct_rejection	NA	0
8	Triplet	85	247	1219	4	0	0	1020302	692	0	correct_rejection	NA	0
8	Triplet	86	248	1220	7	0	0	1021011	692	0	correct_rejection	NA	0
8	Triplet	87	249	1221	8	0	0	1021720	691	0	correct_rejection	NA	0
8	Triplet	88	250	1222	9	0	0	1022428	692	0	correct_rejection	NA	0
8	Triplet	89	251	1223	9	0	0	1023137	691	0	correct_rejection	NA	0
8	Triplet	90	252	1224	8	0	0	1023845	692	0	correct_rejection	NA	0
8	Triplet	91	253	1225	7	0	0	1024554	692	0	correct_rejection	NA	0
8	Triplet	92	254	1226	6	0	0	1025262	692	0	correct_rejection	NA	0
8	Triplet	93	255	1227	5	0	0	1025971	692	0	correct_rejection	NA	0
8	Triplet	94	256	1228	4	0	0	1026680	691	0	correct_rejection	NA	0
8	Triplet	95	257	1229	4	0	0	1027388	692	0	correct_rejection	NA	0
8	Triplet	96	258	1230	5	0	0	1028097	691	0	correct_rejection	NA	0
8	Triplet	97	259	1231	6	0	0	1028805	692	0	correct_rejection	NA	0
8	Triplet	98	260	1232	4	0	0	1029514	692	0	correct_rejection	NA	0
8	Triplet	99	261	1233	5	0	0	1030222	692	0	correct_rejection	NA	0
8	Triplet	100	262	1234	6	0	0	1030931	692	0	correct_rejection	NA	0
8	Triplet	101	263	1235	9	0	0	1031640	691	0	correct_rejection	NA	0
8	Triplet	102	264	1236	8	0	0	1032348	692	0	correct_rejection	NA	0
8	Triplet	103	265	1237	7	0	0	1033057	691	0	correct_rejection	NA	0
8	Triplet	104	266	1238	0	1	2	1033765	692	1	hit	430	0
8	Triplet	105	267	1239	9	0	0	1034474	692	0	correct_rejection	NA	0
8	Triplet	106	268	1240	8	0	0	1035182	692	0	correct_rejection	NA	0
8	Triplet	107	269	1241	7	0	0	1035891	692	0	correct_rejection	NA	0
8	Triplet	108	270	1242	4	0	0	1036600	691	0	correct_rejection	NA	0
8	Triplet	109	271	1243	5	0	0	1037308	692	0	correct_rejection	NA	0
8	Triplet	110	272	1244	6	0	0	1038017	691	0	correct_rejection	NA	0
8	Triplet	111	273	1245	4	0	0	1038725	692	0	correct_rejection	NA	0
8	Triplet	112	274	1246	5	0	0	1039434	691	0	correct_rejection	NA	0
8	Triplet	113	275	1247	6	0	0	1040142	692	0	correct_rejection	NA	0
8	Triplet	114	276	1248	6	0	0	1040851	692	0	correct_rejection	NA	0
8	Triplet	115	277	1249	0	1	1	1041559	692	1	hit	383	0
8	Triplet	116	278	1250	5	0	0	1042268	692	0	correct_rejection	NA	0
8	Triplet	117	279	1251	4	0	0	1042977	691	0	correct_rejection	NA	0
8	Triplet	118	280	1252	9	0	0	1043685	692	0	correct_rejection	NA	0
8	Triplet	119	281	1253	8	0	0	1044394	691	0	correct_rejection	NA	0
8	Triplet	120	282	1254	0	1	1	1045102	692	1	hit	414	0
8	Triplet	121	283	1255	7	0	0	1045811	692	0	correct_rejection	NA	0
8	Triplet	122	284	1256	9	0	0	1046519	692	0	correct_rejection	NA	0
8	Triplet	123	285	1257	0	1	1	1047228	692	1	hit	340	0
8	Triplet	124	286	1258	8	0	0	1047937	691	0	correct_rejection	NA	0
8	Triplet	125	287	1259	7	0	0	1048645	692	0	correct_rejection	NA	0
8	Triplet	126	288	1260	6	0	0	1049354	691	0	correct_rejection	NA	0
8	Triplet	127	289	1261	5	0	0	1050062	692	0	correct_rejection	NA	0
8	Triplet	128	290	1262	4	0	0	1050771	692	0	correct_rejection	NA	0
8	Triplet	129	291	1263	6	0	0	1051479	692	0	correct_rejection	NA	0
8	Triplet	130	292	1264	5	0	0	1052188	692	0	correct_rejection	NA	0
8	Triplet	131	293	1265	4	0	0	1052897	691	0	correct_rejection	NA	0
8	Triplet	132	294	1266	7	0	0	1053605	692	0	correct_rejection	NA	0
8	Triplet	133	295	1267	0	1	1	1054314	691	1	hit	351	0
8	Triplet	134	296	1268	8	0	0	1055022	692	0	correct_rejection	NA	0
8	Triplet	135	297	1269	9	0	0	1055731	692	0	correct_rejection	NA	0
8	Triplet	136	298	1270	4	0	0	1056439	692	0	correct_rejection	NA	0
8	Triplet	137	299	1271	5	0	0	1057148	692	0	correct_rejection	NA	0
8	Triplet	138	300	1272	6	0	0	1057857	691	0	correct_rejection	NA	0
8	Triplet	139	301	1273	7	0	0	1058565	692	0	correct_rejection	NA	0
8	Triplet	140	302	1274	8	0	0	1059274	691	0	correct_rejection	NA	0
8	Triplet	141	303	1275	0	1	1	1059982	692	1	hit	346	0
8	Triplet	142	304	1276	9	0	0	1060691	691	0	correct_rejection	NA	0
8	Triplet	143	305	1277	9	0	0	1061399	692	0	correct_rejection	NA	0
8	Triplet	144	306	1278	8	0	0	1062108	692	0	correct_rejection	NA	0
8	Triplet	145	307	1279	7	0	0	1062816	692	0	correct_rejection	NA	0
8	Triplet	146	308	1280	4	0	0	1063525	692	0	correct_rejection	NA	0
8	Triplet	147	309	1281	5	0	0	1064234	691	0	correct_rejection	NA	0
8	Triplet	148	310	1282	6	0	0	1064942	692	0	correct_rejection	NA	0
8	Triplet	149	311	1283	9	0	0	1065651	691	0	correct_rejection	NA	0
8	Triplet	150	312	1284	0	1	1	1066359	692	1	hit	359	0
8	Triplet	151	313	1285	8	0	0	1067068	692	0	correct_rejection	NA	0
8	Triplet	152	314	1286	7	0	0	1067776	692	0	correct_rejection	NA	0
8	Triplet	153	315	1287	7	0	0	1068485	692	0	correct_rejection	NA	0
8	Triplet	154	316	1288	8	0	0	1069194	691	0	correct_rejection	NA	0
8	Triplet	155	317	1289	9	0	0	1069902	692	0	correct_rejection	NA	0
8	Triplet	156	318	1290	7	0	0	1070611	691	0	correct_rejection	NA	0
8	Triplet	157	319	1291	0	1	1	1071319	692	1	hit	351	0
8	Triplet	158	320	1292	8	0	0	1072028	692	0	correct_rejection	NA	0
8	Triplet	159	321	1293	9	0	0	1072736	692	0	correct_rejection	NA	0
8	Triplet	160	322	1294	6	0	0	1073445	692	0	correct_rejection	NA	0
8	Triplet	161	323	1295	5	0	0	1074154	691	0	correct_rejection	NA	0
8	Triplet	162	324	1296	4	0	0	1074862	692	0	correct_rejection	NA	0
8	Correct	1	487	1297	4	0	0	1084599	691	0	correct_rejection	NA	7709
8	Correct	2	488	1298	5	0	0	1085307	692	0	correct_rejection	NA	0
8	Correct	3	489	1299	6	0	0	1086016	691	0	correct_rejection	NA	0
8	Correct	4	490	1300	4	0	0	1086724	692	0	correct_rejection	NA	0
8	Correct	5	491	1301	0	1	1	1087433	692	1	hit	370	0
8	Correct	6	492	1302	5	0	0	1088141	692	0	correct_rejection	NA	0
8	Correct	7	493	1303	6	0	0	1088850	692	0	correct_rejection	NA	0
8	Correct	8	494	1304	0	1	2	1089559	691	1	hit	373	0
8	Correct	9	495	1305	4	0	0	1090267	692	0	correct_rejection	NA	0
8	Correct	10	496	1306	5	0	0	1090976	691	0	correct_rejection	NA	0
8	Correct	11	497	1307	6	0	0	1091684	692	0	correct_rejection	NA	0
8	Correct	12	498	1308	6	0	0	1092393	692	0	correct_rejection	NA	0
8	Correct	13	499	1309	5	0	0	1093101	692	0	correct_rejection	NA	0
8	Correct	14	500	1310	4	0	0	1093810	692	0	correct_rejection	NA	0
8	Correct	15	501	1311	0	1	2	1094519	691	1	hit	366	0
8	Correct	16	502	1312	6	0	0	1095227	692	0	correct_rejection	NA	0
8	Correct	17	503	1313	5	0	0	1095936	691	0	correct_rejection	NA	0
8	Correct	18	504	1314	4	0	0	1096644	692	0	correct_rejection	NA	0
8	Correct	19	505	1315	6	0	0	1097353	692	0	correct_rejection	NA	0
8	Correct	20	506	1316	0	1	1	1098061	692	1	hit	413	0
8	Correct	21	507	1317	5	0	0	1098770	692	0	correct_rejection	NA	0
8	Correct	22	508	1318	4	0	0	1099479	691	0	correct_rejection	NA	0
8	Correct	23	509	1319	9	0	0	1100187	692	0	correct_rejection	NA	0
8	Correct	24	510	1320	8	0	0	1100896	691	0	correct_rejection	NA	0
8	Correct	25	511	1321	7	0	0	1101604	692	0	correct_rejection	NA	0
8	Correct	26	512	1322	9	0	0	1102313	692	0	correct_rejection	NA	0
8	Correct	27	513	1323	0	1	1	1103021	692	1	hit	321	0
8	Correct	28	514	1324	8	0	0	1103730	692	0	correct_rejection	NA	0
8	Correct	29	515	1325	7	0	0	1104439	691	0	correct_rejection	NA	0
8	Correct	30	516	1326	9	0	0	1105147	692	0	correct_rejection	NA	0
8	Correct	31	517	1327	8	0	0	1105856	691	0	correct_rejection	NA	0
8	Correct	32	518	1328	0	1	1	1106564	692	1	hit	345	0
8	Correct	33	519	1329	7	0	0	1107273	691	0	correct_rejection	NA	0
8	Correct	34	520	1330	7	0	0	1107981	692	0	correct_rejection	NA	0
8	Correct	35	521	1331	8	0	0	1108690	692	0	correct_rejection	NA	0
8	Correct	36	522	1332	9	0	0	1109399	691	0	correct_rejection	NA	0
8	Correct	37	523	1333	7	0	0	1110107	692	0	correct_rejection	NA	0
8	Correct	38	524	1334	8	0	0	1110816	691	0	correct_rejection	NA	0
8	Correct	39	525	1335	9	0	0	1111524	692	0	correct_rejection	NA	0
8	Correct	40	526	1336	7	0	0	1112233	691	0	correct_rejection	NA	0
8	Correct	41	527	1337	8	0	0	1112941	692	0	correct_rejection	NA	0
8	Correct	42	528	1338	9	0	0	1113650	692	0	correct_rejection	NA	0
8	Correct	43	529	1339	4	0	0	1114358	692	0	correct_rejection	NA	0
8	Correct	44	530	1340	5	0	0	1115067	692	0	correct_rejection	NA	0
8	Correct	45	531	1341	6	0	0	1115776	691	0	correct_rejection	NA	0
8	Correct	46	532	1342	4	0	0	1116484	692	0	correct_rejection	NA	0
8	Correct	47	533	1343	5	0	0	1117193	691	0	correct_rejection	NA	0
8	Correct	48	534	1344	6	0	0	1117901	692	0	correct_rejection	NA	0
8	Correct	49	535	1345	4	0	0	1118610	692	0	correct_rejection	NA	0
8	Correct	50	536	1346	5	0	0	1119318	692	0	correct_rejection	NA	0
8	Correct	51	537	1347	0	1	1	1120027	692	1	hit	345	0
8	Correct	52	538	1348	6	0	0	1120736	691	0	correct_rejection	NA	0
8	Correct	53	539	1349	6	0	0	1121444	692	0	correct_rejection	NA	0
8	Correct	54	540	1350	5	0	0	1122153	691	0	correct_rejection	NA	0
8	Correct	55	541	1351	4	0	0	1122861	692	0	correct_rejection	NA	0
8	Correct	56	542	1352	6	0	0	1123570	692	0	correct_rejection	NA	0
8	Correct	57	543	1353	5	0	0	1124278	692	0	correct_rejection	NA	0
8	Correct	58	544	1354	4	0	0	1124987	692	0	correct_rejection	NA	0
8	Correct	59	545	1355	0	1	2	1125696	691	1	hit	465	0
8	Correct	60	546	1356	6	0	0	1126404	692	0	correct_rejection	NA	0
8	Correct	61	547	1357	5	0	0	1127113	691	0	correct_rejection	NA	0
8	Correct	62	548	1358	0	1	1	1127821	692	1	hit	361	0
8	Correct	63	549	1359	4	0	0	1128530	692	0	correct_rejection	NA	0
8	Correct	64	550	1360	9	0	0	1129238	692	0	correct_rejection	NA	0
8	Correct	65	551	1361	0	1	1	1129947	692	1	hit	375	0
8	Correct	66	552	1362	8	0	0	1130656	691	0	correct_rejection	NA	0
8	Correct	67	553	1363	7	0	0	1131364	692	0	correct_rejection	NA	0
8	Correct	68	554	1364	9	0	0	1132073	691	0	correct_rejection	NA	0
8	Correct	69	555	1365	8	0	0	1132781	692	0	correct_rejection	NA	0
8	Correct	70	556	1366	0	1	1	1133490	691	1	hit	325	0
8	Correct	71	557	1367	7	0	0	1134198	692	0	correct_rejection	NA	0
8	Correct	72	558	1368	9	0	0	1134907	692	0	correct_rejection	NA	0
8	Correct	73	559	1369	8	0	0	1135615	692	0	correct_rejection	NA	0
8	Correct	74	560	1370	7	0	0	1136324	692	0	correct_rejection	NA	0
8	Correct	75	561	1371	7	0	0	1137033	691	0	correct_rejection	NA	0
8	Correct	76	562	1372	8	0	0	1137741	692	0	correct_rejection	NA	0
8	Correct	77	563	1373	9	0	0	1138450	691	0	correct_rejection	NA	0
8	Correct	78	564	1374	7	0	0	1139158	692	0	correct_rejection	NA	0
8	Correct	79	565	1375	8	0	0	1139867	692	0	correct_rejection	NA	0
8	Correct	80	566	1376	9	0	0	1140575	692	0	correct_rejection	NA	0
8	Correct	81	567	1377	7	0	0	1141284	692	0	correct_rejection	NA	0
8	Correct	82	568	1378	8	0	0	1141993	691	0	correct_rejection	NA	0
8	Correct	83	569	1379	9	0	0	1142701	692	0	correct_rejection	NA	0
8	Correct	84	570	1380	4	0	0	1143410	691	0	correct_rejection	NA	0
8	Correct	85	571	1381	5	0	0	1144118	692	0	correct_rejection	NA	0
8	Correct	86	572	1382	6	0	0	1144827	692	0	correct_rejection	NA	0
8	Correct	87	573	1383	4	0	0	1145535	692	0	correct_rejection	NA	0
8	Correct	88	574	1384	5	0	0	1146244	692	0	correct_rejection	NA	0
8	Correct	89	575	1385	0	1	1	1146953	691	1	hit	425	0
8	Correct	90	576	1386	6	0	0	1147661	692	0	correct_rejection	NA	0
8	Correct	91	577	1387	4	0	0	1148370	691	0	correct_rejection	NA	0
8	Correct	92	578	1388	5	0	0	1149078	692	0	correct_rejection	NA	0
8	Correct	93	579	1389	6	0	0	1149787	692	0	correct_rejection	NA	0
8	Correct	94	580	1390	6	0	0	1150495	692	0	correct_rejection	NA	0
8	Correct	95	581	1391	0	1	1	1151204	692	1	hit	325	0
8	Correct	96	582	1392	5	0	0	1151913	691	0	correct_rejection	NA	0
8	Correct	97	583	1393	4	0	0	1152621	692	0	correct_rejection	NA	0
8	Correct	98	584	1394	6	0	0	1153330	691	0	correct_rejection	NA	0
8	Correct	99	585	1395	5	0	0	1154038	692	0	correct_rejection	NA	0
8	Correct	100	586	1396	4	0	0	1154747	691	0	correct_rejection	NA	0
8	Correct	101	587	1397	6	0	0	1155455	692	0	correct_rejection	NA	0
8	Correct	102	588	1398	5	0	0	1156164	692	0	correct_rejection	NA	0
8	Correct	103	589	1399	4	0	0	1156872	692	0	correct_rejection	NA	0
8	Correct	104	590	1400	9	0	0	1157581	692	0	correct_rejection	NA	0
8	Correct	105	591	1401	8	0	0	1158290	691	0	correct_rejection	NA	0
8	Correct	106	592	1402	7	0	0	1158998	692	0	correct_rejection	NA	0
8	Correct	107	593	1403	9	0	0	1159707	691	0	correct_rejection	NA	0
8	Correct	108	594	1404	8	0	0	1160415	692	0	correct_rejection	NA	0
8	Correct	109	595	1405	7	0	0	1161124	692	0	correct_rejection	NA	0
8	Correct	110	596	1406	9	0	0	1161832	692	0	correct_rejection	NA	0
8	Correct	111	597	1407	8	0	0	1162541	692	0	correct_rejection	NA	0
8	Correct	112	598	1408	7	0	0	1163250	691	0	correct_rejection	NA	0
8	Correct	113	599	1409	7	0	0	1163958	692	0	correct_rejection	NA	0
8	Correct	114	600	1410	8	0	0	1164667	691	0	correct_rejection	NA	0
8	Correct	115	601	1411	0	1	1	1165375	692	1	hit	331	0
8	Correct	116	602	1412	9	0	0	1166084	692	0	correct_rejection	NA	0
8	Correct	117	603	1413	7	0	0	1166792	692	0	correct_rejection	NA	0
8	Correct	118	604	1414	8	0	0	1167501	692	0	correct_rejection	NA	0
8	Correct	119	605	1415	9	0	0	1168210	691	0	correct_rejection	NA	0
8	Correct	120	606	1416	7	0	0	1168918	692	0	correct_rejection	NA	0
8	Correct	121	607	1417	8	0	0	1169627	691	0	correct_rejection	NA	0
8	Correct	122	608	1418	9	0	0	1170335	692	0	correct_rejection	NA	0
8	Correct	123	609	1419	0	1	4	1171044	692	1	hit	346	0
8	Correct	124	610	1420	4	0	0	1171752	692	0	correct_rejection	NA	0
8	Correct	125	611	1421	5	0	0	1172461	692	0	correct_rejection	NA	0
8	Correct	126	612	1422	6	0	0	1173170	691	0	correct_rejection	NA	0
8	Correct	127	613	1423	4	0	0	1173878	692	0	correct_rejection	NA	0
8	Correct	128	614	1424	5	0	0	1174587	691	0	correct_rejection	NA	0
8	Correct	129	615	1425	6	0	0	1175295	692	0	correct_rejection	NA	0
8	Correct	130	616	1426	0	1	2	1176004	691	1	hit	377	0
8	Correct	131	617	1427	4	0	0	1176712	692	0	correct_rejection	NA	0
8	Correct	132	618	1428	5	0	0	1177421	692	0	correct_rejection	NA	0
8	Correct	133	619	1429	6	0	0	1178129	692	0	correct_rejection	NA	0
8	Correct	134	620	1430	6	0	0	1178838	692	0	correct_rejection	NA	0
8	Correct	135	621	1431	5	0	0	1179547	691	0	correct_rejection	NA	0
8	Correct	136	622	1432	4	0	0	1180255	692	0	correct_rejection	NA	0
8	Correct	137	623	1433	6	0	0	1180964	691	0	correct_rejection	NA	0
8	Correct	138	624	1434	5	0	0	1181672	692	0	correct_rejection	NA	0
8	Correct	139	625	1435	0	1	1	1182381	692	1	hit	353	0
8	Correct	140	626	1436	4	0	0	1183089	692	0	correct_rejection	NA	0
8	Correct	141	627	1437	6	0	0	1183798	692	0	correct_rejection	NA	0
8	Correct	142	628	1438	5	0	0	1184507	691	0	correct_rejection	NA	0
8	Correct	143	629	1439	4	0	0	1185215	692	0	correct_rejection	NA	0
8	Correct	144	630	1440	0	1	3	1185924	691	1	hit	344	0
8	Correct	145	631	1441	9	0	0	1186632	692	0	correct_rejection	NA	0
8	Correct	146	632	1442	8	0	0	1187341	692	0	correct_rejection	NA	0
8	Correct	147	633	1443	7	0	0	1188049	692	0	correct_rejection	NA	0
8	Correct	148	634	1444	9	0	0	1188758	692	0	correct_rejection	NA	0
8	Correct	149	635	1445	8	0	0	1189467	691	0	correct_rejection	NA	0
8	Correct	150	636	1446	7	0	0	1190175	692	0	correct_rejection	NA	0
8	Correct	151	637	1447	9	0	0	1190884	691	0	correct_rejection	NA	0
8	Correct	152	638	1448	8	0	0	1191592	692	0	correct_rejection	NA	0
8	Correct	153	639	1449	7	0	0	1192301	692	0	correct_rejection	NA	0
8	Correct	154	640	1450	7	0	0	1193009	692	0	correct_rejection	NA	0
8	Correct	155	641	1451	8	0	0	1193718	692	0	correct_rejection	NA	0
8	Correct	156	642	1452	9	0	0	1194427	691	0	correct_rejection	NA	0
8	Correct	157	643	1453	7	0	0	1195135	692	0	correct_rejection	NA	0
8	Correct	158	644	1454	8	0	0	1195844	691	0	correct_rejection	NA	0
8	Correct	159	645	1455	9	0	0	1196552	692	0	correct_rejection	NA	0
8	Correct	160	646	1456	7	0	0	1197261	691	0	correct_rejection	NA	0
8	Correct	161	647	1457	8	0	0	1197969	692	0	correct_rejection	NA	0
8	Correct	162	648	1458	9	0	0	1198678	692	0	correct_rejection	NA	0
8	Nonet	1	1	1459	9	0	0	1207314	692	0	correct_rejection	NA	6429
8	Nonet	2	2	1460	8	0	0	1208023	691	0	correct_rejection	NA	0
8	Nonet	3	3	1461	7	0	0	1208731	692	0	correct_rejection	NA	0
8	Nonet	4	4	1462	9	0	0	1209440	692	0	correct_rejection	NA	0
8	Nonet	5	5	1463	8	0	0	1210148	692	0	correct_rejection	NA	0
8	Nonet	6	6	1464	7	0	0	1210857	692	0	correct_rejection	NA	0
8	Nonet	7	7	1465	9	0	0	1211566	691	0	correct_rejection	NA	0
8	Nonet	8	8	1466	8	0	0	1212274	692	0	correct_rejection	NA	0
8	Nonet	9	9	1467	7	0	0	1212983	691	0	correct_rejection	NA	0
8	Nonet	10	10	1468	6	0	0	1213691	692	0	correct_rejection	NA	0
8	Nonet	11	11	1469	5	0	0	1214400	691	0	correct_rejection	NA	0
8	Nonet	12	12	1470	4	0	0	1215108	692	0	correct_rejection	NA	0
8	Nonet	13	13	1471	6	0	0	1215817	692	0	correct_rejection	NA	0
8	Nonet	14	14	1472	5	0	0	1216525	692	0	correct_rejection	NA	0
8	Nonet	15	15	1473	4	0	0	1217234	692	0	correct_rejection	NA	0
8	Nonet	16	16	1474	6	0	0	1217943	691	0	correct_rejection	NA	0
8	Nonet	17	17	1475	0	1	1	1218651	692	1	hit	430	0
8	Nonet	18	18	1476	5	0	0	1219360	691	0	correct_rejection	NA	0
8	Nonet	19	19	1477	4	0	0	1220068	692	0	correct_rejection	NA	0
8	Nonet	20	20	1478	6	0	0	1220777	692	0	correct_rejection	NA	0
8	Nonet	21	21	1479	5	0	0	1221485	692	0	correct_rejection	NA	0
8	Nonet	22	22	1480	0	1	1	1222194	692	1	hit	365	0
8	Nonet	23	23	1481	4	0	0	1222903	691	0	correct_rejection	NA	0
8	Nonet	24	24	1482	6	0	0	1223611	692	0	correct_rejection	NA	0
8	Nonet	25	25	1483	5	0	0	1224320	691	0	correct_rejection	NA	0
8	Nonet	26	26	1484	4	0	0	1225028	692	0	correct_rejection	NA	0
8	Nonet	27	27	1485	6	0	0	1225737	692	0	correct_rejection	NA	0
8	Nonet	28	28	1486	5	0	0	1226445	692	0	correct_rejection	NA	0
8	Nonet	29	29	1487	4	0	0	1227154	692	0	correct_rejection	NA	0
8	Nonet	30	30	1488	9	0	0	1227863	691	0	correct_rejection	NA	0
8	Nonet	31	31	1489	8	0	0	1228571	692	0	correct_rejection	NA	0
8	Nonet	32	32	1490	0	1	1	1229280	691	1	hit	327	0
8	Nonet	33	33	1491	7	0	0	1229988	692	0	correct_rejection	NA	0
8	Nonet	34	34	1492	9	0	0	1230697	692	0	correct_rejection	NA	0
8	Nonet	35	35	1493	8	0	0	1231405	692	0	correct_rejection	NA	0
8	Nonet	36	36	1494	7	0	0	1232114	692	0	correct_rejection	NA	0
8	Nonet	37	37	1495	9	0	0	1232823	691	0	correct_rejection	NA	0
8	Nonet	38	38	1496	8	0	0	1233531	692	0	correct_rejection	NA	0
8	Nonet	39	39	1497	7	0	0	1234240	691	0	correct_rejection	NA	0
8	Nonet	40	40	1498	4	0	0	1234948	692	0	correct_rejection	NA	0
8	Nonet	41	41	1499	5	0	0	1235657	691	0	correct_rejection	NA	0
8	Nonet	42	42	1500	6	0	0	1236365	692	0	correct_rejection	NA	0
8	Nonet	43	43	1501	0	1	2	1237074	692	1	hit	372	0
8	Nonet	44	44	1502	4	0	0	1237782	692	0	correct_rejection	NA	0
8	Nonet	45	45	1503	5	0	0	1238491	692	0	correct_rejection	NA	0
8	Nonet	46	46	1504	6	0	0	1239200	691	0	correct_rejection	NA	0
8	Nonet	47	47	1505	0	1	2	1239908	692	1	hit	330	0
8	Nonet	48	48	1506	4	0	0	1240617	691	0	correct_rejection	NA	0
8	Nonet	49	49	1507	5	0	0	1241325	692	0	correct_rejection	NA	0
8	Nonet	50	50	1508	6	0	0	1242034	692	0	correct_rejection	NA	0
8	Nonet	51	51	1509	4	0	0	1242742	692	0	correct_rejection	NA	0
8	Nonet	52	52	1510	5	0	0	1243451	692	0	correct_rejection	NA	0
8	Nonet	53	53	1511	0	1	1	1244160	691	1	hit	301	0
8	Nonet	54	54	1512	6	0	0	1244868	692	0	correct_rejection	NA	0
8	Nonet	55	55	1513	4	0	0	1245577	691	0	correct_rejection	NA	0
8	Nonet	56	56	1514	5	0	0	1246285	692	0	correct_rejection	NA	0
8	Nonet	57	57	1515	6	0	0	1246994	692	0	correct_rejection	NA	0
8	Nonet	58	58	1516	4	0	0	1247702	692	0	correct_rejection	NA	0
8	Nonet	59	59	1517	5	0	0	1248411	692	0	correct_rejection	NA	0
8	Nonet	60	60	1518	6	0	0	1249120	691	0	correct_rejection	NA	0
8	Nonet	61	61	1519	7	0	0	1249828	692	0	correct_rejection	NA	0
8	Nonet	62	62	1520	8	0	0	1250537	691	0	correct_rejection	NA	0
8	Nonet	63	63	1521	9	0	0	1251245	692	0	correct_rejection	NA	0
8	Nonet	64	64	1522	7	0	0	1251954	692	0	correct_rejection	NA	0
8	Nonet	65	65	1523	8	0	0	1252662	692	0	correct_rejection	NA	0
8	Nonet	66	66	1524	0	1	1	1253371	692	1	hit	453	0
8	Nonet	67	67	1525	9	0	0	1254080	691	0	correct_rejection	NA	0
8	Nonet	68	68	1526	7	0	0	1254788	692	0	correct_rejection	NA	0
8	Nonet	69	69	1527	8	0	0	1255497	691	0	correct_rejection	NA	0
8	Nonet	70	70	1528	9	0	0	1256205	692	0	correct_rejection	NA	0
8	Nonet	71	71	1529	4	0	0	1256914	691	0	correct_rejection	NA	0
8	Nonet	72	72	1530	5	0	0	1257622	692	0	correct_rejection	NA	0
8	Nonet	73	73	1531	6	0	0	1258331	692	0	correct_rejection	NA	0
8	Nonet	74	74	1532	4	0	0	1259039	692	0	correct_rejection	NA	0
8	Nonet	75	75	1533	5	0	0	1259748	692	0	correct_rejection	NA	0
8	Nonet	76	76	1534	6	0	0	1260457	691	0	correct_rejection	NA	0
8	Nonet	77	77	1535	4	0	0	1261165	692	0	correct_rejection	NA	0
8	Nonet	78	78	1536	5	0	0	1261874	691	0	correct_rejection	NA	0
8	Nonet	79	79	1537	6	0	0	1262582	692	0	correct_rejection	NA	0
8	Nonet	80	80	1538	9	0	0	1263291	692	0	correct_rejection	NA	0
8	Nonet	81	81	1539	8	0	0	1263999	692	0	correct_rejection	NA	0
8	Nonet	82	82	1540	0	1	1	1264708	692	1	hit	341	0
8	Nonet	83	83	1541	7	0	0	1265417	691	0	correct_rejection	NA	0
8	Nonet	84	84	1542	9	0	0	1266125	692	0	correct_rejection	NA	0
8	Nonet	85	85	1543	8	0	0	1266834	691	0	correct_rejection	NA	0
8	Nonet	86	86	1544	0	1	1	1267542	692	1	hit	389	0
8	Nonet	87	87	1545	7	0	0	1268251	692	0	correct_rejection	NA	0
8	Nonet	88	88	1546	9	0	0	1268959	692	0	correct_rejection	NA	0
8	Nonet	89	89	1547	8	0	0	1269668	692	0	correct_rejection	NA	0
8	Nonet	90	90	1548	7	0	0	1270377	691	0	correct_rejection	NA	0
8	Nonet	91	91	1549	0	1	3	1271085	692	1	hit	396	0
8	Nonet	92	92	1550	9	0	0	1271794	691	0	correct_rejection	NA	0
8	Nonet	93	93	1551	8	0	0	1272502	692	0	correct_rejection	NA	0
8	Nonet	94	94	1552	7	0	0	1273211	692	0	correct_rejection	NA	0
8	Nonet	95	95	1553	9	0	0	1273919	692	0	correct_rejection	NA	0
8	Nonet	96	96	1554	8	0	0	1274628	692	0	correct_rejection	NA	0
8	Nonet	97	97	1555	7	0	0	1275337	691	0	correct_rejection	NA	0
8	Nonet	98	98	1556	9	0	0	1276045	692	0	correct_rejection	NA	0
8	Nonet	99	99	1557	8	0	0	1276754	691	0	correct_rejection	NA	0
8	Nonet	100	100	1558	7	0	0	1277462	692	0	correct_rejection	NA	0
8	Nonet	101	101	1559	7	0	0	1278171	691	0	correct_rejection	NA	0
8	Nonet	102	102	1560	0	1	1	1278879	692	1	hit	342	0
8	Nonet	103	103	1561	8	0	0	1279588	692	0	correct_rejection	NA	0
8	Nonet	104	104	1562	9	0	0	1280297	691	0	correct_rejection	NA	0
8	Nonet	105	105	1563	7	0	0	1281005	692	0	correct_rejection	NA	0
8	Nonet	106	106	1564	8	0	0	1281714	691	0	correct_rejection	NA	0
8	Nonet	107	107	1565	9	0	0	1282422	692	0	correct_rejection	NA	0
8	Nonet	108	108	1566	7	0	0	1283131	691	0	correct_rejection	NA	0
8	Nonet	109	109	1567	8	0	0	1283839	692	0	correct_rejection	NA	0
8	Nonet	110	110	1568	9	0	0	1284548	692	0	correct_rejection	NA	0
8	Nonet	111	111	1569	6	0	0	1285256	692	0	correct_rejection	NA	0
8	Nonet	112	112	1570	5	0	0	1285965	692	0	correct_rejection	NA	0
8	Nonet	113	113	1571	0	1	1	1286674	691	1	hit	430	0
8	Nonet	114	114	1572	4	0	0	1287382	692	0	correct_rejection	NA	0
8	Nonet	115	115	1573	6	0	0	1288091	691	0	correct_rejection	NA	0
8	Nonet	116	116	1574	5	0	0	1288799	692	0	correct_rejection	NA	0
8	Nonet	117	117	1575	4	0	0	1289508	692	0	correct_rejection	NA	0
8	Nonet	118	118	1576	0	1	2	1290216	692	1	hit	416	0
8	Nonet	119	119	1577	6	0	0	1290925	692	0	correct_rejection	NA	0
8	Nonet	120	120	1578	5	0	0	1291634	691	0	correct_rejection	NA	0
8	Nonet	121	121	1579	4	0	0	1292342	692	0	correct_rejection	NA	0
8	Nonet	122	122	1580	4	0	0	1293051	691	0	correct_rejection	NA	0
8	Nonet	123	123	1581	5	0	0	1293759	692	0	correct_rejection	NA	0
8	Nonet	124	124	1582	6	0	0	1294468	692	0	correct_rejection	NA	0
8	Nonet	125	125	1583	4	0	0	1295176	692	0	correct_rejection	NA	0
8	Nonet	126	126	1584	5	0	0	1295885	692	0	correct_rejection	NA	0
8	Nonet	127	127	1585	0	1	1	1296594	691	1	hit	383	0
8	Nonet	128	128	1586	6	0	0	1297302	692	0	correct_rejection	NA	0
8	Nonet	129	129	1587	4	0	0	1298011	691	0	correct_rejection	NA	0
8	Nonet	130	130	1588	0	1	1	1298719	692	1	hit	427	0
8	Nonet	131	131	1589	5	0	0	1299428	692	0	correct_rejection	NA	0
8	Nonet	132	132	1590	6	0	0	1300136	692	0	correct_rejection	NA	0
8	Nonet	133	133	1591	6	0	0	1300845	692	0	correct_rejection	NA	0
8	Nonet	134	134	1592	5	0	0	1301554	691	0	correct_rejection	NA	0
8	Nonet	135	135	1593	4	0	0	1302262	692	0	correct_rejection	NA	0
8	Nonet	136	136	1594	6	0	0	1302971	691	0	correct_rejection	NA	0
8	Nonet	137	137	1595	5	0	0	1303679	692	0	correct_rejection	NA	0
8	Nonet	138	138	1596	4	0	0	1304388	691	0	correct_rejection	NA	0
8	Nonet	139	139	1597	6	0	0	1305096	692	0	correct_rejection	NA	0
8	Nonet	140	140	1598	5	0	0	1305805	692	0	correct_rejection	NA	0
8	Nonet	141	141	1599	4	0	0	1306513	692	0	correct_rejection	NA	0
8	Nonet	142	142	1600	7	0	0	1307222	692	0	correct_rejection	NA	0
8	Nonet	143	143	1601	8	0	0	1307931	691	0	correct_rejection	NA	0
8	Nonet	144	144	1602	0	1	1	1308639	692	1	hit	377	0
8	Nonet	145	145	1603	9	0	0	1309348	691	0	correct_rejection	NA	0
8	Nonet	146	146	1604	7	0	0	1310056	692	0	correct_rejection	NA	0
8	Nonet	147	147	1605	8	0	0	1310765	692	0	correct_rejection	NA	0
8	Nonet	148	148	1606	9	0	0	1311473	692	0	correct_rejection	NA	0
8	Nonet	149	149	1607	0	1	2	1312182	692	1	hit	418	0
8	Nonet	150	150	1608	7	0	0	1312891	691	0	correct_rejection	NA	0
8	Nonet	151	151	1609	8	0	0	1313599	692	0	correct_rejection	NA	0
8	Nonet	152	152	1610	9	0	0	1314308	691	0	correct_rejection	NA	0
8	Nonet	153	153	1611	7	0	0	1315016	692	0	correct_rejection	NA	0
8	Nonet	154	154	1612	8	0	0	1315725	692	0	correct_rejection	NA	0
8	Nonet	155	155	1613	9	0	0	1316433	692	0	correct_rejection	NA	0
8	Nonet	156	156	1614	7	0	0	1317142	692	0	correct_rejection	NA	0
8	Nonet	157	157	1615	8	0	0	1317851	691	0	correct_rejection	NA	0
8	Nonet	158	158	1616	9	0	0	1318559	692	0	correct_rejection	NA	0
8	Nonet	159	159	1617	0	1	2	1319268	691	1	hit	334	0
8	Nonet	160	160	1618	7	0	0	1319976	692	0	correct_rejection	NA	0
8	Nonet	161	161	1619	8	0	0	1320685	692	0	correct_rejection	NA	0
8	Nonet	162	162	1620	9	0	0	1321393	692	0	correct_rejection	NA	0
trigger nr 1243 at 1323842
trigger nr 1251 at 1404627
