ID	block	trial_block	trial_cat	trial_total	number	violation	level_violation	onset	duration	Response	Hit_Miss	RT	pre_trial_fixcross_ISI
first_trigger_at: 11183
trigger nr 5 at 15183
9	Single	1	325	1	9	0	0	22832	692	0	correct_rejection	NA	7609
9	Single	2	326	2	5	0	0	23541	691	0	correct_rejection	NA	0
9	Single	3	327	3	7	0	0	24249	692	0	correct_rejection	NA	0
9	Single	4	328	4	6	0	0	24958	691	0	correct_rejection	NA	0
9	Single	5	329	5	0	1	1	25666	692	1	hit	411	0
9	Single	6	330	6	9	0	0	26375	692	0	correct_rejection	NA	0
9	Single	7	331	7	4	0	0	27083	692	0	correct_rejection	NA	0
9	Single	8	332	8	4	0	0	27792	692	0	correct_rejection	NA	0
9	Single	9	333	9	7	0	0	28501	691	0	correct_rejection	NA	0
9	Single	10	334	10	8	0	0	29209	692	0	correct_rejection	NA	0
9	Single	11	335	11	5	0	0	29918	691	0	correct_rejection	NA	0
9	Single	12	336	12	9	0	0	30626	692	0	correct_rejection	NA	0
9	Single	13	337	13	0	1	1	31335	692	1	hit	365	0
9	Single	14	338	14	8	0	0	32043	692	0	correct_rejection	NA	0
9	Single	15	339	15	6	0	0	32752	692	0	correct_rejection	NA	0
9	Single	16	340	16	7	0	0	33461	691	0	correct_rejection	NA	0
9	Single	17	341	17	4	0	0	34169	692	0	correct_rejection	NA	0
9	Single	18	342	18	0	1	1	34878	691	1	hit	383	0
9	Single	19	343	19	5	0	0	35586	692	0	correct_rejection	NA	0
9	Single	20	344	20	8	0	0	36295	691	0	correct_rejection	NA	0
9	Single	21	345	21	8	0	0	37003	692	0	correct_rejection	NA	0
9	Single	22	346	22	9	0	0	37712	692	0	correct_rejection	NA	0
9	Single	23	347	23	7	0	0	38420	692	0	correct_rejection	NA	0
9	Single	24	348	24	5	0	0	39129	692	0	correct_rejection	NA	0
9	Single	25	349	25	5	0	0	39838	691	0	correct_rejection	NA	0
9	Single	26	350	26	4	0	0	40546	692	0	correct_rejection	NA	0
9	Single	27	351	27	9	0	0	41255	691	0	correct_rejection	NA	0
9	Single	28	352	28	9	0	0	41963	692	0	correct_rejection	NA	0
9	Single	29	353	29	6	0	0	42672	692	0	correct_rejection	NA	0
9	Single	30	354	30	8	0	0	43380	692	0	correct_rejection	NA	0
9	Single	31	355	31	4	0	0	44089	692	0	correct_rejection	NA	0
9	Single	32	356	32	6	0	0	44798	691	0	correct_rejection	NA	0
9	Single	33	357	33	0	1	1	45506	692	1	hit	353	0
9	Single	34	358	34	6	0	0	46215	691	0	correct_rejection	NA	0
9	Single	35	359	35	5	0	0	46923	692	0	correct_rejection	NA	0
9	Single	36	360	36	6	0	0	47632	692	0	correct_rejection	NA	0
9	Single	37	361	37	4	0	0	48340	692	0	correct_rejection	NA	0
9	Single	38	362	38	8	0	0	49049	692	0	correct_rejection	NA	0
9	Single	39	363	39	7	0	0	49758	691	0	correct_rejection	NA	0
9	Single	40	364	40	7	0	0	50466	692	0	correct_rejection	NA	0
9	Single	41	365	41	5	0	0	51175	691	0	correct_rejection	NA	0
9	Single	42	366	42	8	0	0	51883	692	0	correct_rejection	NA	0
9	Single	43	367	43	4	0	0	52592	692	0	correct_rejection	NA	0
9	Single	44	368	44	5	0	0	53300	692	0	correct_rejection	NA	0
9	Single	45	369	45	6	0	0	54009	692	0	correct_rejection	NA	0
9	Single	46	370	46	8	0	0	54718	691	0	correct_rejection	NA	0
9	Single	47	371	47	6	0	0	55426	692	0	correct_rejection	NA	0
9	Single	48	372	48	6	0	0	56135	691	0	correct_rejection	NA	0
9	Single	49	373	49	0	1	1	56843	692	1	hit	361	0
9	Single	50	374	50	4	0	0	57552	691	0	correct_rejection	NA	0
9	Single	51	375	51	7	0	0	58260	692	0	correct_rejection	NA	0
9	Single	52	376	52	9	0	0	58969	692	0	correct_rejection	NA	0
9	Single	53	377	53	0	1	1	59677	692	1	hit	451	0
9	Single	54	378	54	7	0	0	60386	692	0	correct_rejection	NA	0
9	Single	55	379	55	7	0	0	61095	691	0	correct_rejection	NA	0
9	Single	56	380	56	8	0	0	61803	692	0	correct_rejection	NA	0
9	Single	57	381	57	0	1	1	62512	691	1	hit	433	0
9	Single	58	382	58	7	0	0	63220	692	0	correct_rejection	NA	0
9	Single	59	383	59	4	0	0	63929	692	0	correct_rejection	NA	0
9	Single	60	384	60	0	1	1	64637	692	1	hit	436	0
9	Single	61	385	61	9	0	0	65346	692	0	correct_rejection	NA	0
9	Single	62	386	62	8	0	0	66055	691	0	correct_rejection	NA	0
9	Single	63	387	63	9	0	0	66763	692	0	correct_rejection	NA	0
9	Single	64	388	64	5	0	0	67472	691	0	correct_rejection	NA	0
9	Single	65	389	65	5	0	0	68180	692	0	correct_rejection	NA	0
9	Single	66	390	66	7	0	0	68889	692	0	correct_rejection	NA	0
9	Single	67	391	67	5	0	0	69597	692	0	correct_rejection	NA	0
9	Single	68	392	68	9	0	0	70306	692	0	correct_rejection	NA	0
9	Single	69	393	69	6	0	0	71015	691	0	correct_rejection	NA	0
9	Single	70	394	70	9	0	0	71723	692	0	correct_rejection	NA	0
9	Single	71	395	71	9	0	0	72432	691	0	correct_rejection	NA	0
9	Single	72	396	72	4	0	0	73140	692	0	correct_rejection	NA	0
9	Single	73	397	73	6	0	0	73849	692	0	correct_rejection	NA	0
9	Single	74	398	74	7	0	0	74557	692	0	correct_rejection	NA	0
9	Single	75	399	75	6	0	0	75266	692	0	correct_rejection	NA	0
9	Single	76	400	76	5	0	0	75975	691	0	correct_rejection	NA	0
9	Single	77	401	77	0	1	1	76683	692	1	hit	390	0
9	Single	78	402	78	4	0	0	77392	691	0	correct_rejection	NA	0
9	Single	79	403	79	4	0	0	78100	692	0	correct_rejection	NA	0
9	Single	80	404	80	8	0	0	78809	691	0	correct_rejection	NA	0
9	Single	81	405	81	8	0	0	79517	692	0	correct_rejection	NA	0
9	Single	82	406	82	0	1	1	80226	692	1	hit	372	0
9	Single	83	407	83	8	0	0	80934	692	0	correct_rejection	NA	0
9	Single	84	408	84	4	0	0	81643	692	0	correct_rejection	NA	0
9	Single	85	409	85	9	0	0	82352	691	0	correct_rejection	NA	0
9	Single	86	410	86	7	0	0	83060	692	0	correct_rejection	NA	0
9	Single	87	411	87	4	0	0	83769	691	0	correct_rejection	NA	0
9	Single	88	412	88	8	0	0	84477	692	0	correct_rejection	NA	0
9	Single	89	413	89	9	0	0	85186	692	0	correct_rejection	NA	0
9	Single	90	414	90	4	0	0	85894	692	0	correct_rejection	NA	0
9	Single	91	415	91	7	0	0	86603	692	0	correct_rejection	NA	0
9	Single	92	416	92	6	0	0	87312	691	0	correct_rejection	NA	0
9	Single	93	417	93	6	0	0	88020	692	0	correct_rejection	NA	0
9	Single	94	418	94	0	1	1	88729	691	1	hit	369	0
9	Single	95	419	95	8	0	0	89437	692	0	correct_rejection	NA	0
9	Single	96	420	96	8	0	0	90146	692	0	correct_rejection	NA	0
9	Single	97	421	97	5	0	0	90854	692	0	correct_rejection	NA	0
9	Single	98	422	98	5	0	0	91563	692	0	correct_rejection	NA	0
9	Single	99	423	99	6	0	0	92272	691	0	correct_rejection	NA	0
9	Single	100	424	100	0	1	1	92980	692	1	hit	502	0
9	Single	101	425	101	7	0	0	93689	691	0	correct_rejection	NA	0
9	Single	102	426	102	9	0	0	94397	692	0	correct_rejection	NA	0
9	Single	103	427	103	6	0	0	95106	692	0	correct_rejection	NA	0
9	Single	104	428	104	4	0	0	95814	692	0	correct_rejection	NA	0
9	Single	105	429	105	4	0	0	96523	692	0	correct_rejection	NA	0
9	Single	106	430	106	6	0	0	97232	691	0	correct_rejection	NA	0
9	Single	107	431	107	9	0	0	97940	692	0	correct_rejection	NA	0
9	Single	108	432	108	5	0	0	98649	691	0	correct_rejection	NA	0
9	Single	109	433	109	4	0	0	99357	692	0	correct_rejection	NA	0
9	Single	110	434	110	5	0	0	100066	691	0	correct_rejection	NA	0
9	Single	111	435	111	9	0	0	100774	692	0	correct_rejection	NA	0
9	Single	112	436	112	9	0	0	101483	692	0	correct_rejection	NA	0
9	Single	113	437	113	8	0	0	102191	692	0	correct_rejection	NA	0
9	Single	114	438	114	7	0	0	102900	692	0	correct_rejection	NA	0
9	Single	115	439	115	8	0	0	103609	691	0	correct_rejection	NA	0
9	Single	116	440	116	6	0	0	104317	692	0	correct_rejection	NA	0
9	Single	117	441	117	5	0	0	105026	691	0	correct_rejection	NA	0
9	Single	118	442	118	7	0	0	105734	692	0	correct_rejection	NA	0
9	Single	119	443	119	7	0	0	106443	692	0	correct_rejection	NA	0
9	Single	120	444	120	5	0	0	107151	692	0	correct_rejection	NA	0
9	Single	121	445	121	8	0	0	107860	692	0	correct_rejection	NA	0
9	Single	122	446	122	7	0	0	108569	691	0	correct_rejection	NA	0
9	Single	123	447	123	9	0	0	109277	692	0	correct_rejection	NA	0
9	Single	124	448	124	0	1	1	109986	691	1	hit	343	0
9	Single	125	449	125	9	0	0	110694	692	0	correct_rejection	NA	0
9	Single	126	450	126	6	0	0	111403	692	0	correct_rejection	NA	0
9	Single	127	451	127	0	1	1	112111	692	1	hit	418	0
9	Single	128	452	128	5	0	0	112820	692	0	correct_rejection	NA	0
9	Single	129	453	129	5	0	0	113529	691	0	correct_rejection	NA	0
9	Single	130	454	130	9	0	0	114237	692	0	correct_rejection	NA	0
9	Single	131	455	131	4	0	0	114946	691	0	correct_rejection	NA	0
9	Single	132	456	132	9	0	0	115654	692	0	correct_rejection	NA	0
9	Single	133	457	133	5	0	0	116363	692	0	correct_rejection	NA	0
9	Single	134	458	134	7	0	0	117071	692	0	correct_rejection	NA	0
9	Single	135	459	135	4	0	0	117780	692	0	correct_rejection	NA	0
9	Single	136	460	136	4	0	0	118489	691	0	correct_rejection	NA	0
9	Single	137	461	137	5	0	0	119197	692	0	correct_rejection	NA	0
9	Single	138	462	138	8	0	0	119906	691	0	correct_rejection	NA	0
9	Single	139	463	139	8	0	0	120614	692	0	correct_rejection	NA	0
9	Single	140	464	140	0	1	1	121323	691	1	hit	329	0
9	Single	141	465	141	9	0	0	122031	692	0	correct_rejection	NA	0
9	Single	142	466	142	7	0	0	122740	692	0	correct_rejection	NA	0
9	Single	143	467	143	8	0	0	123448	692	0	correct_rejection	NA	0
9	Single	144	468	144	4	0	0	124157	692	0	correct_rejection	NA	0
9	Single	145	469	145	8	0	0	124866	691	0	correct_rejection	NA	0
9	Single	146	470	146	6	0	0	125574	692	0	correct_rejection	NA	0
9	Single	147	471	147	9	0	0	126283	691	0	correct_rejection	NA	0
9	Single	148	472	148	8	0	0	126991	692	0	correct_rejection	NA	0
9	Single	149	473	149	0	1	1	127700	692	0	miss	NA	0
9	Single	150	474	150	5	0	0	128408	692	1	false_alarm	56	0
9	Single	151	475	151	4	0	0	129117	692	0	correct_rejection	NA	0
9	Single	152	476	152	0	1	1	129826	691	1	hit	380	0
9	Single	153	477	153	7	0	0	130534	692	0	correct_rejection	NA	0
9	Single	154	478	154	5	0	0	131243	691	0	correct_rejection	NA	0
9	Single	155	479	155	0	1	1	131951	692	1	hit	310	0
9	Single	156	480	156	6	0	0	132660	692	0	correct_rejection	NA	0
9	Single	157	481	157	6	0	0	133368	692	0	correct_rejection	NA	0
9	Single	158	482	158	7	0	0	134077	692	0	correct_rejection	NA	0
9	Single	159	483	159	7	0	0	134786	691	0	correct_rejection	NA	0
9	Single	160	484	160	6	0	0	135494	692	0	correct_rejection	NA	0
9	Single	161	485	161	4	0	0	136203	691	0	correct_rejection	NA	0
9	Single	162	486	162	6	0	0	136911	692	0	correct_rejection	NA	0
9	Correct	1	487	163	4	0	0	146931	692	0	correct_rejection	NA	7708
9	Correct	2	488	164	5	0	0	147640	691	0	correct_rejection	NA	0
9	Correct	3	489	165	6	0	0	148348	692	0	correct_rejection	NA	0
9	Correct	4	490	166	4	0	0	149057	692	0	correct_rejection	NA	0
9	Correct	5	491	167	0	1	1	149766	691	1	hit	443	0
9	Correct	6	492	168	5	0	0	150474	692	0	correct_rejection	NA	0
9	Correct	7	493	169	6	0	0	151183	691	0	correct_rejection	NA	0
9	Correct	8	494	170	0	1	2	151891	692	1	hit	383	0
9	Correct	9	495	171	4	0	0	152600	691	0	correct_rejection	NA	0
9	Correct	10	496	172	5	0	0	153308	692	0	correct_rejection	NA	0
9	Correct	11	497	173	6	0	0	154017	692	0	correct_rejection	NA	0
9	Correct	12	498	174	6	0	0	154725	692	0	correct_rejection	NA	0
9	Correct	13	499	175	5	0	0	155434	692	0	correct_rejection	NA	0
9	Correct	14	500	176	4	0	0	156143	691	0	correct_rejection	NA	0
9	Correct	15	501	177	0	1	2	156851	692	1	hit	439	0
9	Correct	16	502	178	6	0	0	157560	691	0	correct_rejection	NA	0
9	Correct	17	503	179	5	0	0	158268	692	0	correct_rejection	NA	0
9	Correct	18	504	180	4	0	0	158977	692	0	correct_rejection	NA	0
9	Correct	19	505	181	6	0	0	159685	692	0	correct_rejection	NA	0
9	Correct	20	506	182	0	1	1	160394	692	1	hit	425	0
9	Correct	21	507	183	5	0	0	161103	691	0	correct_rejection	NA	0
9	Correct	22	508	184	4	0	0	161811	692	0	correct_rejection	NA	0
9	Correct	23	509	185	9	0	0	162520	691	0	correct_rejection	NA	0
9	Correct	24	510	186	8	0	0	163228	692	0	correct_rejection	NA	0
9	Correct	25	511	187	7	0	0	163937	692	0	correct_rejection	NA	0
9	Correct	26	512	188	9	0	0	164645	692	0	correct_rejection	NA	0
9	Correct	27	513	189	0	1	1	165354	692	1	hit	351	0
9	Correct	28	514	190	8	0	0	166063	691	0	correct_rejection	NA	0
9	Correct	29	515	191	7	0	0	166771	692	0	correct_rejection	NA	0
9	Correct	30	516	192	9	0	0	167480	691	0	correct_rejection	NA	0
9	Correct	31	517	193	8	0	0	168188	692	0	correct_rejection	NA	0
9	Correct	32	518	194	0	1	1	168897	692	1	hit	356	0
9	Correct	33	519	195	7	0	0	169605	692	0	correct_rejection	NA	0
9	Correct	34	520	196	7	0	0	170314	692	0	correct_rejection	NA	0
9	Correct	35	521	197	8	0	0	171023	691	0	correct_rejection	NA	0
9	Correct	36	522	198	9	0	0	171731	692	0	correct_rejection	NA	0
9	Correct	37	523	199	7	0	0	172440	691	0	correct_rejection	NA	0
9	Correct	38	524	200	8	0	0	173148	692	0	correct_rejection	NA	0
9	Correct	39	525	201	9	0	0	173857	691	0	correct_rejection	NA	0
9	Correct	40	526	202	7	0	0	174565	692	0	correct_rejection	NA	0
9	Correct	41	527	203	8	0	0	175274	692	0	correct_rejection	NA	0
9	Correct	42	528	204	9	0	0	175982	692	0	correct_rejection	NA	0
9	Correct	43	529	205	4	0	0	176691	692	0	correct_rejection	NA	0
9	Correct	44	530	206	5	0	0	177400	691	0	correct_rejection	NA	0
9	Correct	45	531	207	6	0	0	178108	692	0	correct_rejection	NA	0
9	Correct	46	532	208	4	0	0	178817	691	0	correct_rejection	NA	0
9	Correct	47	533	209	5	0	0	179525	692	0	correct_rejection	NA	0
9	Correct	48	534	210	6	0	0	180234	692	0	correct_rejection	NA	0
9	Correct	49	535	211	4	0	0	180942	692	0	correct_rejection	NA	0
9	Correct	50	536	212	5	0	0	181651	692	0	correct_rejection	NA	0
9	Correct	51	537	213	0	1	1	182360	691	1	hit	437	0
9	Correct	52	538	214	6	0	0	183068	692	0	correct_rejection	NA	0
9	Correct	53	539	215	6	0	0	183777	691	0	correct_rejection	NA	0
9	Correct	54	540	216	5	0	0	184485	692	0	correct_rejection	NA	0
9	Correct	55	541	217	4	0	0	185194	692	0	correct_rejection	NA	0
9	Correct	56	542	218	6	0	0	185902	692	0	correct_rejection	NA	0
9	Correct	57	543	219	5	0	0	186611	692	0	correct_rejection	NA	0
9	Correct	58	544	220	4	0	0	187320	691	0	correct_rejection	NA	0
9	Correct	59	545	221	0	1	2	188028	692	1	hit	353	0
9	Correct	60	546	222	6	0	0	188737	691	0	correct_rejection	NA	0
9	Correct	61	547	223	5	0	0	189445	692	0	correct_rejection	NA	0
9	Correct	62	548	224	0	1	1	190154	692	1	hit	453	0
9	Correct	63	549	225	4	0	0	190862	692	0	correct_rejection	NA	0
9	Correct	64	550	226	9	0	0	191571	692	0	correct_rejection	NA	0
9	Correct	65	551	227	0	1	1	192280	691	1	hit	373	0
9	Correct	66	552	228	8	0	0	192988	692	0	correct_rejection	NA	0
9	Correct	67	553	229	7	0	0	193697	691	0	correct_rejection	NA	0
9	Correct	68	554	230	9	0	0	194405	692	0	correct_rejection	NA	0
9	Correct	69	555	231	8	0	0	195114	691	0	correct_rejection	NA	0
9	Correct	70	556	232	0	1	1	195822	692	1	hit	350	0
9	Correct	71	557	233	7	0	0	196531	692	0	correct_rejection	NA	0
9	Correct	72	558	234	9	0	0	197239	692	0	correct_rejection	NA	0
9	Correct	73	559	235	8	0	0	197948	692	0	correct_rejection	NA	0
9	Correct	74	560	236	7	0	0	198657	691	0	correct_rejection	NA	0
9	Correct	75	561	237	7	0	0	199365	692	0	correct_rejection	NA	0
9	Correct	76	562	238	8	0	0	200074	691	0	correct_rejection	NA	0
9	Correct	77	563	239	9	0	0	200782	692	0	correct_rejection	NA	0
9	Correct	78	564	240	7	0	0	201491	692	0	correct_rejection	NA	0
9	Correct	79	565	241	8	0	0	202199	692	0	correct_rejection	NA	0
9	Correct	80	566	242	9	0	0	202908	692	0	correct_rejection	NA	0
9	Correct	81	567	243	7	0	0	203617	691	0	correct_rejection	NA	0
9	Correct	82	568	244	8	0	0	204325	692	0	correct_rejection	NA	0
9	Correct	83	569	245	9	0	0	205034	691	0	correct_rejection	NA	0
9	Correct	84	570	246	4	0	0	205742	692	0	correct_rejection	NA	0
9	Correct	85	571	247	5	0	0	206451	692	0	correct_rejection	NA	0
9	Correct	86	572	248	6	0	0	207159	692	0	correct_rejection	NA	0
9	Correct	87	573	249	4	0	0	207868	692	0	correct_rejection	NA	0
9	Correct	88	574	250	5	0	0	208577	691	0	correct_rejection	NA	0
9	Correct	89	575	251	0	1	1	209285	692	1	hit	471	0
9	Correct	90	576	252	6	0	0	209994	691	0	correct_rejection	NA	0
9	Correct	91	577	253	4	0	0	210702	692	0	correct_rejection	NA	0
9	Correct	92	578	254	5	0	0	211411	692	0	correct_rejection	NA	0
9	Correct	93	579	255	6	0	0	212119	692	0	correct_rejection	NA	0
9	Correct	94	580	256	6	0	0	212828	692	0	correct_rejection	NA	0
9	Correct	95	581	257	0	1	1	213537	691	1	hit	486	0
9	Correct	96	582	258	5	0	0	214245	692	0	correct_rejection	NA	0
9	Correct	97	583	259	4	0	0	214954	691	0	correct_rejection	NA	0
9	Correct	98	584	260	6	0	0	215662	692	0	correct_rejection	NA	0
9	Correct	99	585	261	5	0	0	216371	691	0	correct_rejection	NA	0
9	Correct	100	586	262	4	0	0	217079	692	0	correct_rejection	NA	0
9	Correct	101	587	263	6	0	0	217788	692	0	correct_rejection	NA	0
9	Correct	102	588	264	5	0	0	218496	692	0	correct_rejection	NA	0
9	Correct	103	589	265	4	0	0	219205	692	0	correct_rejection	NA	0
9	Correct	104	590	266	9	0	0	219914	691	0	correct_rejection	NA	0
9	Correct	105	591	267	8	0	0	220622	692	0	correct_rejection	NA	0
9	Correct	106	592	268	7	0	0	221331	691	0	correct_rejection	NA	0
9	Correct	107	593	269	9	0	0	222039	692	0	correct_rejection	NA	0
9	Correct	108	594	270	8	0	0	222748	692	0	correct_rejection	NA	0
9	Correct	109	595	271	7	0	0	223456	692	0	correct_rejection	NA	0
9	Correct	110	596	272	9	0	0	224165	692	0	correct_rejection	NA	0
9	Correct	111	597	273	8	0	0	224874	691	0	correct_rejection	NA	0
9	Correct	112	598	274	7	0	0	225582	692	0	correct_rejection	NA	0
9	Correct	113	599	275	7	0	0	226291	691	0	correct_rejection	NA	0
9	Correct	114	600	276	8	0	0	226999	692	0	correct_rejection	NA	0
9	Correct	115	601	277	0	1	1	227708	692	1	hit	493	0
9	Correct	116	602	278	9	0	0	228416	692	0	correct_rejection	NA	0
9	Correct	117	603	279	7	0	0	229125	692	0	correct_rejection	NA	0
9	Correct	118	604	280	8	0	0	229834	691	0	correct_rejection	NA	0
9	Correct	119	605	281	9	0	0	230542	692	0	correct_rejection	NA	0
9	Correct	120	606	282	7	0	0	231251	691	0	correct_rejection	NA	0
9	Correct	121	607	283	8	0	0	231959	692	0	correct_rejection	NA	0
9	Correct	122	608	284	9	0	0	232668	692	0	correct_rejection	NA	0
9	Correct	123	609	285	0	1	4	233376	692	1	hit	467	0
9	Correct	124	610	286	4	0	0	234085	692	0	correct_rejection	NA	0
9	Correct	125	611	287	5	0	0	234794	691	0	correct_rejection	NA	0
9	Correct	126	612	288	6	0	0	235502	692	0	correct_rejection	NA	0
9	Correct	127	613	289	4	0	0	236211	691	0	correct_rejection	NA	0
9	Correct	128	614	290	5	0	0	236919	692	0	correct_rejection	NA	0
9	Correct	129	615	291	6	0	0	237628	691	0	correct_rejection	NA	0
9	Correct	130	616	292	0	1	2	238336	692	1	hit	407	0
9	Correct	131	617	293	4	0	0	239045	692	0	correct_rejection	NA	0
9	Correct	132	618	294	5	0	0	239753	692	0	correct_rejection	NA	0
9	Correct	133	619	295	6	0	0	240462	692	0	correct_rejection	NA	0
9	Correct	134	620	296	6	0	0	241171	691	0	correct_rejection	NA	0
9	Correct	135	621	297	5	0	0	241879	692	0	correct_rejection	NA	0
9	Correct	136	622	298	4	0	0	242588	691	0	correct_rejection	NA	0
9	Correct	137	623	299	6	0	0	243296	692	0	correct_rejection	NA	0
9	Correct	138	624	300	5	0	0	244005	692	0	correct_rejection	NA	0
9	Correct	139	625	301	0	1	1	244713	692	1	hit	414	0
9	Correct	140	626	302	4	0	0	245422	692	0	correct_rejection	NA	0
9	Correct	141	627	303	6	0	0	246131	691	0	correct_rejection	NA	0
9	Correct	142	628	304	5	0	0	246839	692	0	correct_rejection	NA	0
9	Correct	143	629	305	4	0	0	247548	691	0	correct_rejection	NA	0
9	Correct	144	630	306	0	1	3	248256	692	1	hit	395	0
9	Correct	145	631	307	9	0	0	248965	692	0	correct_rejection	NA	0
9	Correct	146	632	308	8	0	0	249673	692	0	correct_rejection	NA	0
9	Correct	147	633	309	7	0	0	250382	692	0	correct_rejection	NA	0
9	Correct	148	634	310	9	0	0	251091	691	0	correct_rejection	NA	0
9	Correct	149	635	311	8	0	0	251799	692	0	correct_rejection	NA	0
9	Correct	150	636	312	7	0	0	252508	691	0	correct_rejection	NA	0
9	Correct	151	637	313	9	0	0	253216	692	0	correct_rejection	NA	0
9	Correct	152	638	314	8	0	0	253925	692	0	correct_rejection	NA	0
9	Correct	153	639	315	7	0	0	254633	692	0	correct_rejection	NA	0
9	Correct	154	640	316	7	0	0	255342	692	0	correct_rejection	NA	0
9	Correct	155	641	317	8	0	0	256051	691	0	correct_rejection	NA	0
9	Correct	156	642	318	9	0	0	256759	692	0	correct_rejection	NA	0
9	Correct	157	643	319	7	0	0	257468	691	0	correct_rejection	NA	0
9	Correct	158	644	320	8	0	0	258176	692	0	correct_rejection	NA	0
9	Correct	159	645	321	9	0	0	258885	691	0	correct_rejection	NA	0
9	Correct	160	646	322	7	0	0	259593	692	0	correct_rejection	NA	0
9	Correct	161	647	323	8	0	0	260302	692	0	correct_rejection	NA	0
9	Correct	162	648	324	9	0	0	261010	692	0	correct_rejection	NA	0
9	Triplet	1	325	325	6	0	0	269597	691	0	correct_rejection	NA	6379
9	Triplet	2	326	326	5	0	0	270305	692	0	correct_rejection	NA	0
9	Triplet	3	327	327	4	0	0	271014	691	0	correct_rejection	NA	0
9	Triplet	4	328	328	6	0	0	271722	692	0	correct_rejection	NA	0
9	Triplet	5	329	329	5	0	0	272431	692	0	correct_rejection	NA	0
9	Triplet	6	330	330	4	0	0	273139	692	0	correct_rejection	NA	0
9	Triplet	7	331	331	9	0	0	273848	692	0	correct_rejection	NA	0
9	Triplet	8	332	332	8	0	0	274557	691	0	correct_rejection	NA	0
9	Triplet	9	333	333	7	0	0	275265	692	0	correct_rejection	NA	0
9	Triplet	10	334	334	9	0	0	275974	691	0	correct_rejection	NA	0
9	Triplet	11	335	335	8	0	0	276682	692	0	correct_rejection	NA	0
9	Triplet	12	336	336	7	0	0	277391	692	0	correct_rejection	NA	0
9	Triplet	13	337	337	7	0	0	278099	692	0	correct_rejection	NA	0
9	Triplet	14	338	338	0	1	1	278808	692	1	hit	458	0
9	Triplet	15	339	339	8	0	0	279517	691	0	correct_rejection	NA	0
9	Triplet	16	340	340	9	0	0	280225	692	0	correct_rejection	NA	0
9	Triplet	17	341	341	9	0	0	280934	691	0	correct_rejection	NA	0
9	Triplet	18	342	342	8	0	0	281642	692	0	correct_rejection	NA	0
9	Triplet	19	343	343	7	0	0	282351	692	0	correct_rejection	NA	0
9	Triplet	20	344	344	6	0	0	283059	692	0	correct_rejection	NA	0
9	Triplet	21	345	345	5	0	0	283768	692	0	correct_rejection	NA	0
9	Triplet	22	346	346	4	0	0	284477	691	0	correct_rejection	NA	0
9	Triplet	23	347	347	7	0	0	285185	692	0	correct_rejection	NA	0
9	Triplet	24	348	348	8	0	0	285894	691	0	correct_rejection	NA	0
9	Triplet	25	349	349	9	0	0	286602	692	0	correct_rejection	NA	0
9	Triplet	26	350	350	4	0	0	287311	692	0	correct_rejection	NA	0
9	Triplet	27	351	351	5	0	0	288019	692	0	correct_rejection	NA	0
9	Triplet	28	352	352	6	0	0	288728	692	0	correct_rejection	NA	0
9	Triplet	29	353	353	6	0	0	289437	691	0	correct_rejection	NA	0
9	Triplet	30	354	354	0	1	1	290145	692	1	hit	534	0
9	Triplet	31	355	355	5	0	0	290854	691	0	correct_rejection	NA	0
9	Triplet	32	356	356	4	0	0	291562	692	0	correct_rejection	NA	0
9	Triplet	33	357	357	4	0	0	292271	691	0	correct_rejection	NA	0
9	Triplet	34	358	358	5	0	0	292979	692	0	correct_rejection	NA	0
9	Triplet	35	359	359	6	0	0	293688	692	0	correct_rejection	NA	0
9	Triplet	36	360	360	9	0	0	294397	691	0	correct_rejection	NA	0
9	Triplet	37	361	361	8	0	0	295105	692	0	correct_rejection	NA	0
9	Triplet	38	362	362	7	0	0	295814	691	0	correct_rejection	NA	0
9	Triplet	39	363	363	4	0	0	296522	692	0	correct_rejection	NA	0
9	Triplet	40	364	364	5	0	0	297231	691	0	correct_rejection	NA	0
9	Triplet	41	365	365	6	0	0	297939	692	0	correct_rejection	NA	0
9	Triplet	42	366	366	4	0	0	298648	692	0	correct_rejection	NA	0
9	Triplet	43	367	367	0	1	1	299356	692	1	hit	455	0
9	Triplet	44	368	368	5	0	0	300065	692	0	correct_rejection	NA	0
9	Triplet	45	369	369	6	0	0	300774	691	0	correct_rejection	NA	0
9	Triplet	46	370	370	7	0	0	301482	692	0	correct_rejection	NA	0
9	Triplet	47	371	371	8	0	0	302191	691	0	correct_rejection	NA	0
9	Triplet	48	372	372	9	0	0	302899	692	0	correct_rejection	NA	0
9	Triplet	49	373	373	7	0	0	303608	692	0	correct_rejection	NA	0
9	Triplet	50	374	374	8	0	0	304316	692	0	correct_rejection	NA	0
9	Triplet	51	375	375	9	0	0	305025	692	0	correct_rejection	NA	0
9	Triplet	52	376	376	0	1	2	305734	691	1	hit	336	0
9	Triplet	53	377	377	6	0	0	306442	692	0	correct_rejection	NA	0
9	Triplet	54	378	378	5	0	0	307151	691	0	correct_rejection	NA	0
9	Triplet	55	379	379	4	0	0	307859	692	0	correct_rejection	NA	0
9	Triplet	56	380	380	0	1	2	308568	692	1	hit	441	0
9	Triplet	57	381	381	7	0	0	309276	692	0	correct_rejection	NA	0
9	Triplet	58	382	382	8	0	0	309985	692	0	correct_rejection	NA	0
9	Triplet	59	383	383	9	0	0	310694	691	0	correct_rejection	NA	0
9	Triplet	60	384	384	9	0	0	311402	692	0	correct_rejection	NA	0
9	Triplet	61	385	385	8	0	0	312111	691	0	correct_rejection	NA	0
9	Triplet	62	386	386	7	0	0	312819	692	0	correct_rejection	NA	0
9	Triplet	63	387	387	4	0	0	313528	691	0	correct_rejection	NA	0
9	Triplet	64	388	388	5	0	0	314236	692	0	correct_rejection	NA	0
9	Triplet	65	389	389	6	0	0	314945	692	0	correct_rejection	NA	0
9	Triplet	66	390	390	7	0	0	315654	691	0	correct_rejection	NA	0
9	Triplet	67	391	391	8	0	0	316362	692	0	correct_rejection	NA	0
9	Triplet	68	392	392	0	1	1	317071	691	1	hit	417	0
9	Triplet	69	393	393	9	0	0	317779	692	0	correct_rejection	NA	0
9	Triplet	70	394	394	4	0	0	318488	691	0	correct_rejection	NA	0
9	Triplet	71	395	395	5	0	0	319196	692	0	correct_rejection	NA	0
9	Triplet	72	396	396	0	1	1	319905	692	1	hit	395	0
9	Triplet	73	397	397	6	0	0	320613	692	0	correct_rejection	NA	0
9	Triplet	74	398	398	4	0	0	321322	692	0	correct_rejection	NA	0
9	Triplet	75	399	399	0	1	1	322031	691	1	hit	395	0
9	Triplet	76	400	400	5	0	0	322739	692	0	correct_rejection	NA	0
9	Triplet	77	401	401	6	0	0	323448	691	0	correct_rejection	NA	0
9	Triplet	78	402	402	9	0	0	324156	692	0	correct_rejection	NA	0
9	Triplet	79	403	403	0	1	1	324865	692	1	hit	302	0
9	Triplet	80	404	404	8	0	0	325573	692	0	correct_rejection	NA	0
9	Triplet	81	405	405	7	0	0	326282	692	0	correct_rejection	NA	0
9	Triplet	82	406	406	9	0	0	326991	691	0	correct_rejection	NA	0
9	Triplet	83	407	407	8	0	0	327699	692	0	correct_rejection	NA	0
9	Triplet	84	408	408	7	0	0	328408	691	0	correct_rejection	NA	0
9	Triplet	85	409	409	6	0	0	329116	692	0	correct_rejection	NA	0
9	Triplet	86	410	410	5	0	0	329825	692	0	correct_rejection	NA	0
9	Triplet	87	411	411	4	0	0	330533	692	0	correct_rejection	NA	0
9	Triplet	88	412	412	4	0	0	331242	692	0	correct_rejection	NA	0
9	Triplet	89	413	413	5	0	0	331951	691	0	correct_rejection	NA	0
9	Triplet	90	414	414	6	0	0	332659	692	0	correct_rejection	NA	0
9	Triplet	91	415	415	6	0	0	333368	691	0	correct_rejection	NA	0
9	Triplet	92	416	416	5	0	0	334076	692	0	correct_rejection	NA	0
9	Triplet	93	417	417	4	0	0	334785	692	0	correct_rejection	NA	0
9	Triplet	94	418	418	9	0	0	335493	692	0	correct_rejection	NA	0
9	Triplet	95	419	419	8	0	0	336202	692	0	correct_rejection	NA	0
9	Triplet	96	420	420	7	0	0	336911	691	0	correct_rejection	NA	0
9	Triplet	97	421	421	0	1	2	337619	692	1	hit	399	0
9	Triplet	98	422	422	7	0	0	338328	691	0	correct_rejection	NA	0
9	Triplet	99	423	423	8	0	0	339036	692	0	correct_rejection	NA	0
9	Triplet	100	424	424	9	0	0	339745	691	0	correct_rejection	NA	0
9	Triplet	101	425	425	7	0	0	340453	692	0	correct_rejection	NA	0
9	Triplet	102	426	426	8	0	0	341162	692	0	correct_rejection	NA	0
9	Triplet	103	427	427	9	0	0	341870	692	0	correct_rejection	NA	0
9	Triplet	104	428	428	6	0	0	342579	692	0	correct_rejection	NA	0
9	Triplet	105	429	429	5	0	0	343288	691	0	correct_rejection	NA	0
9	Triplet	106	430	430	4	0	0	343996	692	0	correct_rejection	NA	0
9	Triplet	107	431	431	0	1	2	344705	691	1	hit	364	0
9	Triplet	108	432	432	6	0	0	345413	692	0	correct_rejection	NA	0
9	Triplet	109	433	433	5	0	0	346122	692	0	correct_rejection	NA	0
9	Triplet	110	434	434	0	1	1	346830	692	1	hit	580	0
9	Triplet	111	435	435	4	0	0	347539	692	0	correct_rejection	NA	0
9	Triplet	112	436	436	9	0	0	348248	691	0	correct_rejection	NA	0
9	Triplet	113	437	437	8	0	0	348956	692	0	correct_rejection	NA	0
9	Triplet	114	438	438	7	0	0	349665	691	0	correct_rejection	NA	0
9	Triplet	115	439	439	4	0	0	350373	692	0	correct_rejection	NA	0
9	Triplet	116	440	440	5	0	0	351082	692	0	correct_rejection	NA	0
9	Triplet	117	441	441	6	0	0	351790	692	0	correct_rejection	NA	0
9	Triplet	118	442	442	9	0	0	352499	692	0	correct_rejection	NA	0
9	Triplet	119	443	443	8	0	0	353208	691	0	correct_rejection	NA	0
9	Triplet	120	444	444	7	0	0	353916	692	0	correct_rejection	NA	0
9	Triplet	121	445	445	7	0	0	354625	691	0	correct_rejection	NA	0
9	Triplet	122	446	446	8	0	0	355333	692	0	correct_rejection	NA	0
9	Triplet	123	447	447	9	0	0	356042	692	0	correct_rejection	NA	0
9	Triplet	124	448	448	6	0	0	356750	692	0	correct_rejection	NA	0
9	Triplet	125	449	449	5	0	0	357459	692	0	correct_rejection	NA	0
9	Triplet	126	450	450	4	0	0	358168	691	0	correct_rejection	NA	0
9	Triplet	127	451	451	4	0	0	358876	692	0	correct_rejection	NA	0
9	Triplet	128	452	452	0	1	1	359585	691	1	hit	341	0
9	Triplet	129	453	453	5	0	0	360293	692	0	correct_rejection	NA	0
9	Triplet	130	454	454	6	0	0	361002	691	0	correct_rejection	NA	0
9	Triplet	131	455	455	0	1	2	361710	692	1	hit	409	0
9	Triplet	132	456	456	4	0	0	362419	692	0	correct_rejection	NA	0
9	Triplet	133	457	457	5	0	0	363127	692	0	correct_rejection	NA	0
9	Triplet	134	458	458	6	0	0	363836	692	0	correct_rejection	NA	0
9	Triplet	135	459	459	6	0	0	364545	691	0	correct_rejection	NA	0
9	Triplet	136	460	460	5	0	0	365253	692	0	correct_rejection	NA	0
9	Triplet	137	461	461	4	0	0	365962	691	0	correct_rejection	NA	0
9	Triplet	138	462	462	6	0	0	366670	692	0	correct_rejection	NA	0
9	Triplet	139	463	463	5	0	0	367379	692	0	correct_rejection	NA	0
9	Triplet	140	464	464	0	1	1	368087	692	1	hit	448	0
9	Triplet	141	465	465	4	0	0	368796	692	0	correct_rejection	NA	0
9	Triplet	142	466	466	7	0	0	369505	691	0	correct_rejection	NA	0
9	Triplet	143	467	467	8	0	0	370213	692	0	correct_rejection	NA	0
9	Triplet	144	468	468	9	0	0	370922	691	0	correct_rejection	NA	0
9	Triplet	145	469	469	7	0	0	371630	692	0	correct_rejection	NA	0
9	Triplet	146	470	470	8	0	0	372339	692	0	correct_rejection	NA	0
9	Triplet	147	471	471	9	0	0	373047	692	0	correct_rejection	NA	0
9	Triplet	148	472	472	4	0	0	373756	692	0	correct_rejection	NA	0
9	Triplet	149	473	473	5	0	0	374465	691	0	correct_rejection	NA	0
9	Triplet	150	474	474	6	0	0	375173	692	0	correct_rejection	NA	0
9	Triplet	151	475	475	0	1	2	375882	691	1	hit	364	0
9	Triplet	152	476	476	7	0	0	376590	692	0	correct_rejection	NA	0
9	Triplet	153	477	477	8	0	0	377299	692	0	correct_rejection	NA	0
9	Triplet	154	478	478	0	1	1	378007	692	1	hit	458	0
9	Triplet	155	479	479	9	0	0	378716	692	0	correct_rejection	NA	0
9	Triplet	156	480	480	9	0	0	379425	691	0	correct_rejection	NA	0
9	Triplet	157	481	481	8	0	0	380133	692	0	correct_rejection	NA	0
9	Triplet	158	482	482	7	0	0	380842	691	0	correct_rejection	NA	0
9	Triplet	159	483	483	9	0	0	381550	692	0	correct_rejection	NA	0
9	Triplet	160	484	484	0	1	1	382259	691	1	hit	380	0
9	Triplet	161	485	485	8	0	0	382967	692	0	correct_rejection	NA	0
9	Triplet	162	486	486	7	0	0	383676	692	0	correct_rejection	NA	0
9	Single	1	487	487	7	0	0	393354	692	0	correct_rejection	NA	7149
9	Single	2	488	488	4	0	0	394063	691	0	correct_rejection	NA	0
9	Single	3	489	489	5	0	0	394771	692	0	correct_rejection	NA	0
9	Single	4	490	490	0	1	1	395480	692	1	hit	425	0
9	Single	5	491	491	5	0	0	396188	692	0	correct_rejection	NA	0
9	Single	6	492	492	7	0	0	396897	692	0	correct_rejection	NA	0
9	Single	7	493	493	6	0	0	397606	691	0	correct_rejection	NA	0
9	Single	8	494	494	4	0	0	398314	692	0	correct_rejection	NA	0
9	Single	9	495	495	9	0	0	399023	691	0	correct_rejection	NA	0
9	Single	10	496	496	0	1	1	399731	692	1	hit	372	0
9	Single	11	497	497	5	0	0	400440	691	0	correct_rejection	NA	0
9	Single	12	498	498	9	0	0	401148	692	0	correct_rejection	NA	0
9	Single	13	499	499	0	1	1	401857	692	1	hit	381	0
9	Single	14	500	500	4	0	0	402565	692	0	correct_rejection	NA	0
9	Single	15	501	501	8	0	0	403274	692	0	correct_rejection	NA	0
9	Single	16	502	502	5	0	0	403983	691	0	correct_rejection	NA	0
9	Single	17	503	503	8	0	0	404691	692	0	correct_rejection	NA	0
9	Single	18	504	504	4	0	0	405400	691	0	correct_rejection	NA	0
9	Single	19	505	505	7	0	0	406108	692	0	correct_rejection	NA	0
9	Single	20	506	506	8	0	0	406817	692	0	correct_rejection	NA	0
9	Single	21	507	507	6	0	0	407525	692	0	correct_rejection	NA	0
9	Single	22	508	508	8	0	0	408234	692	0	correct_rejection	NA	0
9	Single	23	509	509	9	0	0	408943	691	0	correct_rejection	NA	0
9	Single	24	510	510	7	0	0	409651	692	0	correct_rejection	NA	0
9	Single	25	511	511	0	1	1	410360	691	1	hit	419	0
9	Single	26	512	512	5	0	0	411068	692	0	correct_rejection	NA	0
9	Single	27	513	513	6	0	0	411777	692	0	correct_rejection	NA	0
9	Single	28	514	514	9	0	0	412485	692	0	correct_rejection	NA	0
9	Single	29	515	515	6	0	0	413194	692	0	correct_rejection	NA	0
9	Single	30	516	516	6	0	0	413903	691	0	correct_rejection	NA	0
9	Single	31	517	517	5	0	0	414611	692	0	correct_rejection	NA	0
9	Single	32	518	518	4	0	0	415320	691	0	correct_rejection	NA	0
9	Single	33	519	519	4	0	0	416028	692	0	correct_rejection	NA	0
9	Single	34	520	520	0	1	1	416737	692	1	hit	351	0
9	Single	35	521	521	6	0	0	417445	692	0	correct_rejection	NA	0
9	Single	36	522	522	7	0	0	418154	692	0	correct_rejection	NA	0
9	Single	37	523	523	7	0	0	418863	691	0	correct_rejection	NA	0
9	Single	38	524	524	9	0	0	419571	692	0	correct_rejection	NA	0
9	Single	39	525	525	9	0	0	420280	691	0	correct_rejection	NA	0
9	Single	40	526	526	8	0	0	420988	692	0	correct_rejection	NA	0
9	Single	41	527	527	8	0	0	421697	691	0	correct_rejection	NA	0
9	Single	42	528	528	5	0	0	422405	692	0	correct_rejection	NA	0
9	Single	43	529	529	9	0	0	423114	692	0	correct_rejection	NA	0
9	Single	44	530	530	9	0	0	423822	692	0	correct_rejection	NA	0
9	Single	45	531	531	7	0	0	424531	692	0	correct_rejection	NA	0
9	Single	46	532	532	0	1	1	425240	691	1	hit	391	0
9	Single	47	533	533	9	0	0	425948	692	0	correct_rejection	NA	0
9	Single	48	534	534	5	0	0	426657	691	0	correct_rejection	NA	0
9	Single	49	535	535	5	0	0	427365	692	0	correct_rejection	NA	0
9	Single	50	536	536	0	1	1	428074	692	1	hit	351	0
9	Single	51	537	537	8	0	0	428782	692	0	correct_rejection	NA	0
9	Single	52	538	538	7	0	0	429491	692	0	correct_rejection	NA	0
9	Single	53	539	539	5	0	0	430200	691	0	correct_rejection	NA	0
9	Single	54	540	540	4	0	0	430908	692	0	correct_rejection	NA	0
9	Single	55	541	541	5	0	0	431617	691	0	correct_rejection	NA	0
9	Single	56	542	542	7	0	0	432325	692	0	correct_rejection	NA	0
9	Single	57	543	543	7	0	0	433034	692	0	correct_rejection	NA	0
9	Single	58	544	544	4	0	0	433742	692	0	correct_rejection	NA	0
9	Single	59	545	545	9	0	0	434451	692	0	correct_rejection	NA	0
9	Single	60	546	546	6	0	0	435160	691	0	correct_rejection	NA	0
9	Single	61	547	547	7	0	0	435868	692	0	correct_rejection	NA	0
9	Single	62	548	548	8	0	0	436577	691	0	correct_rejection	NA	0
9	Single	63	549	549	4	0	0	437285	692	0	correct_rejection	NA	0
9	Single	64	550	550	6	0	0	437994	692	0	correct_rejection	NA	0
9	Single	65	551	551	5	0	0	438702	692	0	correct_rejection	NA	0
9	Single	66	552	552	6	0	0	439411	692	0	correct_rejection	NA	0
9	Single	67	553	553	6	0	0	440120	691	0	correct_rejection	NA	0
9	Single	68	554	554	9	0	0	440828	692	0	correct_rejection	NA	0
9	Single	69	555	555	8	0	0	441537	691	0	correct_rejection	NA	0
9	Single	70	556	556	9	0	0	442245	692	0	correct_rejection	NA	0
9	Single	71	557	557	4	0	0	442954	691	0	correct_rejection	NA	0
9	Single	72	558	558	4	0	0	443662	692	0	correct_rejection	NA	0
9	Single	73	559	559	8	0	0	444371	692	0	correct_rejection	NA	0
9	Single	74	560	560	6	0	0	445079	692	0	correct_rejection	NA	0
9	Single	75	561	561	4	0	0	445788	692	0	correct_rejection	NA	0
9	Single	76	562	562	7	0	0	446497	691	0	correct_rejection	NA	0
9	Single	77	563	563	6	0	0	447205	692	0	correct_rejection	NA	0
9	Single	78	564	564	8	0	0	447914	691	0	correct_rejection	NA	0
9	Single	79	565	565	8	0	0	448622	692	0	correct_rejection	NA	0
9	Single	80	566	566	4	0	0	449331	692	0	correct_rejection	NA	0
9	Single	81	567	567	7	0	0	450039	692	0	correct_rejection	NA	0
9	Single	82	568	568	5	0	0	450748	692	0	correct_rejection	NA	0
9	Single	83	569	569	5	0	0	451457	691	0	correct_rejection	NA	0
9	Single	84	570	570	4	0	0	452165	692	0	correct_rejection	NA	0
9	Single	85	571	571	0	1	1	452874	691	1	hit	363	0
9	Single	86	572	572	8	0	0	453582	692	0	correct_rejection	NA	0
9	Single	87	573	573	9	0	0	454291	692	0	correct_rejection	NA	0
9	Single	88	574	574	0	1	1	454999	692	1	hit	548	0
9	Single	89	575	575	6	0	0	455708	692	0	correct_rejection	NA	0
9	Single	90	576	576	9	0	0	456417	691	0	correct_rejection	NA	0
9	Single	91	577	577	9	0	0	457125	692	0	correct_rejection	NA	0
9	Single	92	578	578	5	0	0	457834	691	0	correct_rejection	NA	0
9	Single	93	579	579	8	0	0	458542	692	0	correct_rejection	NA	0
9	Single	94	580	580	5	0	0	459251	692	0	correct_rejection	NA	0
9	Single	95	581	581	6	0	0	459959	692	0	correct_rejection	NA	0
9	Single	96	582	582	7	0	0	460668	692	0	correct_rejection	NA	0
9	Single	97	583	583	9	0	0	461377	691	0	correct_rejection	NA	0
9	Single	98	584	584	4	0	0	462085	692	0	correct_rejection	NA	0
9	Single	99	585	585	6	0	0	462794	691	0	correct_rejection	NA	0
9	Single	100	586	586	8	0	0	463502	692	0	correct_rejection	NA	0
9	Single	101	587	587	0	1	1	464211	691	1	hit	421	0
9	Single	102	588	588	4	0	0	464919	692	0	correct_rejection	NA	0
9	Single	103	589	589	5	0	0	465628	692	0	correct_rejection	NA	0
9	Single	104	590	590	9	0	0	466336	692	0	correct_rejection	NA	0
9	Single	105	591	591	8	0	0	467045	692	0	correct_rejection	NA	0
9	Single	106	592	592	7	0	0	467754	691	0	correct_rejection	NA	0
9	Single	107	593	593	0	1	1	468462	692	1	hit	423	0
9	Single	108	594	594	6	0	0	469171	691	0	correct_rejection	NA	0
9	Single	109	595	595	6	0	0	469879	692	0	correct_rejection	NA	0
9	Single	110	596	596	4	0	0	470588	692	0	correct_rejection	NA	0
9	Single	111	597	597	0	1	1	471296	692	1	hit	570	0
9	Single	112	598	598	4	0	0	472005	692	0	correct_rejection	NA	0
9	Single	113	599	599	9	0	0	472714	691	0	correct_rejection	NA	0
9	Single	114	600	600	7	0	0	473422	692	0	correct_rejection	NA	0
9	Single	115	601	601	7	0	0	474131	691	0	correct_rejection	NA	0
9	Single	116	602	602	0	1	1	474839	692	1	hit	378	0
9	Single	117	603	603	8	0	0	475548	692	0	correct_rejection	NA	0
9	Single	118	604	604	8	0	0	476256	692	0	correct_rejection	NA	0
9	Single	119	605	605	6	0	0	476965	692	0	correct_rejection	NA	0
9	Single	120	606	606	5	0	0	477674	691	0	correct_rejection	NA	0
9	Single	121	607	607	7	0	0	478382	692	0	correct_rejection	NA	0
9	Single	122	608	608	0	1	1	479091	691	1	hit	303	0
9	Single	123	609	609	7	0	0	479799	692	0	correct_rejection	NA	0
9	Single	124	610	610	8	0	0	480508	692	0	correct_rejection	NA	0
9	Single	125	611	611	5	0	0	481216	692	0	correct_rejection	NA	0
9	Single	126	612	612	0	1	1	481925	692	1	hit	386	0
9	Single	127	613	613	7	0	0	482634	691	0	correct_rejection	NA	0
9	Single	128	614	614	6	0	0	483342	692	0	correct_rejection	NA	0
9	Single	129	615	615	4	0	0	484051	691	0	correct_rejection	NA	0
9	Single	130	616	616	5	0	0	484759	692	0	correct_rejection	NA	0
9	Single	131	617	617	5	0	0	485468	691	0	correct_rejection	NA	0
9	Single	132	618	618	6	0	0	486176	692	0	correct_rejection	NA	0
9	Single	133	619	619	8	0	0	486885	692	0	correct_rejection	NA	0
9	Single	134	620	620	0	1	1	487594	691	1	hit	365	0
9	Single	135	621	621	6	0	0	488302	692	0	correct_rejection	NA	0
9	Single	136	622	622	9	0	0	489011	691	0	correct_rejection	NA	0
9	Single	137	623	623	4	0	0	489719	692	0	correct_rejection	NA	0
9	Single	138	624	624	8	0	0	490428	691	0	correct_rejection	NA	0
9	Single	139	625	625	7	0	0	491136	692	0	correct_rejection	NA	0
9	Single	140	626	626	0	1	1	491845	692	1	hit	352	0
9	Single	141	627	627	4	0	0	492553	692	0	correct_rejection	NA	0
9	Single	142	628	628	6	0	0	493262	692	0	correct_rejection	NA	0
9	Single	143	629	629	6	0	0	493971	691	0	correct_rejection	NA	0
9	Single	144	630	630	7	0	0	494679	692	0	correct_rejection	NA	0
9	Single	145	631	631	5	0	0	495388	691	0	correct_rejection	NA	0
9	Single	146	632	632	8	0	0	496096	692	0	correct_rejection	NA	0
9	Single	147	633	633	9	0	0	496805	692	0	correct_rejection	NA	0
9	Single	148	634	634	8	0	0	497513	692	0	correct_rejection	NA	0
9	Single	149	635	635	8	0	0	498222	692	0	correct_rejection	NA	0
9	Single	150	636	636	4	0	0	498931	691	0	correct_rejection	NA	0
9	Single	151	637	637	9	0	0	499639	692	0	correct_rejection	NA	0
9	Single	152	638	638	5	0	0	500348	691	0	correct_rejection	NA	0
9	Single	153	639	639	4	0	0	501056	692	0	correct_rejection	NA	0
9	Single	154	640	640	4	0	0	501765	692	0	correct_rejection	NA	0
9	Single	155	641	641	7	0	0	502473	692	0	correct_rejection	NA	0
9	Single	156	642	642	9	0	0	503182	692	0	correct_rejection	NA	0
9	Single	157	643	643	9	0	0	503891	691	0	correct_rejection	NA	0
9	Single	158	644	644	6	0	0	504599	692	0	correct_rejection	NA	0
9	Single	159	645	645	5	0	0	505308	691	0	correct_rejection	NA	0
9	Single	160	646	646	0	1	1	506016	692	1	hit	360	0
9	Single	161	647	647	9	0	0	506725	691	0	correct_rejection	NA	0
9	Single	162	648	648	7	0	0	507433	692	0	correct_rejection	NA	0
9	Nonet	1	1	649	9	0	0	515636	692	0	correct_rejection	NA	6429
9	Nonet	2	2	650	8	0	0	516345	691	0	correct_rejection	NA	0
9	Nonet	3	3	651	7	0	0	517053	692	0	correct_rejection	NA	0
9	Nonet	4	4	652	9	0	0	517762	691	0	correct_rejection	NA	0
9	Nonet	5	5	653	8	0	0	518470	692	0	correct_rejection	NA	0
9	Nonet	6	6	654	7	0	0	519179	692	0	correct_rejection	NA	0
9	Nonet	7	7	655	9	0	0	519887	692	0	correct_rejection	NA	0
9	Nonet	8	8	656	8	0	0	520596	692	0	correct_rejection	NA	0
9	Nonet	9	9	657	7	0	0	521305	691	0	correct_rejection	NA	0
9	Nonet	10	10	658	6	0	0	522013	692	0	correct_rejection	NA	0
9	Nonet	11	11	659	5	0	0	522722	691	0	correct_rejection	NA	0
9	Nonet	12	12	660	4	0	0	523430	692	0	correct_rejection	NA	0
9	Nonet	13	13	661	6	0	0	524139	692	0	correct_rejection	NA	0
9	Nonet	14	14	662	5	0	0	524847	692	0	correct_rejection	NA	0
9	Nonet	15	15	663	4	0	0	525556	692	0	correct_rejection	NA	0
9	Nonet	16	16	664	6	0	0	526265	691	0	correct_rejection	NA	0
9	Nonet	17	17	665	0	1	1	526973	692	1	hit	386	0
9	Nonet	18	18	666	5	0	0	527682	691	0	correct_rejection	NA	0
9	Nonet	19	19	667	4	0	0	528390	692	0	correct_rejection	NA	0
9	Nonet	20	20	668	6	0	0	529099	692	0	correct_rejection	NA	0
9	Nonet	21	21	669	5	0	0	529807	692	0	correct_rejection	NA	0
9	Nonet	22	22	670	0	1	1	530516	692	1	hit	484	0
9	Nonet	23	23	671	4	0	0	531225	691	0	correct_rejection	NA	0
9	Nonet	24	24	672	6	0	0	531933	692	0	correct_rejection	NA	0
9	Nonet	25	25	673	5	0	0	532642	691	0	correct_rejection	NA	0
9	Nonet	26	26	674	4	0	0	533350	692	0	correct_rejection	NA	0
9	Nonet	27	27	675	6	0	0	534059	691	0	correct_rejection	NA	0
9	Nonet	28	28	676	5	0	0	534767	692	0	correct_rejection	NA	0
9	Nonet	29	29	677	4	0	0	535476	692	0	correct_rejection	NA	0
9	Nonet	30	30	678	9	0	0	536185	691	0	correct_rejection	NA	0
9	Nonet	31	31	679	8	0	0	536893	692	0	correct_rejection	NA	0
9	Nonet	32	32	680	0	1	1	537602	691	1	hit	400	0
9	Nonet	33	33	681	7	0	0	538310	692	0	correct_rejection	NA	0
9	Nonet	34	34	682	9	0	0	539019	691	0	correct_rejection	NA	0
9	Nonet	35	35	683	8	0	0	539727	692	0	correct_rejection	NA	0
9	Nonet	36	36	684	7	0	0	540436	692	0	correct_rejection	NA	0
9	Nonet	37	37	685	9	0	0	541144	692	0	correct_rejection	NA	0
9	Nonet	38	38	686	8	0	0	541853	692	0	correct_rejection	NA	0
9	Nonet	39	39	687	7	0	0	542562	691	0	correct_rejection	NA	0
9	Nonet	40	40	688	4	0	0	543270	692	0	correct_rejection	NA	0
9	Nonet	41	41	689	5	0	0	543979	691	0	correct_rejection	NA	0
9	Nonet	42	42	690	6	0	0	544687	692	0	correct_rejection	NA	0
9	Nonet	43	43	691	0	1	2	545396	692	1	hit	555	0
9	Nonet	44	44	692	4	0	0	546104	692	0	correct_rejection	NA	0
9	Nonet	45	45	693	5	0	0	546813	692	0	correct_rejection	NA	0
9	Nonet	46	46	694	6	0	0	547522	691	0	correct_rejection	NA	0
9	Nonet	47	47	695	0	1	2	548230	692	1	hit	585	0
9	Nonet	48	48	696	4	0	0	548939	691	0	correct_rejection	NA	0
9	Nonet	49	49	697	5	0	0	549647	692	0	correct_rejection	NA	0
9	Nonet	50	50	698	6	0	0	550356	692	0	correct_rejection	NA	0
9	Nonet	51	51	699	4	0	0	551064	692	0	correct_rejection	NA	0
9	Nonet	52	52	700	5	0	0	551773	692	0	correct_rejection	NA	0
9	Nonet	53	53	701	0	1	1	552482	691	1	hit	383	0
9	Nonet	54	54	702	6	0	0	553190	692	0	correct_rejection	NA	0
9	Nonet	55	55	703	4	0	0	553899	691	0	correct_rejection	NA	0
9	Nonet	56	56	704	5	0	0	554607	692	0	correct_rejection	NA	0
9	Nonet	57	57	705	6	0	0	555316	692	0	correct_rejection	NA	0
9	Nonet	58	58	706	4	0	0	556024	692	0	correct_rejection	NA	0
9	Nonet	59	59	707	5	0	0	556733	692	0	correct_rejection	NA	0
9	Nonet	60	60	708	6	0	0	557442	691	0	correct_rejection	NA	0
9	Nonet	61	61	709	7	0	0	558150	692	0	correct_rejection	NA	0
9	Nonet	62	62	710	8	0	0	558859	691	0	correct_rejection	NA	0
9	Nonet	63	63	711	9	0	0	559567	692	0	correct_rejection	NA	0
9	Nonet	64	64	712	7	0	0	560276	691	0	correct_rejection	NA	0
9	Nonet	65	65	713	8	0	0	560984	692	0	correct_rejection	NA	0
9	Nonet	66	66	714	0	1	1	561693	692	1	hit	507	0
9	Nonet	67	67	715	9	0	0	562401	692	0	correct_rejection	NA	0
9	Nonet	68	68	716	7	0	0	563110	692	0	correct_rejection	NA	0
9	Nonet	69	69	717	8	0	0	563819	691	0	correct_rejection	NA	0
9	Nonet	70	70	718	9	0	0	564527	692	0	correct_rejection	NA	0
9	Nonet	71	71	719	4	0	0	565236	691	0	correct_rejection	NA	0
9	Nonet	72	72	720	5	0	0	565944	692	0	correct_rejection	NA	0
9	Nonet	73	73	721	6	0	0	566653	692	0	correct_rejection	NA	0
9	Nonet	74	74	722	4	0	0	567361	692	0	correct_rejection	NA	0
9	Nonet	75	75	723	5	0	0	568070	692	0	correct_rejection	NA	0
9	Nonet	76	76	724	6	0	0	568779	691	0	correct_rejection	NA	0
9	Nonet	77	77	725	4	0	0	569487	692	0	correct_rejection	NA	0
9	Nonet	78	78	726	5	0	0	570196	691	0	correct_rejection	NA	0
9	Nonet	79	79	727	6	0	0	570904	692	0	correct_rejection	NA	0
9	Nonet	80	80	728	9	0	0	571613	692	0	correct_rejection	NA	0
9	Nonet	81	81	729	8	0	0	572321	692	0	correct_rejection	NA	0
9	Nonet	82	82	730	0	1	1	573030	692	1	hit	436	0
9	Nonet	83	83	731	7	0	0	573739	691	0	correct_rejection	NA	0
9	Nonet	84	84	732	9	0	0	574447	692	0	correct_rejection	NA	0
9	Nonet	85	85	733	8	0	0	575156	691	0	correct_rejection	NA	0
9	Nonet	86	86	734	0	1	1	575864	692	1	hit	396	0
9	Nonet	87	87	735	7	0	0	576573	692	0	correct_rejection	NA	0
9	Nonet	88	88	736	9	0	0	577281	692	0	correct_rejection	NA	0
9	Nonet	89	89	737	8	0	0	577990	692	0	correct_rejection	NA	0
9	Nonet	90	90	738	7	0	0	578699	691	0	correct_rejection	NA	0
9	Nonet	91	91	739	0	1	3	579407	692	1	hit	404	0
9	Nonet	92	92	740	9	0	0	580116	691	0	correct_rejection	NA	0
9	Nonet	93	93	741	8	0	0	580824	692	0	correct_rejection	NA	0
9	Nonet	94	94	742	7	0	0	581533	691	0	correct_rejection	NA	0
9	Nonet	95	95	743	9	0	0	582241	692	0	correct_rejection	NA	0
9	Nonet	96	96	744	8	0	0	582950	692	0	correct_rejection	NA	0
9	Nonet	97	97	745	7	0	0	583658	692	0	correct_rejection	NA	0
9	Nonet	98	98	746	9	0	0	584367	692	0	correct_rejection	NA	0
9	Nonet	99	99	747	8	0	0	585076	691	0	correct_rejection	NA	0
9	Nonet	100	100	748	7	0	0	585784	692	0	correct_rejection	NA	0
9	Nonet	101	101	749	7	0	0	586493	691	0	correct_rejection	NA	0
9	Nonet	102	102	750	0	1	1	587201	692	1	hit	386	0
9	Nonet	103	103	751	8	0	0	587910	692	0	correct_rejection	NA	0
9	Nonet	104	104	752	9	0	0	588618	692	0	correct_rejection	NA	0
9	Nonet	105	105	753	7	0	0	589327	692	0	correct_rejection	NA	0
9	Nonet	106	106	754	8	0	0	590036	691	0	correct_rejection	NA	0
9	Nonet	107	107	755	9	0	0	590744	692	0	correct_rejection	NA	0
9	Nonet	108	108	756	7	0	0	591453	691	0	correct_rejection	NA	0
9	Nonet	109	109	757	8	0	0	592161	692	0	correct_rejection	NA	0
9	Nonet	110	110	758	9	0	0	592870	692	0	correct_rejection	NA	0
9	Nonet	111	111	759	6	0	0	593578	692	0	correct_rejection	NA	0
9	Nonet	112	112	760	5	0	0	594287	692	0	correct_rejection	NA	0
9	Nonet	113	113	761	0	1	1	594996	691	1	hit	460	0
9	Nonet	114	114	762	4	0	0	595704	692	0	correct_rejection	NA	0
9	Nonet	115	115	763	6	0	0	596413	691	0	correct_rejection	NA	0
9	Nonet	116	116	764	5	0	0	597121	692	0	correct_rejection	NA	0
9	Nonet	117	117	765	4	0	0	597830	692	0	correct_rejection	NA	0
9	Nonet	118	118	766	0	1	2	598538	692	1	hit	468	0
9	Nonet	119	119	767	6	0	0	599247	692	0	correct_rejection	NA	0
9	Nonet	120	120	768	5	0	0	599956	691	0	correct_rejection	NA	0
9	Nonet	121	121	769	4	0	0	600664	692	0	correct_rejection	NA	0
9	Nonet	122	122	770	4	0	0	601373	691	0	correct_rejection	NA	0
9	Nonet	123	123	771	5	0	0	602081	692	0	correct_rejection	NA	0
9	Nonet	124	124	772	6	0	0	602790	691	0	correct_rejection	NA	0
9	Nonet	125	125	773	4	0	0	603498	692	0	correct_rejection	NA	0
9	Nonet	126	126	774	5	0	0	604207	692	0	correct_rejection	NA	0
9	Nonet	127	127	775	0	1	1	604915	692	1	hit	353	0
9	Nonet	128	128	776	6	0	0	605624	692	0	correct_rejection	NA	0
9	Nonet	129	129	777	4	0	0	606333	691	0	correct_rejection	NA	0
9	Nonet	130	130	778	0	1	1	607041	692	1	hit	386	0
9	Nonet	131	131	779	5	0	0	607750	691	0	correct_rejection	NA	0
9	Nonet	132	132	780	6	0	0	608458	692	0	correct_rejection	NA	0
9	Nonet	133	133	781	6	0	0	609167	692	0	correct_rejection	NA	0
9	Nonet	134	134	782	5	0	0	609875	692	0	correct_rejection	NA	0
9	Nonet	135	135	783	4	0	0	610584	692	0	correct_rejection	NA	0
9	Nonet	136	136	784	6	0	0	611293	691	0	correct_rejection	NA	0
9	Nonet	137	137	785	5	0	0	612001	692	0	correct_rejection	NA	0
9	Nonet	138	138	786	4	0	0	612710	691	0	correct_rejection	NA	0
9	Nonet	139	139	787	6	0	0	613418	692	0	correct_rejection	NA	0
9	Nonet	140	140	788	5	0	0	614127	692	0	correct_rejection	NA	0
9	Nonet	141	141	789	4	0	0	614835	692	0	correct_rejection	NA	0
9	Nonet	142	142	790	7	0	0	615544	692	0	correct_rejection	NA	0
9	Nonet	143	143	791	8	0	0	616253	691	0	correct_rejection	NA	0
9	Nonet	144	144	792	0	1	1	616961	692	1	hit	365	0
9	Nonet	145	145	793	9	0	0	617670	691	0	correct_rejection	NA	0
9	Nonet	146	146	794	7	0	0	618378	692	0	correct_rejection	NA	0
9	Nonet	147	147	795	8	0	0	619087	692	0	correct_rejection	NA	0
9	Nonet	148	148	796	9	0	0	619795	692	0	correct_rejection	NA	0
9	Nonet	149	149	797	0	1	2	620504	692	1	hit	339	0
9	Nonet	150	150	798	7	0	0	621213	691	0	correct_rejection	NA	0
9	Nonet	151	151	799	8	0	0	621921	692	0	correct_rejection	NA	0
9	Nonet	152	152	800	9	0	0	622630	691	0	correct_rejection	NA	0
9	Nonet	153	153	801	7	0	0	623338	692	0	correct_rejection	NA	0
9	Nonet	154	154	802	8	0	0	624047	691	0	correct_rejection	NA	0
9	Nonet	155	155	803	9	0	0	624755	692	0	correct_rejection	NA	0
9	Nonet	156	156	804	7	0	0	625464	692	0	correct_rejection	NA	0
9	Nonet	157	157	805	8	0	0	626172	692	0	correct_rejection	NA	0
9	Nonet	158	158	806	9	0	0	626881	692	0	correct_rejection	NA	0
9	Nonet	159	159	807	0	1	2	627590	691	1	hit	383	0
9	Nonet	160	160	808	7	0	0	628298	692	0	correct_rejection	NA	0
9	Nonet	161	161	809	8	0	0	629007	691	0	correct_rejection	NA	0
9	Nonet	162	162	810	9	0	0	629715	692	0	correct_rejection	NA	0
trigger nr 622 at 632167
trigger nr 628 at 706776
9	Triplet	1	487	811	6	0	0	714035	691	0	correct_rejection	NA	7219
9	Triplet	2	488	812	5	0	0	714743	692	0	correct_rejection	NA	0
9	Triplet	3	489	813	4	0	0	715452	692	0	correct_rejection	NA	0
9	Triplet	4	490	814	4	0	0	716160	692	0	correct_rejection	NA	0
9	Triplet	5	491	815	5	0	0	716869	692	0	correct_rejection	NA	0
9	Triplet	6	492	816	6	0	0	717578	691	0	correct_rejection	NA	0
9	Triplet	7	493	817	9	0	0	718286	692	0	correct_rejection	NA	0
9	Triplet	8	494	818	8	0	0	718995	691	0	correct_rejection	NA	0
9	Triplet	9	495	819	7	0	0	719703	692	0	correct_rejection	NA	0
9	Triplet	10	496	820	0	1	2	720412	692	1	hit	600	0
9	Triplet	11	497	821	4	0	0	721120	692	0	correct_rejection	NA	0
9	Triplet	12	498	822	5	0	0	721829	692	0	correct_rejection	NA	0
9	Triplet	13	499	823	0	1	1	722538	691	1	hit	431	0
9	Triplet	14	500	824	6	0	0	723246	692	0	correct_rejection	NA	0
9	Triplet	15	501	825	6	0	0	723955	691	0	correct_rejection	NA	0
9	Triplet	16	502	826	5	0	0	724663	692	0	correct_rejection	NA	0
9	Triplet	17	503	827	0	1	1	725372	692	1	hit	342	0
9	Triplet	18	504	828	4	0	0	726080	692	0	correct_rejection	NA	0
9	Triplet	19	505	829	6	0	0	726789	692	0	correct_rejection	NA	0
9	Triplet	20	506	830	5	0	0	727498	691	0	correct_rejection	NA	0
9	Triplet	21	507	831	4	0	0	728206	692	0	correct_rejection	NA	0
9	Triplet	22	508	832	7	0	0	728915	691	0	correct_rejection	NA	0
9	Triplet	23	509	833	0	1	1	729623	692	1	hit	332	0
9	Triplet	24	510	834	8	0	0	730332	692	0	correct_rejection	NA	0
9	Triplet	25	511	835	9	0	0	731040	692	0	correct_rejection	NA	0
9	Triplet	26	512	836	6	0	0	731749	692	0	correct_rejection	NA	0
9	Triplet	27	513	837	0	1	1	732458	691	1	hit	380	0
9	Triplet	28	514	838	5	0	0	733166	692	0	correct_rejection	NA	0
9	Triplet	29	515	839	4	0	0	733875	691	0	correct_rejection	NA	0
9	Triplet	30	516	840	9	0	0	734583	692	0	correct_rejection	NA	0
9	Triplet	31	517	841	0	1	1	735292	691	1	hit	325	0
9	Triplet	32	518	842	8	0	0	736000	692	0	correct_rejection	NA	0
9	Triplet	33	519	843	7	0	0	736709	692	0	correct_rejection	NA	0
9	Triplet	34	520	844	9	0	0	737417	692	0	correct_rejection	NA	0
9	Triplet	35	521	845	8	0	0	738126	692	0	correct_rejection	NA	0
9	Triplet	36	522	846	0	1	1	738835	691	1	hit	343	0
9	Triplet	37	523	847	7	0	0	739543	692	0	correct_rejection	NA	0
9	Triplet	38	524	848	7	0	0	740252	691	0	correct_rejection	NA	0
9	Triplet	39	525	849	8	0	0	740960	692	0	correct_rejection	NA	0
9	Triplet	40	526	850	9	0	0	741669	692	0	correct_rejection	NA	0
9	Triplet	41	527	851	0	1	2	742377	692	1	hit	385	0
9	Triplet	42	528	852	4	0	0	743086	692	0	correct_rejection	NA	0
9	Triplet	43	529	853	5	0	0	743795	691	0	correct_rejection	NA	0
9	Triplet	44	530	854	6	0	0	744503	692	0	correct_rejection	NA	0
9	Triplet	45	531	855	4	0	0	745212	691	0	correct_rejection	NA	0
9	Triplet	46	532	856	5	0	0	745920	692	0	correct_rejection	NA	0
9	Triplet	47	533	857	6	0	0	746629	692	0	correct_rejection	NA	0
9	Triplet	48	534	858	7	0	0	747337	692	0	correct_rejection	NA	0
9	Triplet	49	535	859	8	0	0	748046	692	0	correct_rejection	NA	0
9	Triplet	50	536	860	9	0	0	748755	691	0	correct_rejection	NA	0
9	Triplet	51	537	861	7	0	0	749463	692	0	correct_rejection	NA	0
9	Triplet	52	538	862	8	0	0	750172	691	0	correct_rejection	NA	0
9	Triplet	53	539	863	0	1	1	750880	692	1	hit	374	0
9	Triplet	54	540	864	9	0	0	751589	692	0	correct_rejection	NA	0
9	Triplet	55	541	865	9	0	0	752297	692	0	correct_rejection	NA	0
9	Triplet	56	542	866	8	0	0	753006	692	0	correct_rejection	NA	0
9	Triplet	57	543	867	7	0	0	753715	691	0	correct_rejection	NA	0
9	Triplet	58	544	868	4	0	0	754423	692	0	correct_rejection	NA	0
9	Triplet	59	545	869	5	0	0	755132	691	0	correct_rejection	NA	0
9	Triplet	60	546	870	0	1	1	755840	692	1	hit	419	0
9	Triplet	61	547	871	6	0	0	756549	691	0	correct_rejection	NA	0
9	Triplet	62	548	872	7	0	0	757257	692	0	correct_rejection	NA	0
9	Triplet	63	549	873	8	0	0	757966	692	0	correct_rejection	NA	0
9	Triplet	64	550	874	9	0	0	758674	692	0	correct_rejection	NA	0
9	Triplet	65	551	875	6	0	0	759383	692	0	correct_rejection	NA	0
9	Triplet	66	552	876	0	1	1	760092	691	1	hit	397	0
9	Triplet	67	553	877	5	0	0	760800	692	0	correct_rejection	NA	0
9	Triplet	68	554	878	4	0	0	761509	691	0	correct_rejection	NA	0
9	Triplet	69	555	879	6	0	0	762217	692	0	correct_rejection	NA	0
9	Triplet	70	556	880	5	0	0	762926	692	0	correct_rejection	NA	0
9	Triplet	71	557	881	4	0	0	763634	692	0	correct_rejection	NA	0
9	Triplet	72	558	882	4	0	0	764343	692	0	correct_rejection	NA	0
9	Triplet	73	559	883	5	0	0	765052	691	0	correct_rejection	NA	0
9	Triplet	74	560	884	6	0	0	765760	692	0	correct_rejection	NA	0
9	Triplet	75	561	885	4	0	0	766469	691	0	correct_rejection	NA	0
9	Triplet	76	562	886	5	0	0	767177	692	0	correct_rejection	NA	0
9	Triplet	77	563	887	6	0	0	767886	692	0	correct_rejection	NA	0
9	Triplet	78	564	888	0	1	2	768594	692	1	hit	397	0
9	Triplet	79	565	889	6	0	0	769303	692	0	correct_rejection	NA	0
9	Triplet	80	566	890	5	0	0	770012	691	0	correct_rejection	NA	0
9	Triplet	81	567	891	4	0	0	770720	692	0	correct_rejection	NA	0
9	Triplet	82	568	892	7	0	0	771429	691	0	correct_rejection	NA	0
9	Triplet	83	569	893	0	1	1	772137	692	1	hit	370	0
9	Triplet	84	570	894	8	0	0	772846	692	0	correct_rejection	NA	0
9	Triplet	85	571	895	9	0	0	773554	692	0	correct_rejection	NA	0
9	Triplet	86	572	896	0	1	2	774263	692	1	hit	481	0
9	Triplet	87	573	897	9	0	0	774972	691	0	correct_rejection	NA	0
9	Triplet	88	574	898	8	0	0	775680	692	0	correct_rejection	NA	0
9	Triplet	89	575	899	0	1	1	776389	691	1	hit	323	0
9	Triplet	90	576	900	7	0	0	777097	692	0	correct_rejection	NA	0
9	Triplet	91	577	901	4	0	0	777806	691	0	correct_rejection	NA	0
9	Triplet	92	578	902	5	0	0	778514	692	0	correct_rejection	NA	0
9	Triplet	93	579	903	6	0	0	779223	692	0	correct_rejection	NA	0
9	Triplet	94	580	904	9	0	0	779931	692	0	correct_rejection	NA	0
9	Triplet	95	581	905	8	0	0	780640	692	0	correct_rejection	NA	0
9	Triplet	96	582	906	7	0	0	781349	691	0	correct_rejection	NA	0
9	Triplet	97	583	907	9	0	0	782057	692	0	correct_rejection	NA	0
9	Triplet	98	584	908	8	0	0	782766	691	0	correct_rejection	NA	0
9	Triplet	99	585	909	0	1	1	783474	692	0	miss	NA	0
9	Triplet	100	586	910	7	0	0	784183	692	1	false_alarm	0	0
9	Triplet	101	587	911	6	0	0	784891	692	0	correct_rejection	NA	0
9	Triplet	102	588	912	5	0	0	785600	692	0	correct_rejection	NA	0
9	Triplet	103	589	913	4	0	0	786309	691	0	correct_rejection	NA	0
9	Triplet	104	590	914	9	0	0	787017	692	0	correct_rejection	NA	0
9	Triplet	105	591	915	8	0	0	787726	691	0	correct_rejection	NA	0
9	Triplet	106	592	916	7	0	0	788434	692	0	correct_rejection	NA	0
9	Triplet	107	593	917	7	0	0	789143	692	0	correct_rejection	NA	0
9	Triplet	108	594	918	8	0	0	789851	692	0	correct_rejection	NA	0
9	Triplet	109	595	919	9	0	0	790560	692	0	correct_rejection	NA	0
9	Triplet	110	596	920	7	0	0	791269	691	0	correct_rejection	NA	0
9	Triplet	111	597	921	8	0	0	791977	692	0	correct_rejection	NA	0
9	Triplet	112	598	922	9	0	0	792686	691	0	correct_rejection	NA	0
9	Triplet	113	599	923	6	0	0	793394	692	0	correct_rejection	NA	0
9	Triplet	114	600	924	5	0	0	794103	692	0	correct_rejection	NA	0
9	Triplet	115	601	925	4	0	0	794811	692	0	correct_rejection	NA	0
9	Triplet	116	602	926	0	1	2	795520	692	1	hit	429	0
9	Triplet	117	603	927	9	0	0	796229	691	0	correct_rejection	NA	0
9	Triplet	118	604	928	8	0	0	796937	692	0	correct_rejection	NA	0
9	Triplet	119	605	929	7	0	0	797646	691	0	correct_rejection	NA	0
9	Triplet	120	606	930	6	0	0	798354	692	0	correct_rejection	NA	0
9	Triplet	121	607	931	5	0	0	799063	691	0	correct_rejection	NA	0
9	Triplet	122	608	932	4	0	0	799771	692	0	correct_rejection	NA	0
9	Triplet	123	609	933	7	0	0	800480	692	0	correct_rejection	NA	0
9	Triplet	124	610	934	8	0	0	801189	691	0	correct_rejection	NA	0
9	Triplet	125	611	935	9	0	0	801897	692	0	correct_rejection	NA	0
9	Triplet	126	612	936	7	0	0	802606	691	0	correct_rejection	NA	0
9	Triplet	127	613	937	8	0	0	803314	692	0	correct_rejection	NA	0
9	Triplet	128	614	938	9	0	0	804023	691	0	correct_rejection	NA	0
9	Triplet	129	615	939	4	0	0	804731	692	0	correct_rejection	NA	0
9	Triplet	130	616	940	5	0	0	805440	692	0	correct_rejection	NA	0
9	Triplet	131	617	941	6	0	0	806148	692	0	correct_rejection	NA	0
9	Triplet	132	618	942	6	0	0	806857	692	0	correct_rejection	NA	0
9	Triplet	133	619	943	5	0	0	807566	691	0	correct_rejection	NA	0
9	Triplet	134	620	944	4	0	0	808274	692	0	correct_rejection	NA	0
9	Triplet	135	621	945	4	0	0	808983	691	0	correct_rejection	NA	0
9	Triplet	136	622	946	5	0	0	809691	692	0	correct_rejection	NA	0
9	Triplet	137	623	947	6	0	0	810400	692	0	correct_rejection	NA	0
9	Triplet	138	624	948	7	0	0	811108	692	0	correct_rejection	NA	0
9	Triplet	139	625	949	8	0	0	811817	692	0	correct_rejection	NA	0
9	Triplet	140	626	950	9	0	0	812526	691	0	correct_rejection	NA	0
9	Triplet	141	627	951	9	0	0	813234	692	0	correct_rejection	NA	0
9	Triplet	142	628	952	8	0	0	813943	691	0	correct_rejection	NA	0
9	Triplet	143	629	953	7	0	0	814651	692	0	correct_rejection	NA	0
9	Triplet	144	630	954	0	1	2	815360	692	1	hit	342	0
9	Triplet	145	631	955	9	0	0	816068	692	0	correct_rejection	NA	0
9	Triplet	146	632	956	8	0	0	816777	692	0	correct_rejection	NA	0
9	Triplet	147	633	957	7	0	0	817486	691	0	correct_rejection	NA	0
9	Triplet	148	634	958	4	0	0	818194	692	0	correct_rejection	NA	0
9	Triplet	149	635	959	5	0	0	818903	691	0	correct_rejection	NA	0
9	Triplet	150	636	960	6	0	0	819611	692	0	correct_rejection	NA	0
9	Triplet	151	637	961	4	0	0	820320	692	0	correct_rejection	NA	0
9	Triplet	152	638	962	5	0	0	821028	692	0	correct_rejection	NA	0
9	Triplet	153	639	963	6	0	0	821737	692	0	correct_rejection	NA	0
9	Triplet	154	640	964	9	0	0	822446	691	0	correct_rejection	NA	0
9	Triplet	155	641	965	8	0	0	823154	692	0	correct_rejection	NA	0
9	Triplet	156	642	966	7	0	0	823863	691	0	correct_rejection	NA	0
9	Triplet	157	643	967	7	0	0	824571	692	0	correct_rejection	NA	0
9	Triplet	158	644	968	8	0	0	825280	691	0	correct_rejection	NA	0
9	Triplet	159	645	969	9	0	0	825988	692	0	correct_rejection	NA	0
9	Triplet	160	646	970	6	0	0	826697	692	0	correct_rejection	NA	0
9	Triplet	161	647	971	5	0	0	827405	692	0	correct_rejection	NA	0
9	Triplet	162	648	972	4	0	0	828114	692	0	correct_rejection	NA	0
9	Correct	1	163	973	4	0	0	837300	692	0	correct_rejection	NA	6489
9	Correct	2	164	974	5	0	0	838009	692	0	correct_rejection	NA	0
9	Correct	3	165	975	6	0	0	838718	691	0	correct_rejection	NA	0
9	Correct	4	166	976	4	0	0	839426	692	0	correct_rejection	NA	0
9	Correct	5	167	977	5	0	0	840135	691	0	correct_rejection	NA	0
9	Correct	6	168	978	6	0	0	840843	692	0	correct_rejection	NA	0
9	Correct	7	169	979	4	0	0	841552	692	0	correct_rejection	NA	0
9	Correct	8	170	980	0	1	1	842260	692	1	hit	426	0
9	Correct	9	171	981	5	0	0	842969	692	0	correct_rejection	NA	0
9	Correct	10	172	982	6	0	0	843678	691	0	correct_rejection	NA	0
9	Correct	11	173	983	6	0	0	844386	692	0	correct_rejection	NA	0
9	Correct	12	174	984	5	0	0	845095	691	0	correct_rejection	NA	0
9	Correct	13	175	985	4	0	0	845803	692	0	correct_rejection	NA	0
9	Correct	14	176	986	0	1	2	846512	691	1	hit	368	0
9	Correct	15	177	987	6	0	0	847220	692	0	correct_rejection	NA	0
9	Correct	16	178	988	5	0	0	847929	692	0	correct_rejection	NA	0
9	Correct	17	179	989	4	0	0	848637	692	0	correct_rejection	NA	0
9	Correct	18	180	990	6	0	0	849346	692	0	correct_rejection	NA	0
9	Correct	19	181	991	5	0	0	850055	691	0	correct_rejection	NA	0
9	Correct	20	182	992	4	0	0	850763	692	0	correct_rejection	NA	0
9	Correct	21	183	993	0	1	3	851472	691	1	hit	342	0
9	Correct	22	184	994	9	0	0	852180	692	0	correct_rejection	NA	0
9	Correct	23	185	995	8	0	0	852889	692	0	correct_rejection	NA	0
9	Correct	24	186	996	7	0	0	853597	692	0	correct_rejection	NA	0
9	Correct	25	187	997	0	1	2	854306	692	1	hit	433	0
9	Correct	26	188	998	9	0	0	855015	691	0	correct_rejection	NA	0
9	Correct	27	189	999	8	0	0	855723	692	0	correct_rejection	NA	0
9	Correct	28	190	1000	0	1	1	856432	691	1	hit	407	0
9	Correct	29	191	1001	7	0	0	857140	692	0	correct_rejection	NA	0
9	Correct	30	192	1002	9	0	0	857849	692	0	correct_rejection	NA	0
9	Correct	31	193	1003	8	0	0	858557	692	0	correct_rejection	NA	0
9	Correct	32	194	1004	7	0	0	859266	692	0	correct_rejection	NA	0
9	Correct	33	195	1005	0	1	3	859975	691	1	hit	425	0
9	Correct	34	196	1006	7	0	0	860683	692	0	correct_rejection	NA	0
9	Correct	35	197	1007	8	0	0	861392	691	0	correct_rejection	NA	0
9	Correct	36	198	1008	9	0	0	862100	692	0	correct_rejection	NA	0
9	Correct	37	199	1009	7	0	0	862809	692	0	correct_rejection	NA	0
9	Correct	38	200	1010	8	0	0	863517	692	0	correct_rejection	NA	0
9	Correct	39	201	1011	9	0	0	864226	692	0	correct_rejection	NA	0
9	Correct	40	202	1012	7	0	0	864935	691	0	correct_rejection	NA	0
9	Correct	41	203	1013	8	0	0	865643	692	0	correct_rejection	NA	0
9	Correct	42	204	1014	9	0	0	866352	691	0	correct_rejection	NA	0
9	Correct	43	205	1015	4	0	0	867060	692	0	correct_rejection	NA	0
9	Correct	44	206	1016	5	0	0	867769	691	0	correct_rejection	NA	0
9	Correct	45	207	1017	6	0	0	868477	692	0	correct_rejection	NA	0
9	Correct	46	208	1018	4	0	0	869186	692	0	correct_rejection	NA	0
9	Correct	47	209	1019	5	0	0	869894	692	0	correct_rejection	NA	0
9	Correct	48	210	1020	6	0	0	870603	692	0	correct_rejection	NA	0
9	Correct	49	211	1021	4	0	0	871312	691	0	correct_rejection	NA	0
9	Correct	50	212	1022	5	0	0	872020	692	0	correct_rejection	NA	0
9	Correct	51	213	1023	6	0	0	872729	691	0	correct_rejection	NA	0
9	Correct	52	214	1024	6	0	0	873437	692	0	correct_rejection	NA	0
9	Correct	53	215	1025	5	0	0	874146	692	0	correct_rejection	NA	0
9	Correct	54	216	1026	4	0	0	874854	692	0	correct_rejection	NA	0
9	Correct	55	217	1027	6	0	0	875563	692	0	correct_rejection	NA	0
9	Correct	56	218	1028	5	0	0	876272	691	0	correct_rejection	NA	0
9	Correct	57	219	1029	4	0	0	876980	692	0	correct_rejection	NA	0
9	Correct	58	220	1030	6	0	0	877689	691	0	correct_rejection	NA	0
9	Correct	59	221	1031	5	0	0	878397	692	0	correct_rejection	NA	0
9	Correct	60	222	1032	0	1	1	879106	692	1	hit	462	0
9	Correct	61	223	1033	4	0	0	879814	692	0	correct_rejection	NA	0
9	Correct	62	224	1034	9	0	0	880523	692	0	correct_rejection	NA	0
9	Correct	63	225	1035	0	1	1	881232	691	1	hit	419	0
9	Correct	64	226	1036	8	0	0	881940	692	0	correct_rejection	NA	0
9	Correct	65	227	1037	7	0	0	882649	691	0	correct_rejection	NA	0
9	Correct	66	228	1038	9	0	0	883357	692	0	correct_rejection	NA	0
9	Correct	67	229	1039	8	0	0	884066	692	0	correct_rejection	NA	0
9	Correct	68	230	1040	7	0	0	884774	692	0	correct_rejection	NA	0
9	Correct	69	231	1041	9	0	0	885483	692	0	correct_rejection	NA	0
9	Correct	70	232	1042	8	0	0	886192	691	0	correct_rejection	NA	0
9	Correct	71	233	1043	7	0	0	886900	692	0	correct_rejection	NA	0
9	Correct	72	234	1044	7	0	0	887609	691	0	correct_rejection	NA	0
9	Correct	73	235	1045	8	0	0	888317	692	0	correct_rejection	NA	0
9	Correct	74	236	1046	0	1	1	889026	691	1	hit	352	0
9	Correct	75	237	1047	9	0	0	889734	692	0	correct_rejection	NA	0
9	Correct	76	238	1048	7	0	0	890443	692	0	correct_rejection	NA	0
9	Correct	77	239	1049	0	1	1	891151	692	1	hit	425	0
9	Correct	78	240	1050	8	0	0	891860	692	0	correct_rejection	NA	0
9	Correct	79	241	1051	9	0	0	892569	691	0	correct_rejection	NA	0
9	Correct	80	242	1052	7	0	0	893277	692	0	correct_rejection	NA	0
9	Correct	81	243	1053	0	1	1	893986	691	1	hit	292	0
9	Correct	82	244	1054	8	0	0	894694	692	0	correct_rejection	NA	0
9	Correct	83	245	1055	9	0	0	895403	692	0	correct_rejection	NA	0
9	Correct	84	246	1056	4	0	0	896111	692	0	correct_rejection	NA	0
9	Correct	85	247	1057	5	0	0	896820	692	0	correct_rejection	NA	0
9	Correct	86	248	1058	6	0	0	897529	691	0	correct_rejection	NA	0
9	Correct	87	249	1059	0	1	2	898237	692	1	hit	319	0
9	Correct	88	250	1060	4	0	0	898946	691	0	correct_rejection	NA	0
9	Correct	89	251	1061	5	0	0	899654	692	0	correct_rejection	NA	0
9	Correct	90	252	1062	6	0	0	900363	692	0	correct_rejection	NA	0
9	Correct	91	253	1063	4	0	0	901071	692	0	correct_rejection	NA	0
9	Correct	92	254	1064	5	0	0	901780	692	0	correct_rejection	NA	0
9	Correct	93	255	1065	6	0	0	902489	691	0	correct_rejection	NA	0
9	Correct	94	256	1066	6	0	0	903197	692	0	correct_rejection	NA	0
9	Correct	95	257	1067	0	1	1	903906	691	1	hit	365	0
9	Correct	96	258	1068	5	0	0	904614	692	0	correct_rejection	NA	0
9	Correct	97	259	1069	4	0	0	905323	692	0	correct_rejection	NA	0
9	Correct	98	260	1070	6	0	0	906031	692	0	correct_rejection	NA	0
9	Correct	99	261	1071	5	0	0	906740	692	0	correct_rejection	NA	0
9	Correct	100	262	1072	4	0	0	907449	691	0	correct_rejection	NA	0
9	Correct	101	263	1073	6	0	0	908157	692	0	correct_rejection	NA	0
9	Correct	102	264	1074	5	0	0	908866	691	0	correct_rejection	NA	0
9	Correct	103	265	1075	4	0	0	909574	692	0	correct_rejection	NA	0
9	Correct	104	266	1076	9	0	0	910283	691	0	correct_rejection	NA	0
9	Correct	105	267	1077	8	0	0	910991	692	0	correct_rejection	NA	0
9	Correct	106	268	1078	7	0	0	911700	692	0	correct_rejection	NA	0
9	Correct	107	269	1079	9	0	0	912408	692	0	correct_rejection	NA	0
9	Correct	108	270	1080	8	0	0	913117	692	0	correct_rejection	NA	0
9	Correct	109	271	1081	7	0	0	913826	691	0	correct_rejection	NA	0
9	Correct	110	272	1082	9	0	0	914534	692	0	correct_rejection	NA	0
9	Correct	111	273	1083	8	0	0	915243	691	0	correct_rejection	NA	0
9	Correct	112	274	1084	7	0	0	915951	692	0	correct_rejection	NA	0
9	Correct	113	275	1085	7	0	0	916660	692	0	correct_rejection	NA	0
9	Correct	114	276	1086	8	0	0	917368	692	0	correct_rejection	NA	0
9	Correct	115	277	1087	0	1	1	918077	692	1	hit	471	0
9	Correct	116	278	1088	9	0	0	918786	691	0	correct_rejection	NA	0
9	Correct	117	279	1089	7	0	0	919494	692	0	correct_rejection	NA	0
9	Correct	118	280	1090	8	0	0	920203	691	0	correct_rejection	NA	0
9	Correct	119	281	1091	9	0	0	920911	692	0	correct_rejection	NA	0
9	Correct	120	282	1092	0	1	2	921620	692	1	hit	387	0
9	Correct	121	283	1093	7	0	0	922328	692	0	correct_rejection	NA	0
9	Correct	122	284	1094	8	0	0	923037	692	0	correct_rejection	NA	0
9	Correct	123	285	1095	9	0	0	923746	691	0	correct_rejection	NA	0
9	Correct	124	286	1096	4	0	0	924454	692	0	correct_rejection	NA	0
9	Correct	125	287	1097	5	0	0	925163	691	0	correct_rejection	NA	0
9	Correct	126	288	1098	0	1	1	925871	692	1	hit	508	0
9	Correct	127	289	1099	6	0	0	926580	692	0	correct_rejection	NA	0
9	Correct	128	290	1100	4	0	0	927288	692	0	correct_rejection	NA	0
9	Correct	129	291	1101	5	0	0	927997	692	0	correct_rejection	NA	0
9	Correct	130	292	1102	6	0	0	928706	691	0	correct_rejection	NA	0
9	Correct	131	293	1103	4	0	0	929414	692	0	correct_rejection	NA	0
9	Correct	132	294	1104	5	0	0	930123	691	0	correct_rejection	NA	0
9	Correct	133	295	1105	6	0	0	930831	692	0	correct_rejection	NA	0
9	Correct	134	296	1106	6	0	0	931540	691	0	correct_rejection	NA	0
9	Correct	135	297	1107	5	0	0	932248	692	0	correct_rejection	NA	0
9	Correct	136	298	1108	4	0	0	932957	692	0	correct_rejection	NA	0
9	Correct	137	299	1109	6	0	0	933666	691	0	correct_rejection	NA	0
9	Correct	138	300	1110	5	0	0	934374	692	0	correct_rejection	NA	0
9	Correct	139	301	1111	4	0	0	935083	691	0	correct_rejection	NA	0
9	Correct	140	302	1112	6	0	0	935791	692	0	correct_rejection	NA	0
9	Correct	141	303	1113	5	0	0	936500	691	0	correct_rejection	NA	0
9	Correct	142	304	1114	4	0	0	937208	692	0	correct_rejection	NA	0
9	Correct	143	305	1115	9	0	0	937917	692	0	correct_rejection	NA	0
9	Correct	144	306	1116	8	0	0	938625	692	0	correct_rejection	NA	0
9	Correct	145	307	1117	7	0	0	939334	692	0	correct_rejection	NA	0
9	Correct	146	308	1118	9	0	0	940043	691	0	correct_rejection	NA	0
9	Correct	147	309	1119	8	0	0	940751	692	0	correct_rejection	NA	0
9	Correct	148	310	1120	0	1	1	941460	691	1	hit	423	0
9	Correct	149	311	1121	7	0	0	942168	692	0	correct_rejection	NA	0
9	Correct	150	312	1122	9	0	0	942877	692	0	correct_rejection	NA	0
9	Correct	151	313	1123	8	0	0	943585	692	0	correct_rejection	NA	0
9	Correct	152	314	1124	7	0	0	944294	692	0	correct_rejection	NA	0
9	Correct	153	315	1125	7	0	0	945003	691	0	correct_rejection	NA	0
9	Correct	154	316	1126	0	1	1	945711	692	1	hit	421	0
9	Correct	155	317	1127	8	0	0	946420	691	0	correct_rejection	NA	0
9	Correct	156	318	1128	9	0	0	947128	692	0	correct_rejection	NA	0
9	Correct	157	319	1129	7	0	0	947837	692	0	correct_rejection	NA	0
9	Correct	158	320	1130	8	0	0	948545	692	0	correct_rejection	NA	0
9	Correct	159	321	1131	9	0	0	949254	692	0	correct_rejection	NA	0
9	Correct	160	322	1132	7	0	0	949963	691	0	correct_rejection	NA	0
9	Correct	161	323	1133	8	0	0	950671	692	0	correct_rejection	NA	0
9	Correct	162	324	1134	9	0	0	951380	691	0	correct_rejection	NA	0
9	Nonet	1	163	1135	4	0	0	961475	691	0	correct_rejection	NA	7659
9	Nonet	2	164	1136	5	0	0	962183	692	0	correct_rejection	NA	0
9	Nonet	3	165	1137	6	0	0	962892	691	0	correct_rejection	NA	0
9	Nonet	4	166	1138	4	0	0	963600	692	0	correct_rejection	NA	0
9	Nonet	5	167	1139	5	0	0	964309	692	0	correct_rejection	NA	0
9	Nonet	6	168	1140	6	0	0	965018	691	0	correct_rejection	NA	0
9	Nonet	7	169	1141	4	0	0	965726	692	0	correct_rejection	NA	0
9	Nonet	8	170	1142	5	0	0	966435	691	0	correct_rejection	NA	0
9	Nonet	9	171	1143	0	1	1	967143	692	1	hit	465	0
9	Nonet	10	172	1144	6	0	0	967852	691	0	correct_rejection	NA	0
9	Nonet	11	173	1145	4	0	0	968560	692	0	correct_rejection	NA	0
9	Nonet	12	174	1146	5	0	0	969269	692	0	correct_rejection	NA	0
9	Nonet	13	175	1147	6	0	0	969977	692	0	correct_rejection	NA	0
9	Nonet	14	176	1148	4	0	0	970686	692	0	correct_rejection	NA	0
9	Nonet	15	177	1149	5	0	0	971395	691	0	correct_rejection	NA	0
9	Nonet	16	178	1150	6	0	0	972103	692	0	correct_rejection	NA	0
9	Nonet	17	179	1151	4	0	0	972812	691	0	correct_rejection	NA	0
9	Nonet	18	180	1152	5	0	0	973520	692	0	correct_rejection	NA	0
9	Nonet	19	181	1153	6	0	0	974229	692	0	correct_rejection	NA	0
9	Nonet	20	182	1154	7	0	0	974937	692	0	correct_rejection	NA	0
9	Nonet	21	183	1155	8	0	0	975646	692	0	correct_rejection	NA	0
9	Nonet	22	184	1156	9	0	0	976355	691	0	correct_rejection	NA	0
9	Nonet	23	185	1157	7	0	0	977063	692	0	correct_rejection	NA	0
9	Nonet	24	186	1158	8	0	0	977772	691	0	correct_rejection	NA	0
9	Nonet	25	187	1159	9	0	0	978480	692	0	correct_rejection	NA	0
9	Nonet	26	188	1160	7	0	0	979189	692	0	correct_rejection	NA	0
9	Nonet	27	189	1161	0	1	1	979897	692	1	hit	455	0
9	Nonet	28	190	1162	8	0	0	980606	692	0	correct_rejection	NA	0
9	Nonet	29	191	1163	9	0	0	981315	691	0	correct_rejection	NA	0
9	Nonet	30	192	1164	0	1	3	982023	692	1	hit	540	0
9	Nonet	31	193	1165	7	0	0	982732	691	0	correct_rejection	NA	0
9	Nonet	32	194	1166	8	0	0	983440	692	0	correct_rejection	NA	0
9	Nonet	33	195	1167	9	0	0	984149	691	0	correct_rejection	NA	0
9	Nonet	34	196	1168	7	0	0	984857	692	0	correct_rejection	NA	0
9	Nonet	35	197	1169	0	1	1	985566	692	1	hit	402	0
9	Nonet	36	198	1170	8	0	0	986275	691	0	correct_rejection	NA	0
9	Nonet	37	199	1171	9	0	0	986983	692	0	correct_rejection	NA	0
9	Nonet	38	200	1172	7	0	0	987692	691	0	correct_rejection	NA	0
9	Nonet	39	201	1173	8	0	0	988400	692	0	correct_rejection	NA	0
9	Nonet	40	202	1174	9	0	0	989109	691	0	correct_rejection	NA	0
9	Nonet	41	203	1175	6	0	0	989817	692	0	correct_rejection	NA	0
9	Nonet	42	204	1176	5	0	0	990526	692	0	correct_rejection	NA	0
9	Nonet	43	205	1177	4	0	0	991234	692	0	correct_rejection	NA	0
9	Nonet	44	206	1178	6	0	0	991943	692	0	correct_rejection	NA	0
9	Nonet	45	207	1179	5	0	0	992652	691	0	correct_rejection	NA	0
9	Nonet	46	208	1180	4	0	0	993360	692	0	correct_rejection	NA	0
9	Nonet	47	209	1181	6	0	0	994069	691	0	correct_rejection	NA	0
9	Nonet	48	210	1182	5	0	0	994777	692	0	correct_rejection	NA	0
9	Nonet	49	211	1183	0	1	1	995486	692	1	hit	501	0
9	Nonet	50	212	1184	4	0	0	996194	692	0	correct_rejection	NA	0
9	Nonet	51	213	1185	6	0	0	996903	692	0	correct_rejection	NA	0
9	Nonet	52	214	1186	5	0	0	997612	691	0	correct_rejection	NA	0
9	Nonet	53	215	1187	4	0	0	998320	692	0	correct_rejection	NA	0
9	Nonet	54	216	1188	6	0	0	999029	691	0	correct_rejection	NA	0
9	Nonet	55	217	1189	0	1	1	999737	692	1	hit	576	0
9	Nonet	56	218	1190	5	0	0	1000446	692	0	correct_rejection	NA	0
9	Nonet	57	219	1191	4	0	0	1001154	692	0	correct_rejection	NA	0
9	Nonet	58	220	1192	6	0	0	1001863	692	0	correct_rejection	NA	0
9	Nonet	59	221	1193	5	0	0	1002572	691	0	correct_rejection	NA	0
9	Nonet	60	222	1194	4	0	0	1003280	692	0	correct_rejection	NA	0
9	Nonet	61	223	1195	4	0	0	1003989	691	0	correct_rejection	NA	0
9	Nonet	62	224	1196	0	1	1	1004697	692	1	hit	520	0
9	Nonet	63	225	1197	5	0	0	1005406	691	0	correct_rejection	NA	0
9	Nonet	64	226	1198	6	0	0	1006114	692	0	correct_rejection	NA	0
9	Nonet	65	227	1199	4	0	0	1006823	692	0	correct_rejection	NA	0
9	Nonet	66	228	1200	5	0	0	1007532	691	0	correct_rejection	NA	0
9	Nonet	67	229	1201	6	0	0	1008240	692	0	correct_rejection	NA	0
9	Nonet	68	230	1202	4	0	0	1008949	691	0	correct_rejection	NA	0
9	Nonet	69	231	1203	5	0	0	1009657	692	0	correct_rejection	NA	0
9	Nonet	70	232	1204	6	0	0	1010366	691	0	correct_rejection	NA	0
9	Nonet	71	233	1205	6	0	0	1011074	692	0	correct_rejection	NA	0
9	Nonet	72	234	1206	5	0	0	1011783	692	0	correct_rejection	NA	0
9	Nonet	73	235	1207	4	0	0	1012491	692	0	correct_rejection	NA	0
9	Nonet	74	236	1208	6	0	0	1013200	692	0	correct_rejection	NA	0
9	Nonet	75	237	1209	0	1	1	1013909	691	1	hit	374	0
9	Nonet	76	238	1210	5	0	0	1014617	692	0	correct_rejection	NA	0
9	Nonet	77	239	1211	4	0	0	1015326	691	0	correct_rejection	NA	0
9	Nonet	78	240	1212	0	1	2	1016034	692	1	hit	406	0
9	Nonet	79	241	1213	6	0	0	1016743	692	0	correct_rejection	NA	0
9	Nonet	80	242	1214	5	0	0	1017451	692	0	correct_rejection	NA	0
9	Nonet	81	243	1215	4	0	0	1018160	692	0	correct_rejection	NA	0
9	Nonet	82	244	1216	9	0	0	1018869	691	0	correct_rejection	NA	0
9	Nonet	83	245	1217	0	1	1	1019577	692	1	hit	409	0
9	Nonet	84	246	1218	8	0	0	1020286	691	0	correct_rejection	NA	0
9	Nonet	85	247	1219	7	0	0	1020994	692	0	correct_rejection	NA	0
9	Nonet	86	248	1220	9	0	0	1021703	692	0	correct_rejection	NA	0
9	Nonet	87	249	1221	8	0	0	1022411	692	0	correct_rejection	NA	0
9	Nonet	88	250	1222	7	0	0	1023120	692	0	correct_rejection	NA	0
9	Nonet	89	251	1223	9	0	0	1023829	691	0	correct_rejection	NA	0
9	Nonet	90	252	1224	8	0	0	1024537	692	0	correct_rejection	NA	0
9	Nonet	91	253	1225	7	0	0	1025246	691	0	correct_rejection	NA	0
9	Nonet	92	254	1226	4	0	0	1025954	692	0	correct_rejection	NA	0
9	Nonet	93	255	1227	5	0	0	1026663	692	0	correct_rejection	NA	0
9	Nonet	94	256	1228	6	0	0	1027371	692	0	correct_rejection	NA	0
9	Nonet	95	257	1229	0	1	2	1028080	692	1	hit	405	0
9	Nonet	96	258	1230	4	0	0	1028789	691	0	correct_rejection	NA	0
9	Nonet	97	259	1231	5	0	0	1029497	692	0	correct_rejection	NA	0
9	Nonet	98	260	1232	6	0	0	1030206	691	0	correct_rejection	NA	0
9	Nonet	99	261	1233	4	0	0	1030914	692	0	correct_rejection	NA	0
9	Nonet	100	262	1234	0	1	1	1031623	691	1	hit	419	0
9	Nonet	101	263	1235	5	0	0	1032331	692	0	correct_rejection	NA	0
9	Nonet	102	264	1236	6	0	0	1033040	692	0	correct_rejection	NA	0
9	Nonet	103	265	1237	9	0	0	1033748	692	0	correct_rejection	NA	0
9	Nonet	104	266	1238	0	1	1	1034457	692	1	hit	408	0
9	Nonet	105	267	1239	8	0	0	1035166	691	0	correct_rejection	NA	0
9	Nonet	106	268	1240	7	0	0	1035874	692	0	correct_rejection	NA	0
9	Nonet	107	269	1241	9	0	0	1036583	691	0	correct_rejection	NA	0
9	Nonet	108	270	1242	0	1	1	1037291	692	1	hit	353	0
9	Nonet	109	271	1243	8	0	0	1038000	692	0	correct_rejection	NA	0
9	Nonet	110	272	1244	7	0	0	1038708	692	0	correct_rejection	NA	0
9	Nonet	111	273	1245	9	0	0	1039417	692	0	correct_rejection	NA	0
9	Nonet	112	274	1246	8	0	0	1040126	691	0	correct_rejection	NA	0
9	Nonet	113	275	1247	7	0	0	1040834	692	0	correct_rejection	NA	0
9	Nonet	114	276	1248	0	1	3	1041543	691	1	hit	397	0
9	Nonet	115	277	1249	7	0	0	1042251	692	0	correct_rejection	NA	0
9	Nonet	116	278	1250	8	0	0	1042960	692	0	correct_rejection	NA	0
9	Nonet	117	279	1251	9	0	0	1043668	692	0	correct_rejection	NA	0
9	Nonet	118	280	1252	7	0	0	1044377	692	0	correct_rejection	NA	0
9	Nonet	119	281	1253	8	0	0	1045086	691	0	correct_rejection	NA	0
9	Nonet	120	282	1254	9	0	0	1045794	692	0	correct_rejection	NA	0
9	Nonet	121	283	1255	7	0	0	1046503	691	0	correct_rejection	NA	0
9	Nonet	122	284	1256	8	0	0	1047211	692	0	correct_rejection	NA	0
9	Nonet	123	285	1257	9	0	0	1047920	692	0	correct_rejection	NA	0
9	Nonet	124	286	1258	9	0	0	1048628	692	0	correct_rejection	NA	0
9	Nonet	125	287	1259	8	0	0	1049337	692	0	correct_rejection	NA	0
9	Nonet	126	288	1260	7	0	0	1050046	691	0	correct_rejection	NA	0
9	Nonet	127	289	1261	9	0	0	1050754	692	0	correct_rejection	NA	0
9	Nonet	128	290	1262	8	0	0	1051463	691	0	correct_rejection	NA	0
9	Nonet	129	291	1263	7	0	0	1052171	692	0	correct_rejection	NA	0
9	Nonet	130	292	1264	9	0	0	1052880	691	0	correct_rejection	NA	0
9	Nonet	131	293	1265	8	0	0	1053588	692	0	correct_rejection	NA	0
9	Nonet	132	294	1266	7	0	0	1054297	692	0	correct_rejection	NA	0
9	Nonet	133	295	1267	0	1	3	1055005	692	1	hit	390	0
9	Nonet	134	296	1268	9	0	0	1055714	692	0	correct_rejection	NA	0
9	Nonet	135	297	1269	8	0	0	1056423	691	0	correct_rejection	NA	0
9	Nonet	136	298	1270	7	0	0	1057131	692	0	correct_rejection	NA	0
9	Nonet	137	299	1271	9	0	0	1057840	691	0	correct_rejection	NA	0
9	Nonet	138	300	1272	8	0	0	1058548	692	0	correct_rejection	NA	0
9	Nonet	139	301	1273	7	0	0	1059257	692	0	correct_rejection	NA	0
9	Nonet	140	302	1274	9	0	0	1059965	692	0	correct_rejection	NA	0
9	Nonet	141	303	1275	8	0	0	1060674	692	0	correct_rejection	NA	0
9	Nonet	142	304	1276	7	0	0	1061383	691	0	correct_rejection	NA	0
9	Nonet	143	305	1277	6	0	0	1062091	692	0	correct_rejection	NA	0
9	Nonet	144	306	1278	5	0	0	1062800	691	0	correct_rejection	NA	0
9	Nonet	145	307	1279	4	0	0	1063508	692	0	correct_rejection	NA	0
9	Nonet	146	308	1280	0	1	2	1064217	692	1	hit	404	0
9	Nonet	147	309	1281	6	0	0	1064925	692	0	correct_rejection	NA	0
9	Nonet	148	310	1282	5	0	0	1065634	692	0	correct_rejection	NA	0
9	Nonet	149	311	1283	4	0	0	1066343	691	0	correct_rejection	NA	0
9	Nonet	150	312	1284	6	0	0	1067051	692	0	correct_rejection	NA	0
9	Nonet	151	313	1285	5	0	0	1067760	691	0	correct_rejection	NA	0
9	Nonet	152	314	1286	4	0	0	1068468	692	0	correct_rejection	NA	0
9	Nonet	153	315	1287	7	0	0	1069177	692	0	correct_rejection	NA	0
9	Nonet	154	316	1288	8	0	0	1069885	692	0	correct_rejection	NA	0
9	Nonet	155	317	1289	0	1	1	1070594	692	1	hit	443	0
9	Nonet	156	318	1290	9	0	0	1071303	691	0	correct_rejection	NA	0
9	Nonet	157	319	1291	7	0	0	1072011	692	0	correct_rejection	NA	0
9	Nonet	158	320	1292	8	0	0	1072720	691	0	correct_rejection	NA	0
9	Nonet	159	321	1293	9	0	0	1073428	692	0	correct_rejection	NA	0
9	Nonet	160	322	1294	7	0	0	1074137	691	0	correct_rejection	NA	0
9	Nonet	161	323	1295	8	0	0	1074845	692	0	correct_rejection	NA	0
9	Nonet	162	324	1296	9	0	0	1075554	692	0	correct_rejection	NA	0
9	Single	1	163	1297	8	0	0	1084799	691	0	correct_rejection	NA	6999
9	Single	2	164	1298	6	0	0	1085507	692	0	correct_rejection	NA	0
9	Single	3	165	1299	7	0	0	1086216	691	0	correct_rejection	NA	0
9	Single	4	166	1300	5	0	0	1086924	692	0	correct_rejection	NA	0
9	Single	5	167	1301	0	1	1	1087633	692	1	hit	522	0
9	Single	6	168	1302	5	0	0	1088341	692	0	correct_rejection	NA	0
9	Single	7	169	1303	7	0	0	1089050	692	0	correct_rejection	NA	0
9	Single	8	170	1304	6	0	0	1089759	691	0	correct_rejection	NA	0
9	Single	9	171	1305	0	1	1	1090467	692	1	hit	334	0
9	Single	10	172	1306	8	0	0	1091176	691	0	correct_rejection	NA	0
9	Single	11	173	1307	7	0	0	1091884	692	0	correct_rejection	NA	0
9	Single	12	174	1308	7	0	0	1092593	692	0	correct_rejection	NA	0
9	Single	13	175	1309	8	0	0	1093301	692	0	correct_rejection	NA	0
9	Single	14	176	1310	8	0	0	1094010	692	0	correct_rejection	NA	0
9	Single	15	177	1311	4	0	0	1094719	691	0	correct_rejection	NA	0
9	Single	16	178	1312	7	0	0	1095427	692	0	correct_rejection	NA	0
9	Single	17	179	1313	0	1	1	1096136	691	1	hit	389	0
9	Single	18	180	1314	9	0	0	1096844	692	0	correct_rejection	NA	0
9	Single	19	181	1315	6	0	0	1097553	692	0	correct_rejection	NA	0
9	Single	20	182	1316	5	0	0	1098261	692	0	correct_rejection	NA	0
9	Single	21	183	1317	9	0	0	1098970	692	0	correct_rejection	NA	0
9	Single	22	184	1318	7	0	0	1099679	691	0	correct_rejection	NA	0
9	Single	23	185	1319	4	0	0	1100387	692	0	correct_rejection	NA	0
9	Single	24	186	1320	4	0	0	1101096	691	0	correct_rejection	NA	0
9	Single	25	187	1321	0	1	1	1101804	692	1	hit	357	0
9	Single	26	188	1322	6	0	0	1102513	691	0	correct_rejection	NA	0
9	Single	27	189	1323	9	0	0	1103221	692	0	correct_rejection	NA	0
9	Single	28	190	1324	9	0	0	1103930	692	0	correct_rejection	NA	0
9	Single	29	191	1325	5	0	0	1104639	691	0	correct_rejection	NA	0
9	Single	30	192	1326	6	0	0	1105347	692	0	correct_rejection	NA	0
9	Single	31	193	1327	6	0	0	1106056	691	0	correct_rejection	NA	0
9	Single	32	194	1328	0	1	1	1106764	692	1	hit	336	0
9	Single	33	195	1329	4	0	0	1107473	691	0	correct_rejection	NA	0
9	Single	34	196	1330	8	0	0	1108181	692	0	correct_rejection	NA	0
9	Single	35	197	1331	5	0	0	1108890	692	0	correct_rejection	NA	0
9	Single	36	198	1332	4	0	0	1109598	692	0	correct_rejection	NA	0
9	Single	37	199	1333	9	0	0	1110307	692	0	correct_rejection	NA	0
9	Single	38	200	1334	4	0	0	1111016	691	0	correct_rejection	NA	0
9	Single	39	201	1335	5	0	0	1111724	692	0	correct_rejection	NA	0
9	Single	40	202	1336	8	0	0	1112433	691	0	correct_rejection	NA	0
9	Single	41	203	1337	9	0	0	1113141	692	0	correct_rejection	NA	0
9	Single	42	204	1338	9	0	0	1113850	692	0	correct_rejection	NA	0
9	Single	43	205	1339	7	0	0	1114558	692	0	correct_rejection	NA	0
9	Single	44	206	1340	6	0	0	1115267	692	0	correct_rejection	NA	0
9	Single	45	207	1341	9	0	0	1115976	691	0	correct_rejection	NA	0
9	Single	46	208	1342	6	0	0	1116684	692	0	correct_rejection	NA	0
9	Single	47	209	1343	8	0	0	1117393	691	0	correct_rejection	NA	0
9	Single	48	210	1344	0	1	1	1118101	692	1	hit	568	0
9	Single	49	211	1345	4	0	0	1118810	692	0	correct_rejection	NA	0
9	Single	50	212	1346	8	0	0	1119518	692	0	correct_rejection	NA	0
9	Single	51	213	1347	8	0	0	1120227	692	0	correct_rejection	NA	0
9	Single	52	214	1348	0	1	1	1120936	691	1	hit	467	0
9	Single	53	215	1349	5	0	0	1121644	692	0	correct_rejection	NA	0
9	Single	54	216	1350	7	0	0	1122353	691	0	correct_rejection	NA	0
9	Single	55	217	1351	7	0	0	1123061	692	0	correct_rejection	NA	0
9	Single	56	218	1352	5	0	0	1123770	692	0	correct_rejection	NA	0
9	Single	57	219	1353	6	0	0	1124478	692	0	correct_rejection	NA	0
9	Single	58	220	1354	4	0	0	1125187	692	0	correct_rejection	NA	0
9	Single	59	221	1355	7	0	0	1125896	691	0	correct_rejection	NA	0
9	Single	60	222	1356	0	1	1	1126604	692	1	hit	404	0
9	Single	61	223	1357	4	0	0	1127313	691	0	correct_rejection	NA	0
9	Single	62	224	1358	6	0	0	1128021	692	0	correct_rejection	NA	0
9	Single	63	225	1359	5	0	0	1128730	691	0	correct_rejection	NA	0
9	Single	64	226	1360	5	0	0	1129438	692	0	correct_rejection	NA	0
9	Single	65	227	1361	8	0	0	1130147	692	0	correct_rejection	NA	0
9	Single	66	228	1362	0	1	1	1130855	692	1	hit	344	0
9	Single	67	229	1363	7	0	0	1131564	692	0	correct_rejection	NA	0
9	Single	68	230	1364	8	0	0	1132273	691	0	correct_rejection	NA	0
9	Single	69	231	1365	9	0	0	1132981	692	0	correct_rejection	NA	0
9	Single	70	232	1366	0	1	1	1133690	691	1	hit	322	0
9	Single	71	233	1367	4	0	0	1134398	692	0	correct_rejection	NA	0
9	Single	72	234	1368	9	0	0	1135107	692	0	correct_rejection	NA	0
9	Single	73	235	1369	5	0	0	1135815	692	0	correct_rejection	NA	0
9	Single	74	236	1370	4	0	0	1136524	692	0	correct_rejection	NA	0
9	Single	75	237	1371	4	0	0	1137233	691	0	correct_rejection	NA	0
9	Single	76	238	1372	5	0	0	1137941	692	0	correct_rejection	NA	0
9	Single	77	239	1373	0	1	1	1138650	691	1	hit	311	0
9	Single	78	240	1374	9	0	0	1139358	692	0	correct_rejection	NA	0
9	Single	79	241	1375	9	0	0	1140067	692	0	correct_rejection	NA	0
9	Single	80	242	1376	8	0	0	1140775	692	0	correct_rejection	NA	0
9	Single	81	243	1377	6	0	0	1141484	692	0	correct_rejection	NA	0
9	Single	82	244	1378	6	0	0	1142193	691	0	correct_rejection	NA	0
9	Single	83	245	1379	7	0	0	1142901	692	0	correct_rejection	NA	0
9	Single	84	246	1380	7	0	0	1143610	691	0	correct_rejection	NA	0
9	Single	85	247	1381	5	0	0	1144318	692	0	correct_rejection	NA	0
9	Single	86	248	1382	7	0	0	1145027	692	0	correct_rejection	NA	0
9	Single	87	249	1383	9	0	0	1145735	692	0	correct_rejection	NA	0
9	Single	88	250	1384	9	0	0	1146444	692	0	correct_rejection	NA	0
9	Single	89	251	1385	7	0	0	1147153	691	0	correct_rejection	NA	0
9	Single	90	252	1386	7	0	0	1147861	692	0	correct_rejection	NA	0
9	Single	91	253	1387	4	0	0	1148570	691	0	correct_rejection	NA	0
9	Single	92	254	1388	8	0	0	1149278	692	0	correct_rejection	NA	0
9	Single	93	255	1389	7	0	0	1149987	691	0	correct_rejection	NA	0
9	Single	94	256	1390	6	0	0	1150695	692	0	correct_rejection	NA	0
9	Single	95	257	1391	5	0	0	1151404	692	0	correct_rejection	NA	0
9	Single	96	258	1392	6	0	0	1152112	692	0	correct_rejection	NA	0
9	Single	97	259	1393	7	0	0	1152821	692	0	correct_rejection	NA	0
9	Single	98	260	1394	8	0	0	1153530	691	0	correct_rejection	NA	0
9	Single	99	261	1395	5	0	0	1154238	692	0	correct_rejection	NA	0
9	Single	100	262	1396	9	0	0	1154947	691	0	correct_rejection	NA	0
9	Single	101	263	1397	4	0	0	1155655	692	0	correct_rejection	NA	0
9	Single	102	264	1398	4	0	0	1156364	692	0	correct_rejection	NA	0
9	Single	103	265	1399	9	0	0	1157072	692	0	correct_rejection	NA	0
9	Single	104	266	1400	0	1	1	1157781	692	1	hit	480	0
9	Single	105	267	1401	8	0	0	1158490	691	0	correct_rejection	NA	0
9	Single	106	268	1402	9	0	0	1159198	692	0	correct_rejection	NA	0
9	Single	107	269	1403	6	0	0	1159907	691	0	correct_rejection	NA	0
9	Single	108	270	1404	9	0	0	1160615	692	0	correct_rejection	NA	0
9	Single	109	271	1405	0	1	1	1161324	692	1	hit	422	0
9	Single	110	272	1406	5	0	0	1162032	692	0	correct_rejection	NA	0
9	Single	111	273	1407	8	0	0	1162741	692	0	correct_rejection	NA	0
9	Single	112	274	1408	4	0	0	1163450	691	0	correct_rejection	NA	0
9	Single	113	275	1409	5	0	0	1164158	692	0	correct_rejection	NA	0
9	Single	114	276	1410	5	0	0	1164867	691	0	correct_rejection	NA	0
9	Single	115	277	1411	4	0	0	1165575	692	0	correct_rejection	NA	0
9	Single	116	278	1412	6	0	0	1166284	692	0	correct_rejection	NA	0
9	Single	117	279	1413	6	0	0	1166992	692	0	correct_rejection	NA	0
9	Single	118	280	1414	8	0	0	1167701	692	0	correct_rejection	NA	0
9	Single	119	281	1415	8	0	0	1168410	691	0	correct_rejection	NA	0
9	Single	120	282	1416	6	0	0	1169118	692	0	correct_rejection	NA	0
9	Single	121	283	1417	4	0	0	1169827	691	0	correct_rejection	NA	0
9	Single	122	284	1418	8	0	0	1170535	692	0	correct_rejection	NA	0
9	Single	123	285	1419	4	0	0	1171244	691	0	correct_rejection	NA	0
9	Single	124	286	1420	6	0	0	1171952	692	0	correct_rejection	NA	0
9	Single	125	287	1421	0	1	1	1172661	692	1	hit	409	0
9	Single	126	288	1422	9	0	0	1173369	692	0	correct_rejection	NA	0
9	Single	127	289	1423	8	0	0	1174078	692	0	correct_rejection	NA	0
9	Single	128	290	1424	8	0	0	1174787	691	0	correct_rejection	NA	0
9	Single	129	291	1425	0	1	1	1175495	692	1	hit	584	0
9	Single	130	292	1426	9	0	0	1176204	691	0	correct_rejection	NA	0
9	Single	131	293	1427	5	0	0	1176912	692	0	correct_rejection	NA	0
9	Single	132	294	1428	9	0	0	1177621	692	0	correct_rejection	NA	0
9	Single	133	295	1429	7	0	0	1178329	692	0	correct_rejection	NA	0
9	Single	134	296	1430	5	0	0	1179038	692	0	correct_rejection	NA	0
9	Single	135	297	1431	8	0	0	1179747	691	0	correct_rejection	NA	0
9	Single	136	298	1432	5	0	0	1180455	692	0	correct_rejection	NA	0
9	Single	137	299	1433	5	0	0	1181164	691	0	correct_rejection	NA	0
9	Single	138	300	1434	6	0	0	1181872	692	0	correct_rejection	NA	0
9	Single	139	301	1435	8	0	0	1182581	692	0	correct_rejection	NA	0
9	Single	140	302	1436	0	1	1	1183289	692	1	hit	406	0
9	Single	141	303	1437	6	0	0	1183998	692	0	correct_rejection	NA	0
9	Single	142	304	1438	7	0	0	1184707	691	0	correct_rejection	NA	0
9	Single	143	305	1439	9	0	0	1185415	692	0	correct_rejection	NA	0
9	Single	144	306	1440	6	0	0	1186124	691	0	correct_rejection	NA	0
9	Single	145	307	1441	0	1	1	1186832	692	1	hit	407	0
9	Single	146	308	1442	5	0	0	1187541	692	0	correct_rejection	NA	0
9	Single	147	309	1443	4	0	0	1188249	692	0	correct_rejection	NA	0
9	Single	148	310	1444	0	1	1	1188958	692	1	hit	368	0
9	Single	149	311	1445	5	0	0	1189667	691	0	correct_rejection	NA	0
9	Single	150	312	1446	7	0	0	1190375	692	0	correct_rejection	NA	0
9	Single	151	313	1447	8	0	0	1191084	691	0	correct_rejection	NA	0
9	Single	152	314	1448	7	0	0	1191792	692	0	correct_rejection	NA	0
9	Single	153	315	1449	4	0	0	1192501	691	0	correct_rejection	NA	0
9	Single	154	316	1450	4	0	0	1193209	692	0	correct_rejection	NA	0
9	Single	155	317	1451	7	0	0	1193918	692	0	correct_rejection	NA	0
9	Single	156	318	1452	7	0	0	1194626	692	0	correct_rejection	NA	0
9	Single	157	319	1453	6	0	0	1195335	692	0	correct_rejection	NA	0
9	Single	158	320	1454	6	0	0	1196044	691	0	correct_rejection	NA	0
9	Single	159	321	1455	4	0	0	1196752	692	0	correct_rejection	NA	0
9	Single	160	322	1456	9	0	0	1197461	691	0	correct_rejection	NA	0
9	Single	161	323	1457	9	0	0	1198169	692	0	correct_rejection	NA	0
9	Single	162	324	1458	4	0	0	1198878	692	0	correct_rejection	NA	0
9	Correct	1	649	1459	4	0	0	1208748	692	0	correct_rejection	NA	7949
9	Correct	2	650	1460	5	0	0	1209456	692	0	correct_rejection	NA	0
9	Correct	3	651	1461	6	0	0	1210165	692	0	correct_rejection	NA	0
9	Correct	4	652	1462	4	0	0	1210874	691	0	correct_rejection	NA	0
9	Correct	5	653	1463	5	0	0	1211582	692	0	correct_rejection	NA	0
9	Correct	6	654	1464	6	0	0	1212291	691	0	correct_rejection	NA	0
9	Correct	7	655	1465	4	0	0	1212999	692	0	correct_rejection	NA	0
9	Correct	8	656	1466	5	0	0	1213708	691	0	correct_rejection	NA	0
9	Correct	9	657	1467	6	0	0	1214416	692	0	correct_rejection	NA	0
9	Correct	10	658	1468	6	0	0	1215125	692	0	correct_rejection	NA	0
9	Correct	11	659	1469	5	0	0	1215833	692	0	correct_rejection	NA	0
9	Correct	12	660	1470	4	0	0	1216542	692	0	correct_rejection	NA	0
9	Correct	13	661	1471	6	0	0	1217251	691	0	correct_rejection	NA	0
9	Correct	14	662	1472	5	0	0	1217959	692	0	correct_rejection	NA	0
9	Correct	15	663	1473	4	0	0	1218668	691	0	correct_rejection	NA	0
9	Correct	16	664	1474	6	0	0	1219376	692	0	correct_rejection	NA	0
9	Correct	17	665	1475	5	0	0	1220085	692	0	correct_rejection	NA	0
9	Correct	18	666	1476	4	0	0	1220793	692	0	correct_rejection	NA	0
9	Correct	19	667	1477	9	0	0	1221502	692	0	correct_rejection	NA	0
9	Correct	20	668	1478	8	0	0	1222211	691	0	correct_rejection	NA	0
9	Correct	21	669	1479	7	0	0	1222919	692	0	correct_rejection	NA	0
9	Correct	22	670	1480	0	1	2	1223628	691	1	hit	560	0
9	Correct	23	671	1481	9	0	0	1224336	692	0	correct_rejection	NA	0
9	Correct	24	672	1482	8	0	0	1225045	692	0	correct_rejection	NA	0
9	Correct	25	673	1483	7	0	0	1225753	692	0	correct_rejection	NA	0
9	Correct	26	674	1484	9	0	0	1226462	692	0	correct_rejection	NA	0
9	Correct	27	675	1485	8	0	0	1227171	691	0	correct_rejection	NA	0
9	Correct	28	676	1486	7	0	0	1227879	692	0	correct_rejection	NA	0
9	Correct	29	677	1487	7	0	0	1228588	691	0	correct_rejection	NA	0
9	Correct	30	678	1488	8	0	0	1229296	692	0	correct_rejection	NA	0
9	Correct	31	679	1489	9	0	0	1230005	692	0	correct_rejection	NA	0
9	Correct	32	680	1490	7	0	0	1230713	692	0	correct_rejection	NA	0
9	Correct	33	681	1491	8	0	0	1231422	692	0	correct_rejection	NA	0
9	Correct	34	682	1492	9	0	0	1232131	691	0	correct_rejection	NA	0
9	Correct	35	683	1493	0	1	2	1232839	692	1	hit	493	0
9	Correct	36	684	1494	7	0	0	1233548	691	0	correct_rejection	NA	0
9	Correct	37	685	1495	8	0	0	1234256	692	0	correct_rejection	NA	0
9	Correct	38	686	1496	9	0	0	1234965	691	0	correct_rejection	NA	0
9	Correct	39	687	1497	0	1	4	1235673	692	1	hit	394	0
9	Correct	40	688	1498	4	0	0	1236382	692	0	correct_rejection	NA	0
9	Correct	41	689	1499	5	0	0	1237090	692	0	correct_rejection	NA	0
9	Correct	42	690	1500	6	0	0	1237799	692	0	correct_rejection	NA	0
9	Correct	43	691	1501	4	0	0	1238508	691	0	correct_rejection	NA	0
9	Correct	44	692	1502	0	1	1	1239216	692	1	hit	372	0
9	Correct	45	693	1503	5	0	0	1239925	691	0	correct_rejection	NA	0
9	Correct	46	694	1504	6	0	0	1240633	692	0	correct_rejection	NA	0
9	Correct	47	695	1505	4	0	0	1241342	692	0	correct_rejection	NA	0
9	Correct	48	696	1506	5	0	0	1242050	692	0	correct_rejection	NA	0
9	Correct	49	697	1507	6	0	0	1242759	692	0	correct_rejection	NA	0
9	Correct	50	698	1508	6	0	0	1243468	691	0	correct_rejection	NA	0
9	Correct	51	699	1509	5	0	0	1244176	692	0	correct_rejection	NA	0
9	Correct	52	700	1510	4	0	0	1244885	691	0	correct_rejection	NA	0
9	Correct	53	701	1511	6	0	0	1245593	692	0	correct_rejection	NA	0
9	Correct	54	702	1512	5	0	0	1246302	692	0	correct_rejection	NA	0
9	Correct	55	703	1513	4	0	0	1247010	692	0	correct_rejection	NA	0
9	Correct	56	704	1514	6	0	0	1247719	692	0	correct_rejection	NA	0
9	Correct	57	705	1515	5	0	0	1248428	691	0	correct_rejection	NA	0
9	Correct	58	706	1516	0	1	1	1249136	692	1	hit	376	0
9	Correct	59	707	1517	4	0	0	1249845	691	0	correct_rejection	NA	0
9	Correct	60	708	1518	9	0	0	1250553	692	0	correct_rejection	NA	0
9	Correct	61	709	1519	8	0	0	1251262	692	0	correct_rejection	NA	0
9	Correct	62	710	1520	7	0	0	1251970	692	0	correct_rejection	NA	0
9	Correct	63	711	1521	9	0	0	1252679	692	0	correct_rejection	NA	0
9	Correct	64	712	1522	0	1	1	1253388	691	1	hit	456	0
9	Correct	65	713	1523	8	0	0	1254096	692	0	correct_rejection	NA	0
9	Correct	66	714	1524	7	0	0	1254805	691	0	correct_rejection	NA	0
9	Correct	67	715	1525	9	0	0	1255513	692	0	correct_rejection	NA	0
9	Correct	68	716	1526	8	0	0	1256222	691	0	correct_rejection	NA	0
9	Correct	69	717	1527	7	0	0	1256930	692	0	correct_rejection	NA	0
9	Correct	70	718	1528	7	0	0	1257639	692	0	correct_rejection	NA	0
9	Correct	71	719	1529	8	0	0	1258347	692	0	correct_rejection	NA	0
9	Correct	72	720	1530	9	0	0	1259056	692	0	correct_rejection	NA	0
9	Correct	73	721	1531	7	0	0	1259765	691	0	correct_rejection	NA	0
9	Correct	74	722	1532	8	0	0	1260473	692	0	correct_rejection	NA	0
9	Correct	75	723	1533	9	0	0	1261182	691	0	correct_rejection	NA	0
9	Correct	76	724	1534	7	0	0	1261890	692	0	correct_rejection	NA	0
9	Correct	77	725	1535	0	1	1	1262599	692	1	hit	440	0
9	Correct	78	726	1536	8	0	0	1263307	692	0	correct_rejection	NA	0
9	Correct	79	727	1537	9	0	0	1264016	692	0	correct_rejection	NA	0
9	Correct	80	728	1538	4	0	0	1264725	691	0	correct_rejection	NA	0
9	Correct	81	729	1539	5	0	0	1265433	692	0	correct_rejection	NA	0
9	Correct	82	730	1540	6	0	0	1266142	691	0	correct_rejection	NA	0
9	Correct	83	731	1541	4	0	0	1266850	692	0	correct_rejection	NA	0
9	Correct	84	732	1542	5	0	0	1267559	692	0	correct_rejection	NA	0
9	Correct	85	733	1543	6	0	0	1268267	692	0	correct_rejection	NA	0
9	Correct	86	734	1544	4	0	0	1268976	692	0	correct_rejection	NA	0
9	Correct	87	735	1545	5	0	0	1269685	691	0	correct_rejection	NA	0
9	Correct	88	736	1546	6	0	0	1270393	692	0	correct_rejection	NA	0
9	Correct	89	737	1547	6	0	0	1271102	691	0	correct_rejection	NA	0
9	Correct	90	738	1548	5	0	0	1271810	692	0	correct_rejection	NA	0
9	Correct	91	739	1549	4	0	0	1272519	692	0	correct_rejection	NA	0
9	Correct	92	740	1550	6	0	0	1273227	692	0	correct_rejection	NA	0
9	Correct	93	741	1551	0	1	1	1273936	692	1	hit	417	0
9	Correct	94	742	1552	5	0	0	1274645	691	0	correct_rejection	NA	0
9	Correct	95	743	1553	4	0	0	1275353	692	0	correct_rejection	NA	0
9	Correct	96	744	1554	6	0	0	1276062	691	0	correct_rejection	NA	0
9	Correct	97	745	1555	5	0	0	1276770	692	0	correct_rejection	NA	0
9	Correct	98	746	1556	4	0	0	1277479	691	0	correct_rejection	NA	0
9	Correct	99	747	1557	0	1	3	1278187	692	1	hit	471	0
9	Correct	100	748	1558	9	0	0	1278896	692	0	correct_rejection	NA	0
9	Correct	101	749	1559	8	0	0	1279605	691	0	correct_rejection	NA	0
9	Correct	102	750	1560	7	0	0	1280313	692	0	correct_rejection	NA	0
9	Correct	103	751	1561	9	0	0	1281022	691	0	correct_rejection	NA	0
9	Correct	104	752	1562	8	0	0	1281730	692	0	correct_rejection	NA	0
9	Correct	105	753	1563	7	0	0	1282439	691	0	correct_rejection	NA	0
9	Correct	106	754	1564	9	0	0	1283147	692	0	correct_rejection	NA	0
9	Correct	107	755	1565	8	0	0	1283856	692	0	correct_rejection	NA	0
9	Correct	108	756	1566	7	0	0	1284564	692	0	correct_rejection	NA	0
9	Correct	109	757	1567	0	1	3	1285273	692	1	hit	395	0
9	Correct	110	758	1568	7	0	0	1285982	691	0	correct_rejection	NA	0
9	Correct	111	759	1569	8	0	0	1286690	692	0	correct_rejection	NA	0
9	Correct	112	760	1570	9	0	0	1287399	691	0	correct_rejection	NA	0
9	Correct	113	761	1571	0	1	2	1288107	692	1	hit	395	0
9	Correct	114	762	1572	7	0	0	1288816	692	0	correct_rejection	NA	0
9	Correct	115	763	1573	8	0	0	1289524	692	0	correct_rejection	NA	0
9	Correct	116	764	1574	9	0	0	1290233	692	0	correct_rejection	NA	0
9	Correct	117	765	1575	7	0	0	1290942	691	0	correct_rejection	NA	0
9	Correct	118	766	1576	8	0	0	1291650	692	0	correct_rejection	NA	0
9	Correct	119	767	1577	9	0	0	1292359	691	0	correct_rejection	NA	0
9	Correct	120	768	1578	4	0	0	1293067	692	0	correct_rejection	NA	0
9	Correct	121	769	1579	0	1	1	1293776	692	1	hit	361	0
9	Correct	122	770	1580	5	0	0	1294484	692	0	correct_rejection	NA	0
9	Correct	123	771	1581	6	0	0	1295193	692	0	correct_rejection	NA	0
9	Correct	124	772	1582	4	0	0	1295902	691	0	correct_rejection	NA	0
9	Correct	125	773	1583	5	0	0	1296610	692	0	correct_rejection	NA	0
9	Correct	126	774	1584	0	1	1	1297319	691	1	hit	467	0
9	Correct	127	775	1585	6	0	0	1298027	692	0	correct_rejection	NA	0
9	Correct	128	776	1586	4	0	0	1298736	691	0	correct_rejection	NA	0
9	Correct	129	777	1587	5	0	0	1299444	692	0	correct_rejection	NA	0
9	Correct	130	778	1588	6	0	0	1300153	692	0	correct_rejection	NA	0
9	Correct	131	779	1589	6	0	0	1300862	691	0	correct_rejection	NA	0
9	Correct	132	780	1590	5	0	0	1301570	692	0	correct_rejection	NA	0
9	Correct	133	781	1591	0	1	1	1302279	691	1	hit	352	0
9	Correct	134	782	1592	4	0	0	1302987	692	0	correct_rejection	NA	0
9	Correct	135	783	1593	6	0	0	1303696	691	0	correct_rejection	NA	0
9	Correct	136	784	1594	0	1	1	1304404	692	1	hit	391	0
9	Correct	137	785	1595	5	0	0	1305113	692	0	correct_rejection	NA	0
9	Correct	138	786	1596	4	0	0	1305821	692	0	correct_rejection	NA	0
9	Correct	139	787	1597	6	0	0	1306530	692	0	correct_rejection	NA	0
9	Correct	140	788	1598	5	0	0	1307239	691	0	correct_rejection	NA	0
9	Correct	141	789	1599	4	0	0	1307947	692	0	correct_rejection	NA	0
9	Correct	142	790	1600	9	0	0	1308656	691	0	correct_rejection	NA	0
9	Correct	143	791	1601	8	0	0	1309364	692	0	correct_rejection	NA	0
9	Correct	144	792	1602	0	1	1	1310073	692	1	hit	377	0
9	Correct	145	793	1603	7	0	0	1310781	692	0	correct_rejection	NA	0
9	Correct	146	794	1604	9	0	0	1311490	692	0	correct_rejection	NA	0
9	Correct	147	795	1605	8	0	0	1312199	691	0	correct_rejection	NA	0
9	Correct	148	796	1606	7	0	0	1312907	692	0	correct_rejection	NA	0
9	Correct	149	797	1607	9	0	0	1313616	691	0	correct_rejection	NA	0
9	Correct	150	798	1608	8	0	0	1314324	692	0	correct_rejection	NA	0
9	Correct	151	799	1609	7	0	0	1315033	692	0	correct_rejection	NA	0
9	Correct	152	800	1610	7	0	0	1315741	692	0	correct_rejection	NA	0
9	Correct	153	801	1611	8	0	0	1316450	692	0	correct_rejection	NA	0
9	Correct	154	802	1612	9	0	0	1317159	691	0	correct_rejection	NA	0
9	Correct	155	803	1613	7	0	0	1317867	692	0	correct_rejection	NA	0
9	Correct	156	804	1614	8	0	0	1318576	691	0	correct_rejection	NA	0
9	Correct	157	805	1615	0	1	1	1319284	692	1	hit	524	0
9	Correct	158	806	1616	9	0	0	1319993	692	0	correct_rejection	NA	0
9	Correct	159	807	1617	7	0	0	1320701	692	0	correct_rejection	NA	0
9	Correct	160	808	1618	8	0	0	1321410	692	0	correct_rejection	NA	0
