ID	block	trial_block	trial_cat	trial_total	number	violation	level_violation	onset	duration	Response	Hit_Miss	RT	pre_trial_fixcross_ISI
first_trigger_at: 14117
trigger nr 3 at 16117
10	Triplet	1	325	1	6	0	0	22532	692	0	correct_rejection	NA	6379
10	Triplet	2	326	2	5	0	0	23240	692	0	correct_rejection	NA	0
10	Triplet	3	327	3	4	0	0	23949	692	0	correct_rejection	NA	0
10	Triplet	4	328	4	6	0	0	24658	691	0	correct_rejection	NA	0
10	Triplet	5	329	5	5	0	0	25366	692	0	correct_rejection	NA	0
10	Triplet	6	330	6	4	0	0	26075	691	0	correct_rejection	NA	0
10	Triplet	7	331	7	9	0	0	26783	692	0	correct_rejection	NA	0
10	Triplet	8	332	8	8	0	0	27492	692	0	correct_rejection	NA	0
10	Triplet	9	333	9	7	0	0	28200	692	0	correct_rejection	NA	0
10	Triplet	10	334	10	9	0	0	28909	692	0	correct_rejection	NA	0
10	Triplet	11	335	11	8	0	0	29618	691	0	correct_rejection	NA	0
10	Triplet	12	336	12	7	0	0	30326	692	0	correct_rejection	NA	0
10	Triplet	13	337	13	7	0	0	31035	691	0	correct_rejection	NA	0
10	Triplet	14	338	14	0	1	1	31743	692	1	hit	320	0
10	Triplet	15	339	15	8	0	0	32452	692	0	correct_rejection	NA	0
10	Triplet	16	340	16	9	0	0	33160	692	0	correct_rejection	NA	0
10	Triplet	17	341	17	9	0	0	33869	692	0	correct_rejection	NA	0
10	Triplet	18	342	18	8	0	0	34578	691	0	correct_rejection	NA	0
10	Triplet	19	343	19	7	0	0	35286	692	0	correct_rejection	NA	0
10	Triplet	20	344	20	6	0	0	35995	691	0	correct_rejection	NA	0
10	Triplet	21	345	21	5	0	0	36703	692	0	correct_rejection	NA	0
10	Triplet	22	346	22	4	0	0	37412	691	0	correct_rejection	NA	0
10	Triplet	23	347	23	7	0	0	38120	692	0	correct_rejection	NA	0
10	Triplet	24	348	24	8	0	0	38829	692	0	correct_rejection	NA	0
10	Triplet	25	349	25	9	0	0	39537	692	0	correct_rejection	NA	0
10	Triplet	26	350	26	4	0	0	40246	692	0	correct_rejection	NA	0
10	Triplet	27	351	27	5	0	0	40955	691	0	correct_rejection	NA	0
10	Triplet	28	352	28	6	0	0	41663	692	0	correct_rejection	NA	0
10	Triplet	29	353	29	6	0	0	42372	691	0	correct_rejection	NA	0
10	Triplet	30	354	30	0	1	1	43080	692	1	hit	371	0
10	Triplet	31	355	31	5	0	0	43789	692	0	correct_rejection	NA	0
10	Triplet	32	356	32	4	0	0	44497	692	0	correct_rejection	NA	0
10	Triplet	33	357	33	4	0	0	45206	692	0	correct_rejection	NA	0
10	Triplet	34	358	34	5	0	0	45915	691	0	correct_rejection	NA	0
10	Triplet	35	359	35	6	0	0	46623	692	0	correct_rejection	NA	0
10	Triplet	36	360	36	9	0	0	47332	691	0	correct_rejection	NA	0
10	Triplet	37	361	37	8	0	0	48040	692	0	correct_rejection	NA	0
10	Triplet	38	362	38	7	0	0	48749	692	0	correct_rejection	NA	0
10	Triplet	39	363	39	4	0	0	49457	692	0	correct_rejection	NA	0
10	Triplet	40	364	40	5	0	0	50166	692	0	correct_rejection	NA	0
10	Triplet	41	365	41	6	0	0	50875	691	0	correct_rejection	NA	0
10	Triplet	42	366	42	4	0	0	51583	692	0	correct_rejection	NA	0
10	Triplet	43	367	43	0	1	1	52292	691	1	hit	517	0
10	Triplet	44	368	44	5	0	0	53000	692	0	correct_rejection	NA	0
10	Triplet	45	369	45	6	0	0	53709	692	0	correct_rejection	NA	0
10	Triplet	46	370	46	7	0	0	54417	692	0	correct_rejection	NA	0
10	Triplet	47	371	47	8	0	0	55126	692	0	correct_rejection	NA	0
10	Triplet	48	372	48	9	0	0	55835	691	0	correct_rejection	NA	0
10	Triplet	49	373	49	7	0	0	56543	692	0	correct_rejection	NA	0
10	Triplet	50	374	50	8	0	0	57252	691	0	correct_rejection	NA	0
10	Triplet	51	375	51	9	0	0	57960	692	0	correct_rejection	NA	0
10	Triplet	52	376	52	0	1	2	58669	691	1	hit	339	0
10	Triplet	53	377	53	6	0	0	59377	692	0	correct_rejection	NA	0
10	Triplet	54	378	54	5	0	0	60086	692	0	correct_rejection	NA	0
10	Triplet	55	379	55	4	0	0	60794	692	0	correct_rejection	NA	0
10	Triplet	56	380	56	0	1	2	61503	692	1	hit	403	0
10	Triplet	57	381	57	7	0	0	62212	691	0	correct_rejection	NA	0
10	Triplet	58	382	58	8	0	0	62920	692	0	correct_rejection	NA	0
10	Triplet	59	383	59	9	0	0	63629	691	0	correct_rejection	NA	0
10	Triplet	60	384	60	9	0	0	64337	692	0	correct_rejection	NA	0
10	Triplet	61	385	61	8	0	0	65046	692	0	correct_rejection	NA	0
10	Triplet	62	386	62	7	0	0	65754	692	0	correct_rejection	NA	0
10	Triplet	63	387	63	4	0	0	66463	692	0	correct_rejection	NA	0
10	Triplet	64	388	64	5	0	0	67172	691	0	correct_rejection	NA	0
10	Triplet	65	389	65	6	0	0	67880	692	0	correct_rejection	NA	0
10	Triplet	66	390	66	7	0	0	68589	691	0	correct_rejection	NA	0
10	Triplet	67	391	67	8	0	0	69297	692	0	correct_rejection	NA	0
10	Triplet	68	392	68	0	1	1	70006	692	1	hit	330	0
10	Triplet	69	393	69	9	0	0	70714	692	0	correct_rejection	NA	0
10	Triplet	70	394	70	4	0	0	71423	692	0	correct_rejection	NA	0
10	Triplet	71	395	71	5	0	0	72132	691	0	correct_rejection	NA	0
10	Triplet	72	396	72	0	1	1	72840	692	1	hit	342	0
10	Triplet	73	397	73	6	0	0	73549	691	0	correct_rejection	NA	0
10	Triplet	74	398	74	4	0	0	74257	692	0	correct_rejection	NA	0
10	Triplet	75	399	75	0	1	1	74966	692	1	hit	303	0
10	Triplet	76	400	76	5	0	0	75674	692	0	correct_rejection	NA	0
10	Triplet	77	401	77	6	0	0	76383	692	0	correct_rejection	NA	0
10	Triplet	78	402	78	9	0	0	77092	691	0	correct_rejection	NA	0
10	Triplet	79	403	79	0	1	1	77800	692	1	hit	299	0
10	Triplet	80	404	80	8	0	0	78509	691	0	correct_rejection	NA	0
10	Triplet	81	405	81	7	0	0	79217	692	0	correct_rejection	NA	0
10	Triplet	82	406	82	9	0	0	79926	691	0	correct_rejection	NA	0
10	Triplet	83	407	83	8	0	0	80634	692	0	correct_rejection	NA	0
10	Triplet	84	408	84	7	0	0	81343	692	0	correct_rejection	NA	0
10	Triplet	85	409	85	6	0	0	82052	691	0	correct_rejection	NA	0
10	Triplet	86	410	86	5	0	0	82760	692	0	correct_rejection	NA	0
10	Triplet	87	411	87	4	0	0	83469	691	0	correct_rejection	NA	0
10	Triplet	88	412	88	4	0	0	84177	692	0	correct_rejection	NA	0
10	Triplet	89	413	89	5	0	0	84886	691	0	correct_rejection	NA	0
10	Triplet	90	414	90	6	0	0	85594	692	0	correct_rejection	NA	0
10	Triplet	91	415	91	6	0	0	86303	692	0	correct_rejection	NA	0
10	Triplet	92	416	92	5	0	0	87011	692	0	correct_rejection	NA	0
10	Triplet	93	417	93	4	0	0	87720	692	0	correct_rejection	NA	0
10	Triplet	94	418	94	9	0	0	88429	691	0	correct_rejection	NA	0
10	Triplet	95	419	95	8	0	0	89137	692	0	correct_rejection	NA	0
10	Triplet	96	420	96	7	0	0	89846	691	0	correct_rejection	NA	0
10	Triplet	97	421	97	0	1	2	90554	692	1	hit	316	0
10	Triplet	98	422	98	7	0	0	91263	692	0	correct_rejection	NA	0
10	Triplet	99	423	99	8	0	0	91971	692	0	correct_rejection	NA	0
10	Triplet	100	424	100	9	0	0	92680	692	0	correct_rejection	NA	0
10	Triplet	101	425	101	7	0	0	93389	691	0	correct_rejection	NA	0
10	Triplet	102	426	102	8	0	0	94097	692	0	correct_rejection	NA	0
10	Triplet	103	427	103	9	0	0	94806	691	0	correct_rejection	NA	0
10	Triplet	104	428	104	6	0	0	95514	692	0	correct_rejection	NA	0
10	Triplet	105	429	105	5	0	0	96223	692	0	correct_rejection	NA	0
10	Triplet	106	430	106	4	0	0	96931	692	0	correct_rejection	NA	0
10	Triplet	107	431	107	0	1	2	97640	692	1	hit	329	0
10	Triplet	108	432	108	6	0	0	98349	691	0	correct_rejection	NA	0
10	Triplet	109	433	109	5	0	0	99057	692	0	correct_rejection	NA	0
10	Triplet	110	434	110	0	1	1	99766	691	1	hit	330	0
10	Triplet	111	435	111	4	0	0	100474	692	0	correct_rejection	NA	0
10	Triplet	112	436	112	9	0	0	101183	691	0	correct_rejection	NA	0
10	Triplet	113	437	113	8	0	0	101891	692	0	correct_rejection	NA	0
10	Triplet	114	438	114	7	0	0	102600	692	0	correct_rejection	NA	0
10	Triplet	115	439	115	4	0	0	103309	691	0	correct_rejection	NA	0
10	Triplet	116	440	116	5	0	0	104017	692	0	correct_rejection	NA	0
10	Triplet	117	441	117	6	0	0	104726	691	0	correct_rejection	NA	0
10	Triplet	118	442	118	9	0	0	105434	692	0	correct_rejection	NA	0
10	Triplet	119	443	119	8	0	0	106143	691	0	correct_rejection	NA	0
10	Triplet	120	444	120	7	0	0	106851	692	0	correct_rejection	NA	0
10	Triplet	121	445	121	7	0	0	107560	692	0	correct_rejection	NA	0
10	Triplet	122	446	122	8	0	0	108268	692	0	correct_rejection	NA	0
10	Triplet	123	447	123	9	0	0	108977	692	0	correct_rejection	NA	0
10	Triplet	124	448	124	6	0	0	109686	691	0	correct_rejection	NA	0
10	Triplet	125	449	125	5	0	0	110394	692	0	correct_rejection	NA	0
10	Triplet	126	450	126	4	0	0	111103	691	0	correct_rejection	NA	0
10	Triplet	127	451	127	4	0	0	111811	692	0	correct_rejection	NA	0
10	Triplet	128	452	128	0	1	1	112520	692	1	hit	344	0
10	Triplet	129	453	129	5	0	0	113228	692	0	correct_rejection	NA	0
10	Triplet	130	454	130	6	0	0	113937	692	0	correct_rejection	NA	0
10	Triplet	131	455	131	0	1	2	114646	691	1	hit	343	0
10	Triplet	132	456	132	4	0	0	115354	692	0	correct_rejection	NA	0
10	Triplet	133	457	133	5	0	0	116063	691	0	correct_rejection	NA	0
10	Triplet	134	458	134	6	0	0	116771	692	0	correct_rejection	NA	0
10	Triplet	135	459	135	6	0	0	117480	692	0	correct_rejection	NA	0
10	Triplet	136	460	136	5	0	0	118188	692	0	correct_rejection	NA	0
10	Triplet	137	461	137	4	0	0	118897	692	0	correct_rejection	NA	0
10	Triplet	138	462	138	6	0	0	119606	691	0	correct_rejection	NA	0
10	Triplet	139	463	139	5	0	0	120314	692	0	correct_rejection	NA	0
10	Triplet	140	464	140	0	1	1	121023	691	1	hit	335	0
10	Triplet	141	465	141	4	0	0	121731	692	0	correct_rejection	NA	0
10	Triplet	142	466	142	7	0	0	122440	692	0	correct_rejection	NA	0
10	Triplet	143	467	143	8	0	0	123148	692	0	correct_rejection	NA	0
10	Triplet	144	468	144	9	0	0	123857	692	0	correct_rejection	NA	0
10	Triplet	145	469	145	7	0	0	124566	691	0	correct_rejection	NA	0
10	Triplet	146	470	146	8	0	0	125274	692	0	correct_rejection	NA	0
10	Triplet	147	471	147	9	0	0	125983	691	0	correct_rejection	NA	0
10	Triplet	148	472	148	4	0	0	126691	692	0	correct_rejection	NA	0
10	Triplet	149	473	149	5	0	0	127400	691	0	correct_rejection	NA	0
10	Triplet	150	474	150	6	0	0	128108	692	0	correct_rejection	NA	0
10	Triplet	151	475	151	0	1	2	128817	692	1	hit	337	0
10	Triplet	152	476	152	7	0	0	129525	692	0	correct_rejection	NA	0
10	Triplet	153	477	153	8	0	0	130234	692	0	correct_rejection	NA	0
10	Triplet	154	478	154	0	1	1	130943	691	1	hit	357	0
10	Triplet	155	479	155	9	0	0	131651	692	0	correct_rejection	NA	0
10	Triplet	156	480	156	9	0	0	132360	691	0	correct_rejection	NA	0
10	Triplet	157	481	157	8	0	0	133068	692	0	correct_rejection	NA	0
10	Triplet	158	482	158	7	0	0	133777	692	0	correct_rejection	NA	0
10	Triplet	159	483	159	9	0	0	134485	692	0	correct_rejection	NA	0
10	Triplet	160	484	160	0	1	1	135194	692	1	hit	301	0
10	Triplet	161	485	161	8	0	0	135903	691	0	correct_rejection	NA	0
10	Triplet	162	486	162	7	0	0	136611	692	0	correct_rejection	NA	0
10	Nonet	1	325	163	4	0	0	146681	692	0	correct_rejection	NA	7529
10	Nonet	2	326	164	5	0	0	147390	691	0	correct_rejection	NA	0
10	Nonet	3	327	165	6	0	0	148098	692	0	correct_rejection	NA	0
10	Nonet	4	328	166	4	0	0	148807	692	0	correct_rejection	NA	0
10	Nonet	5	329	167	5	0	0	149515	692	0	correct_rejection	NA	0
10	Nonet	6	330	168	6	0	0	150224	692	0	correct_rejection	NA	0
10	Nonet	7	331	169	0	1	2	150933	691	1	hit	309	0
10	Nonet	8	332	170	4	0	0	151641	692	0	correct_rejection	NA	0
10	Nonet	9	333	171	5	0	0	152350	691	0	correct_rejection	NA	0
10	Nonet	10	334	172	6	0	0	153058	692	0	correct_rejection	NA	0
10	Nonet	11	335	173	6	0	0	153767	691	0	correct_rejection	NA	0
10	Nonet	12	336	174	0	1	1	154475	692	1	hit	333	0
10	Nonet	13	337	175	5	0	0	155184	692	0	correct_rejection	NA	0
10	Nonet	14	338	176	4	0	0	155893	691	0	correct_rejection	NA	0
10	Nonet	15	339	177	6	0	0	156601	692	0	correct_rejection	NA	0
10	Nonet	16	340	178	5	0	0	157310	691	0	correct_rejection	NA	0
10	Nonet	17	341	179	4	0	0	158018	692	0	correct_rejection	NA	0
10	Nonet	18	342	180	6	0	0	158727	691	0	correct_rejection	NA	0
10	Nonet	19	343	181	5	0	0	159435	692	0	correct_rejection	NA	0
10	Nonet	20	344	182	4	0	0	160144	692	0	correct_rejection	NA	0
10	Nonet	21	345	183	4	0	0	160852	692	0	correct_rejection	NA	0
10	Nonet	22	346	184	5	0	0	161561	692	0	correct_rejection	NA	0
10	Nonet	23	347	185	6	0	0	162270	691	0	correct_rejection	NA	0
10	Nonet	24	348	186	4	0	0	162978	692	0	correct_rejection	NA	0
10	Nonet	25	349	187	0	1	1	163687	691	1	hit	358	0
10	Nonet	26	350	188	5	0	0	164395	692	0	correct_rejection	NA	0
10	Nonet	27	351	189	6	0	0	165104	692	0	correct_rejection	NA	0
10	Nonet	28	352	190	4	0	0	165812	692	0	correct_rejection	NA	0
10	Nonet	29	353	191	5	0	0	166521	692	0	correct_rejection	NA	0
10	Nonet	30	354	192	6	0	0	167230	691	0	correct_rejection	NA	0
10	Nonet	31	355	193	9	0	0	167938	692	0	correct_rejection	NA	0
10	Nonet	32	356	194	8	0	0	168647	691	0	correct_rejection	NA	0
10	Nonet	33	357	195	7	0	0	169355	692	0	correct_rejection	NA	0
10	Nonet	34	358	196	9	0	0	170064	692	0	correct_rejection	NA	0
10	Nonet	35	359	197	8	0	0	170772	692	0	correct_rejection	NA	0
10	Nonet	36	360	198	7	0	0	171481	692	0	correct_rejection	NA	0
10	Nonet	37	361	199	9	0	0	172190	691	0	correct_rejection	NA	0
10	Nonet	38	362	200	8	0	0	172898	692	0	correct_rejection	NA	0
10	Nonet	39	363	201	7	0	0	173607	691	0	correct_rejection	NA	0
10	Nonet	40	364	202	4	0	0	174315	692	0	correct_rejection	NA	0
10	Nonet	41	365	203	5	0	0	175024	691	0	correct_rejection	NA	0
10	Nonet	42	366	204	6	0	0	175732	692	0	correct_rejection	NA	0
10	Nonet	43	367	205	4	0	0	176441	692	0	correct_rejection	NA	0
10	Nonet	44	368	206	5	0	0	177150	691	0	correct_rejection	NA	0
10	Nonet	45	369	207	0	1	1	177858	692	1	hit	334	0
10	Nonet	46	370	208	6	0	0	178567	691	0	correct_rejection	NA	0
10	Nonet	47	371	209	4	0	0	179275	692	0	correct_rejection	NA	0
10	Nonet	48	372	210	5	0	0	179984	691	0	correct_rejection	NA	0
10	Nonet	49	373	211	6	0	0	180692	692	0	correct_rejection	NA	0
10	Nonet	50	374	212	7	0	0	181401	692	0	correct_rejection	NA	0
10	Nonet	51	375	213	0	1	1	182109	692	1	hit	306	0
10	Nonet	52	376	214	8	0	0	182818	692	0	correct_rejection	NA	0
10	Nonet	53	377	215	9	0	0	183527	691	0	correct_rejection	NA	0
10	Nonet	54	378	216	7	0	0	184235	692	0	correct_rejection	NA	0
10	Nonet	55	379	217	8	0	0	184944	691	0	correct_rejection	NA	0
10	Nonet	56	380	218	9	0	0	185652	692	0	correct_rejection	NA	0
10	Nonet	57	381	219	7	0	0	186361	692	0	correct_rejection	NA	0
10	Nonet	58	382	220	8	0	0	187069	692	0	correct_rejection	NA	0
10	Nonet	59	383	221	9	0	0	187778	692	0	correct_rejection	NA	0
10	Nonet	60	384	222	9	0	0	188487	691	0	correct_rejection	NA	0
10	Nonet	61	385	223	8	0	0	189195	692	0	correct_rejection	NA	0
10	Nonet	62	386	224	7	0	0	189904	691	0	correct_rejection	NA	0
10	Nonet	63	387	225	9	0	0	190612	692	0	correct_rejection	NA	0
10	Nonet	64	388	226	8	0	0	191321	692	0	correct_rejection	NA	0
10	Nonet	65	389	227	0	1	1	192029	692	1	hit	403	0
10	Nonet	66	390	228	7	0	0	192738	692	0	correct_rejection	NA	0
10	Nonet	67	391	229	9	0	0	193447	691	0	correct_rejection	NA	0
10	Nonet	68	392	230	8	0	0	194155	692	0	correct_rejection	NA	0
10	Nonet	69	393	231	7	0	0	194864	691	0	correct_rejection	NA	0
10	Nonet	70	394	232	0	1	3	195572	692	1	hit	588	0
10	Nonet	71	395	233	9	0	0	196281	692	0	correct_rejection	NA	0
10	Nonet	72	396	234	8	0	0	196989	692	0	correct_rejection	NA	0
10	Nonet	73	397	235	7	0	0	197698	692	0	correct_rejection	NA	0
10	Nonet	74	398	236	9	0	0	198407	691	0	correct_rejection	NA	0
10	Nonet	75	399	237	8	0	0	199115	692	0	correct_rejection	NA	0
10	Nonet	76	400	238	7	0	0	199824	691	0	correct_rejection	NA	0
10	Nonet	77	401	239	9	0	0	200532	692	0	correct_rejection	NA	0
10	Nonet	78	402	240	0	1	1	201241	691	1	hit	332	0
10	Nonet	79	403	241	8	0	0	201949	692	0	correct_rejection	NA	0
10	Nonet	80	404	242	7	0	0	202658	692	0	correct_rejection	NA	0
10	Nonet	81	405	243	6	0	0	203366	692	0	correct_rejection	NA	0
10	Nonet	82	406	244	5	0	0	204075	692	0	correct_rejection	NA	0
10	Nonet	83	407	245	4	0	0	204784	691	0	correct_rejection	NA	0
10	Nonet	84	408	246	0	1	2	205492	692	1	hit	316	0
10	Nonet	85	409	247	6	0	0	206201	691	0	correct_rejection	NA	0
10	Nonet	86	410	248	5	0	0	206909	692	0	correct_rejection	NA	0
10	Nonet	87	411	249	4	0	0	207618	692	0	correct_rejection	NA	0
10	Nonet	88	412	250	6	0	0	208326	692	0	correct_rejection	NA	0
10	Nonet	89	413	251	5	0	0	209035	692	0	correct_rejection	NA	0
10	Nonet	90	414	252	4	0	0	209744	691	0	correct_rejection	NA	0
10	Nonet	91	415	253	7	0	0	210452	692	0	correct_rejection	NA	0
10	Nonet	92	416	254	8	0	0	211161	691	0	correct_rejection	NA	0
10	Nonet	93	417	255	9	0	0	211869	692	0	correct_rejection	NA	0
10	Nonet	94	418	256	7	0	0	212578	692	0	correct_rejection	NA	0
10	Nonet	95	419	257	8	0	0	213286	692	0	correct_rejection	NA	0
10	Nonet	96	420	258	9	0	0	213995	692	0	correct_rejection	NA	0
10	Nonet	97	421	259	7	0	0	214704	691	0	correct_rejection	NA	0
10	Nonet	98	422	260	8	0	0	215412	692	0	correct_rejection	NA	0
10	Nonet	99	423	261	9	0	0	216121	691	0	correct_rejection	NA	0
10	Nonet	100	424	262	6	0	0	216829	692	0	correct_rejection	NA	0
10	Nonet	101	425	263	0	1	1	217538	692	1	hit	343	0
10	Nonet	102	426	264	5	0	0	218246	692	0	correct_rejection	NA	0
10	Nonet	103	427	265	4	0	0	218955	692	0	correct_rejection	NA	0
10	Nonet	104	428	266	6	0	0	219664	691	0	correct_rejection	NA	0
10	Nonet	105	429	267	5	0	0	220372	692	0	correct_rejection	NA	0
10	Nonet	106	430	268	4	0	0	221081	691	0	correct_rejection	NA	0
10	Nonet	107	431	269	6	0	0	221789	692	0	correct_rejection	NA	0
10	Nonet	108	432	270	5	0	0	222498	691	0	correct_rejection	NA	0
10	Nonet	109	433	271	4	0	0	223206	692	0	correct_rejection	NA	0
10	Nonet	110	434	272	0	1	3	223915	692	1	hit	300	0
10	Nonet	111	435	273	6	0	0	224623	692	0	correct_rejection	NA	0
10	Nonet	112	436	274	5	0	0	225332	692	0	correct_rejection	NA	0
10	Nonet	113	437	275	0	1	1	226041	691	1	hit	401	0
10	Nonet	114	438	276	4	0	0	226749	692	0	correct_rejection	NA	0
10	Nonet	115	439	277	6	0	0	227458	691	0	correct_rejection	NA	0
10	Nonet	116	440	278	5	0	0	228166	692	0	correct_rejection	NA	0
10	Nonet	117	441	279	4	0	0	228875	692	0	correct_rejection	NA	0
10	Nonet	118	442	280	6	0	0	229583	692	0	correct_rejection	NA	0
10	Nonet	119	443	281	5	0	0	230292	692	0	correct_rejection	NA	0
10	Nonet	120	444	282	4	0	0	231001	691	0	correct_rejection	NA	0
10	Nonet	121	445	283	9	0	0	231709	692	0	correct_rejection	NA	0
10	Nonet	122	446	284	8	0	0	232418	691	0	correct_rejection	NA	0
10	Nonet	123	447	285	0	1	1	233126	692	1	hit	337	0
10	Nonet	124	448	286	7	0	0	233835	692	0	correct_rejection	NA	0
10	Nonet	125	449	287	9	0	0	234543	692	0	correct_rejection	NA	0
10	Nonet	126	450	288	8	0	0	235252	692	0	correct_rejection	NA	0
10	Nonet	127	451	289	7	0	0	235961	691	0	correct_rejection	NA	0
10	Nonet	128	452	290	9	0	0	236669	692	0	correct_rejection	NA	0
10	Nonet	129	453	291	8	0	0	237378	691	0	correct_rejection	NA	0
10	Nonet	130	454	292	7	0	0	238086	692	0	correct_rejection	NA	0
10	Nonet	131	455	293	0	1	3	238795	692	1	hit	345	0
10	Nonet	132	456	294	7	0	0	239503	692	0	correct_rejection	NA	0
10	Nonet	133	457	295	8	0	0	240212	692	0	correct_rejection	NA	0
10	Nonet	134	458	296	9	0	0	240921	691	0	correct_rejection	NA	0
10	Nonet	135	459	297	7	0	0	241629	692	0	correct_rejection	NA	0
10	Nonet	136	460	298	8	0	0	242338	691	0	correct_rejection	NA	0
10	Nonet	137	461	299	0	1	1	243046	692	1	hit	326	0
10	Nonet	138	462	300	9	0	0	243755	691	0	correct_rejection	NA	0
10	Nonet	139	463	301	7	0	0	244463	692	0	correct_rejection	NA	0
10	Nonet	140	464	302	8	0	0	245172	692	0	correct_rejection	NA	0
10	Nonet	141	465	303	9	0	0	245880	692	0	correct_rejection	NA	0
10	Nonet	142	466	304	0	1	3	246589	692	1	hit	295	0
10	Nonet	143	467	305	7	0	0	247298	691	0	correct_rejection	NA	0
10	Nonet	144	468	306	8	0	0	248006	692	0	correct_rejection	NA	0
10	Nonet	145	469	307	9	0	0	248715	691	0	correct_rejection	NA	0
10	Nonet	146	470	308	7	0	0	249423	692	0	correct_rejection	NA	0
10	Nonet	147	471	309	8	0	0	250132	692	0	correct_rejection	NA	0
10	Nonet	148	472	310	9	0	0	250840	692	0	correct_rejection	NA	0
10	Nonet	149	473	311	7	0	0	251549	692	0	correct_rejection	NA	0
10	Nonet	150	474	312	8	0	0	252258	691	0	correct_rejection	NA	0
10	Nonet	151	475	313	9	0	0	252966	692	0	correct_rejection	NA	0
10	Nonet	152	476	314	4	0	0	253675	691	0	correct_rejection	NA	0
10	Nonet	153	477	315	5	0	0	254383	692	0	correct_rejection	NA	0
10	Nonet	154	478	316	0	1	1	255092	692	1	hit	378	0
10	Nonet	155	479	317	6	0	0	255800	692	0	correct_rejection	NA	0
10	Nonet	156	480	318	4	0	0	256509	692	0	correct_rejection	NA	0
10	Nonet	157	481	319	0	1	1	257218	691	1	hit	458	0
10	Nonet	158	482	320	5	0	0	257926	692	0	correct_rejection	NA	0
10	Nonet	159	483	321	6	0	0	258635	691	0	correct_rejection	NA	0
10	Nonet	160	484	322	4	0	0	259343	692	0	correct_rejection	NA	0
10	Nonet	161	485	323	5	0	0	260052	692	0	correct_rejection	NA	0
10	Nonet	162	486	324	6	0	0	260760	692	0	correct_rejection	NA	0
10	Correct	1	163	325	4	0	0	269638	692	0	correct_rejection	NA	6488
10	Correct	2	164	326	5	0	0	270347	692	0	correct_rejection	NA	0
10	Correct	3	165	327	6	0	0	271055	692	0	correct_rejection	NA	0
10	Correct	4	166	328	4	0	0	271764	692	0	correct_rejection	NA	0
10	Correct	5	167	329	5	0	0	272473	691	0	correct_rejection	NA	0
10	Correct	6	168	330	6	0	0	273181	692	0	correct_rejection	NA	0
10	Correct	7	169	331	4	0	0	273890	691	0	correct_rejection	NA	0
10	Correct	8	170	332	0	1	1	274598	692	1	hit	330	0
10	Correct	9	171	333	5	0	0	275307	692	0	correct_rejection	NA	0
10	Correct	10	172	334	6	0	0	276015	692	0	correct_rejection	NA	0
10	Correct	11	173	335	6	0	0	276724	692	0	correct_rejection	NA	0
10	Correct	12	174	336	5	0	0	277433	691	0	correct_rejection	NA	0
10	Correct	13	175	337	4	0	0	278141	692	0	correct_rejection	NA	0
10	Correct	14	176	338	0	1	2	278850	691	1	hit	336	0
10	Correct	15	177	339	6	0	0	279558	692	0	correct_rejection	NA	0
10	Correct	16	178	340	5	0	0	280267	692	0	correct_rejection	NA	0
10	Correct	17	179	341	4	0	0	280975	692	0	correct_rejection	NA	0
10	Correct	18	180	342	6	0	0	281684	692	0	correct_rejection	NA	0
10	Correct	19	181	343	5	0	0	282393	691	0	correct_rejection	NA	0
10	Correct	20	182	344	4	0	0	283101	692	0	correct_rejection	NA	0
10	Correct	21	183	345	0	1	3	283810	691	1	hit	309	0
10	Correct	22	184	346	9	0	0	284518	692	0	correct_rejection	NA	0
10	Correct	23	185	347	8	0	0	285227	691	0	correct_rejection	NA	0
10	Correct	24	186	348	7	0	0	285935	692	0	correct_rejection	NA	0
10	Correct	25	187	349	0	1	2	286644	692	1	hit	328	0
10	Correct	26	188	350	9	0	0	287352	692	0	correct_rejection	NA	0
10	Correct	27	189	351	8	0	0	288061	692	0	correct_rejection	NA	0
10	Correct	28	190	352	0	1	1	288770	691	1	hit	326	0
10	Correct	29	191	353	7	0	0	289478	692	0	correct_rejection	NA	0
10	Correct	30	192	354	9	0	0	290187	691	0	correct_rejection	NA	0
10	Correct	31	193	355	8	0	0	290895	692	0	correct_rejection	NA	0
10	Correct	32	194	356	7	0	0	291604	692	0	correct_rejection	NA	0
10	Correct	33	195	357	0	1	3	292312	692	1	hit	318	0
10	Correct	34	196	358	7	0	0	293021	692	0	correct_rejection	NA	0
10	Correct	35	197	359	8	0	0	293730	691	0	correct_rejection	NA	0
10	Correct	36	198	360	9	0	0	294438	692	0	correct_rejection	NA	0
10	Correct	37	199	361	7	0	0	295147	691	0	correct_rejection	NA	0
10	Correct	38	200	362	8	0	0	295855	692	0	correct_rejection	NA	0
10	Correct	39	201	363	9	0	0	296564	692	0	correct_rejection	NA	0
10	Correct	40	202	364	7	0	0	297272	692	0	correct_rejection	NA	0
10	Correct	41	203	365	8	0	0	297981	692	0	correct_rejection	NA	0
10	Correct	42	204	366	9	0	0	298690	691	0	correct_rejection	NA	0
10	Correct	43	205	367	4	0	0	299398	692	0	correct_rejection	NA	0
10	Correct	44	206	368	5	0	0	300107	691	0	correct_rejection	NA	0
10	Correct	45	207	369	6	0	0	300815	692	0	correct_rejection	NA	0
10	Correct	46	208	370	4	0	0	301524	692	0	correct_rejection	NA	0
10	Correct	47	209	371	5	0	0	302232	692	0	correct_rejection	NA	0
10	Correct	48	210	372	6	0	0	302941	692	0	correct_rejection	NA	0
10	Correct	49	211	373	4	0	0	303650	691	0	correct_rejection	NA	0
10	Correct	50	212	374	5	0	0	304358	692	0	correct_rejection	NA	0
10	Correct	51	213	375	6	0	0	305067	691	0	correct_rejection	NA	0
10	Correct	52	214	376	6	0	0	305775	692	0	correct_rejection	NA	0
10	Correct	53	215	377	5	0	0	306484	691	0	correct_rejection	NA	0
10	Correct	54	216	378	4	0	0	307192	692	0	correct_rejection	NA	0
10	Correct	55	217	379	6	0	0	307901	692	0	correct_rejection	NA	0
10	Correct	56	218	380	5	0	0	308609	692	0	correct_rejection	NA	0
10	Correct	57	219	381	4	0	0	309318	692	0	correct_rejection	NA	0
10	Correct	58	220	382	6	0	0	310027	691	0	correct_rejection	NA	0
10	Correct	59	221	383	5	0	0	310735	692	0	correct_rejection	NA	0
10	Correct	60	222	384	0	1	1	311444	691	1	hit	627	0
10	Correct	61	223	385	4	0	0	312152	692	0	correct_rejection	NA	0
10	Correct	62	224	386	9	0	0	312861	692	0	correct_rejection	NA	0
10	Correct	63	225	387	0	1	1	313569	692	1	hit	349	0
10	Correct	64	226	388	8	0	0	314278	692	0	correct_rejection	NA	0
10	Correct	65	227	389	7	0	0	314987	691	0	correct_rejection	NA	0
10	Correct	66	228	390	9	0	0	315695	692	0	correct_rejection	NA	0
10	Correct	67	229	391	8	0	0	316404	691	0	correct_rejection	NA	0
10	Correct	68	230	392	7	0	0	317112	692	0	correct_rejection	NA	0
10	Correct	69	231	393	9	0	0	317821	692	0	correct_rejection	NA	0
10	Correct	70	232	394	8	0	0	318529	692	0	correct_rejection	NA	0
10	Correct	71	233	395	7	0	0	319238	692	0	correct_rejection	NA	0
10	Correct	72	234	396	7	0	0	319947	691	0	correct_rejection	NA	0
10	Correct	73	235	397	8	0	0	320655	692	0	correct_rejection	NA	0
10	Correct	74	236	398	0	1	1	321364	691	1	hit	382	0
10	Correct	75	237	399	9	0	0	322072	692	0	correct_rejection	NA	0
10	Correct	76	238	400	7	0	0	322781	692	0	correct_rejection	NA	0
10	Correct	77	239	401	0	1	1	323489	692	1	hit	337	0
10	Correct	78	240	402	8	0	0	324198	692	0	correct_rejection	NA	0
10	Correct	79	241	403	9	0	0	324907	691	0	correct_rejection	NA	0
10	Correct	80	242	404	7	0	0	325615	692	0	correct_rejection	NA	0
10	Correct	81	243	405	0	1	1	326324	691	1	hit	308	0
10	Correct	82	244	406	8	0	0	327032	692	0	correct_rejection	NA	0
10	Correct	83	245	407	9	0	0	327741	692	0	correct_rejection	NA	0
10	Correct	84	246	408	4	0	0	328449	692	0	correct_rejection	NA	0
10	Correct	85	247	409	5	0	0	329158	692	0	correct_rejection	NA	0
10	Correct	86	248	410	6	0	0	329867	691	0	correct_rejection	NA	0
10	Correct	87	249	411	0	1	2	330575	692	1	hit	334	0
10	Correct	88	250	412	4	0	0	331284	691	0	correct_rejection	NA	0
10	Correct	89	251	413	5	0	0	331992	692	0	correct_rejection	NA	0
10	Correct	90	252	414	6	0	0	332701	691	0	correct_rejection	NA	0
10	Correct	91	253	415	4	0	0	333409	692	0	correct_rejection	NA	0
10	Correct	92	254	416	5	0	0	334118	692	0	correct_rejection	NA	0
10	Correct	93	255	417	6	0	0	334826	692	0	correct_rejection	NA	0
10	Correct	94	256	418	6	0	0	335535	692	0	correct_rejection	NA	0
10	Correct	95	257	419	0	1	1	336244	691	1	hit	389	0
10	Correct	96	258	420	5	0	0	336952	692	0	correct_rejection	NA	0
10	Correct	97	259	421	4	0	0	337661	691	0	correct_rejection	NA	0
10	Correct	98	260	422	6	0	0	338369	692	0	correct_rejection	NA	0
10	Correct	99	261	423	5	0	0	339078	692	0	correct_rejection	NA	0
10	Correct	100	262	424	4	0	0	339786	692	0	correct_rejection	NA	0
10	Correct	101	263	425	6	0	0	340495	692	0	correct_rejection	NA	0
10	Correct	102	264	426	5	0	0	341204	691	0	correct_rejection	NA	0
10	Correct	103	265	427	4	0	0	341912	692	0	correct_rejection	NA	0
10	Correct	104	266	428	9	0	0	342621	691	0	correct_rejection	NA	0
10	Correct	105	267	429	8	0	0	343329	692	0	correct_rejection	NA	0
10	Correct	106	268	430	7	0	0	344038	692	0	correct_rejection	NA	0
10	Correct	107	269	431	9	0	0	344746	692	0	correct_rejection	NA	0
10	Correct	108	270	432	8	0	0	345455	692	0	correct_rejection	NA	0
10	Correct	109	271	433	7	0	0	346164	691	0	correct_rejection	NA	0
10	Correct	110	272	434	9	0	0	346872	692	0	correct_rejection	NA	0
10	Correct	111	273	435	8	0	0	347581	691	0	correct_rejection	NA	0
10	Correct	112	274	436	7	0	0	348289	692	0	correct_rejection	NA	0
10	Correct	113	275	437	7	0	0	348998	691	0	correct_rejection	NA	0
10	Correct	114	276	438	8	0	0	349706	692	0	correct_rejection	NA	0
10	Correct	115	277	439	0	1	1	350415	692	1	hit	347	0
10	Correct	116	278	440	9	0	0	351124	691	0	correct_rejection	NA	0
10	Correct	117	279	441	7	0	0	351832	692	0	correct_rejection	NA	0
10	Correct	118	280	442	8	0	0	352541	691	0	correct_rejection	NA	0
10	Correct	119	281	443	9	0	0	353249	692	0	correct_rejection	NA	0
10	Correct	120	282	444	0	1	2	353958	691	1	hit	406	0
10	Correct	121	283	445	7	0	0	354666	692	0	correct_rejection	NA	0
10	Correct	122	284	446	8	0	0	355375	692	0	correct_rejection	NA	0
10	Correct	123	285	447	9	0	0	356083	692	0	correct_rejection	NA	0
10	Correct	124	286	448	4	0	0	356792	692	0	correct_rejection	NA	0
10	Correct	125	287	449	5	0	0	357501	691	0	correct_rejection	NA	0
10	Correct	126	288	450	0	1	1	358209	692	0	miss	NA	0
10	Correct	127	289	451	6	0	0	358918	691	1	false_alarm	31	0
10	Correct	128	290	452	4	0	0	359626	692	0	correct_rejection	NA	0
10	Correct	129	291	453	5	0	0	360335	692	0	correct_rejection	NA	0
10	Correct	130	292	454	6	0	0	361043	692	0	correct_rejection	NA	0
10	Correct	131	293	455	4	0	0	361752	692	0	correct_rejection	NA	0
10	Correct	132	294	456	5	0	0	362461	691	0	correct_rejection	NA	0
10	Correct	133	295	457	6	0	0	363169	692	0	correct_rejection	NA	0
10	Correct	134	296	458	6	0	0	363878	691	0	correct_rejection	NA	0
10	Correct	135	297	459	5	0	0	364586	692	0	correct_rejection	NA	0
10	Correct	136	298	460	4	0	0	365295	692	0	correct_rejection	NA	0
10	Correct	137	299	461	6	0	0	366003	692	0	correct_rejection	NA	0
10	Correct	138	300	462	5	0	0	366712	692	0	correct_rejection	NA	0
10	Correct	139	301	463	4	0	0	367421	691	0	correct_rejection	NA	0
10	Correct	140	302	464	6	0	0	368129	692	0	correct_rejection	NA	0
10	Correct	141	303	465	5	0	0	368838	691	0	correct_rejection	NA	0
10	Correct	142	304	466	4	0	0	369546	692	0	correct_rejection	NA	0
10	Correct	143	305	467	9	0	0	370255	692	0	correct_rejection	NA	0
10	Correct	144	306	468	8	0	0	370963	692	0	correct_rejection	NA	0
10	Correct	145	307	469	7	0	0	371672	692	0	correct_rejection	NA	0
10	Correct	146	308	470	9	0	0	372381	691	0	correct_rejection	NA	0
10	Correct	147	309	471	8	0	0	373089	692	0	correct_rejection	NA	0
10	Correct	148	310	472	0	1	1	373798	691	1	hit	328	0
10	Correct	149	311	473	7	0	0	374506	692	0	correct_rejection	NA	0
10	Correct	150	312	474	9	0	0	375215	691	0	correct_rejection	NA	0
10	Correct	151	313	475	8	0	0	375923	692	0	correct_rejection	NA	0
10	Correct	152	314	476	7	0	0	376632	692	0	correct_rejection	NA	0
10	Correct	153	315	477	7	0	0	377340	692	0	correct_rejection	NA	0
10	Correct	154	316	478	0	1	1	378049	692	1	hit	351	0
10	Correct	155	317	479	8	0	0	378758	691	0	correct_rejection	NA	0
10	Correct	156	318	480	9	0	0	379466	692	0	correct_rejection	NA	0
10	Correct	157	319	481	7	0	0	380175	691	0	correct_rejection	NA	0
10	Correct	158	320	482	8	0	0	380883	692	0	correct_rejection	NA	0
10	Correct	159	321	483	9	0	0	381592	692	0	correct_rejection	NA	0
10	Correct	160	322	484	7	0	0	382300	692	0	correct_rejection	NA	0
10	Correct	161	323	485	8	0	0	383009	692	0	correct_rejection	NA	0
10	Correct	162	324	486	9	0	0	383718	691	0	correct_rejection	NA	0
10	Triplet	1	487	487	6	0	0	393371	691	0	correct_rejection	NA	7219
10	Triplet	2	488	488	5	0	0	394079	692	0	correct_rejection	NA	0
10	Triplet	3	489	489	4	0	0	394788	692	0	correct_rejection	NA	0
10	Triplet	4	490	490	4	0	0	395496	692	0	correct_rejection	NA	0
10	Triplet	5	491	491	5	0	0	396205	692	0	correct_rejection	NA	0
10	Triplet	6	492	492	6	0	0	396914	691	0	correct_rejection	NA	0
10	Triplet	7	493	493	9	0	0	397622	692	0	correct_rejection	NA	0
10	Triplet	8	494	494	8	0	0	398331	691	0	correct_rejection	NA	0
10	Triplet	9	495	495	7	0	0	399039	692	0	correct_rejection	NA	0
10	Triplet	10	496	496	0	1	2	399748	692	1	hit	346	0
10	Triplet	11	497	497	4	0	0	400456	692	0	correct_rejection	NA	0
10	Triplet	12	498	498	5	0	0	401165	692	0	correct_rejection	NA	0
10	Triplet	13	499	499	0	1	1	401874	691	1	hit	344	0
10	Triplet	14	500	500	6	0	0	402582	692	0	correct_rejection	NA	0
10	Triplet	15	501	501	6	0	0	403291	691	0	correct_rejection	NA	0
10	Triplet	16	502	502	5	0	0	403999	692	0	correct_rejection	NA	0
10	Triplet	17	503	503	0	1	1	404708	692	1	hit	324	0
10	Triplet	18	504	504	4	0	0	405416	692	0	correct_rejection	NA	0
10	Triplet	19	505	505	6	0	0	406125	692	0	correct_rejection	NA	0
10	Triplet	20	506	506	5	0	0	406834	691	0	correct_rejection	NA	0
10	Triplet	21	507	507	4	0	0	407542	692	0	correct_rejection	NA	0
10	Triplet	22	508	508	7	0	0	408251	691	0	correct_rejection	NA	0
10	Triplet	23	509	509	0	1	1	408959	692	1	hit	319	0
10	Triplet	24	510	510	8	0	0	409668	691	0	correct_rejection	NA	0
10	Triplet	25	511	511	9	0	0	410376	692	0	correct_rejection	NA	0
10	Triplet	26	512	512	6	0	0	411085	692	0	correct_rejection	NA	0
10	Triplet	27	513	513	0	1	1	411793	692	1	hit	321	0
10	Triplet	28	514	514	5	0	0	412502	692	0	correct_rejection	NA	0
10	Triplet	29	515	515	4	0	0	413211	691	0	correct_rejection	NA	0
10	Triplet	30	516	516	9	0	0	413919	692	0	correct_rejection	NA	0
10	Triplet	31	517	517	0	1	1	414628	691	1	hit	347	0
10	Triplet	32	518	518	8	0	0	415336	692	0	correct_rejection	NA	0
10	Triplet	33	519	519	7	0	0	416045	692	0	correct_rejection	NA	0
10	Triplet	34	520	520	9	0	0	416753	692	0	correct_rejection	NA	0
10	Triplet	35	521	521	8	0	0	417462	692	0	correct_rejection	NA	0
10	Triplet	36	522	522	0	1	1	418171	691	1	hit	419	0
10	Triplet	37	523	523	7	0	0	418879	692	0	correct_rejection	NA	0
10	Triplet	38	524	524	7	0	0	419588	691	0	correct_rejection	NA	0
10	Triplet	39	525	525	8	0	0	420296	692	0	correct_rejection	NA	0
10	Triplet	40	526	526	9	0	0	421005	692	0	correct_rejection	NA	0
10	Triplet	41	527	527	0	1	2	421713	692	1	hit	337	0
10	Triplet	42	528	528	4	0	0	422422	692	0	correct_rejection	NA	0
10	Triplet	43	529	529	5	0	0	423131	691	0	correct_rejection	NA	0
10	Triplet	44	530	530	6	0	0	423839	692	0	correct_rejection	NA	0
10	Triplet	45	531	531	4	0	0	424548	691	0	correct_rejection	NA	0
10	Triplet	46	532	532	5	0	0	425256	692	0	correct_rejection	NA	0
10	Triplet	47	533	533	6	0	0	425965	692	0	correct_rejection	NA	0
10	Triplet	48	534	534	7	0	0	426673	692	0	correct_rejection	NA	0
10	Triplet	49	535	535	8	0	0	427382	692	0	correct_rejection	NA	0
10	Triplet	50	536	536	9	0	0	428091	691	0	correct_rejection	NA	0
10	Triplet	51	537	537	7	0	0	428799	692	0	correct_rejection	NA	0
10	Triplet	52	538	538	8	0	0	429508	691	0	correct_rejection	NA	0
10	Triplet	53	539	539	0	1	1	430216	692	1	hit	393	0
10	Triplet	54	540	540	9	0	0	430925	691	0	correct_rejection	NA	0
10	Triplet	55	541	541	9	0	0	431633	692	0	correct_rejection	NA	0
10	Triplet	56	542	542	8	0	0	432342	692	0	correct_rejection	NA	0
10	Triplet	57	543	543	7	0	0	433051	691	0	correct_rejection	NA	0
10	Triplet	58	544	544	4	0	0	433759	692	0	correct_rejection	NA	0
10	Triplet	59	545	545	5	0	0	434468	691	0	correct_rejection	NA	0
10	Triplet	60	546	546	0	1	1	435176	692	1	hit	396	0
10	Triplet	61	547	547	6	0	0	435885	691	0	correct_rejection	NA	0
10	Triplet	62	548	548	7	0	0	436593	692	0	correct_rejection	NA	0
10	Triplet	63	549	549	8	0	0	437302	692	0	correct_rejection	NA	0
10	Triplet	64	550	550	9	0	0	438010	692	0	correct_rejection	NA	0
10	Triplet	65	551	551	6	0	0	438719	692	0	correct_rejection	NA	0
10	Triplet	66	552	552	0	1	1	439428	691	1	hit	380	0
10	Triplet	67	553	553	5	0	0	440136	692	0	correct_rejection	NA	0
10	Triplet	68	554	554	4	0	0	440845	691	0	correct_rejection	NA	0
10	Triplet	69	555	555	6	0	0	441553	692	0	correct_rejection	NA	0
10	Triplet	70	556	556	5	0	0	442262	692	0	correct_rejection	NA	0
10	Triplet	71	557	557	4	0	0	442970	692	0	correct_rejection	NA	0
10	Triplet	72	558	558	4	0	0	443679	692	0	correct_rejection	NA	0
10	Triplet	73	559	559	5	0	0	444388	691	0	correct_rejection	NA	0
10	Triplet	74	560	560	6	0	0	445096	692	0	correct_rejection	NA	0
10	Triplet	75	561	561	4	0	0	445805	691	0	correct_rejection	NA	0
10	Triplet	76	562	562	5	0	0	446513	692	0	correct_rejection	NA	0
10	Triplet	77	563	563	6	0	0	447222	692	0	correct_rejection	NA	0
10	Triplet	78	564	564	0	1	2	447930	692	1	hit	380	0
10	Triplet	79	565	565	6	0	0	448639	692	0	correct_rejection	NA	0
10	Triplet	80	566	566	5	0	0	449348	691	0	correct_rejection	NA	0
10	Triplet	81	567	567	4	0	0	450056	692	0	correct_rejection	NA	0
10	Triplet	82	568	568	7	0	0	450765	691	0	correct_rejection	NA	0
10	Triplet	83	569	569	0	1	1	451473	692	1	hit	368	0
10	Triplet	84	570	570	8	0	0	452182	692	0	correct_rejection	NA	0
10	Triplet	85	571	571	9	0	0	452890	692	0	correct_rejection	NA	0
10	Triplet	86	572	572	0	1	2	453599	692	1	hit	551	0
10	Triplet	87	573	573	9	0	0	454308	691	0	correct_rejection	NA	0
10	Triplet	88	574	574	8	0	0	455016	692	0	correct_rejection	NA	0
10	Triplet	89	575	575	0	1	1	455725	691	1	hit	349	0
10	Triplet	90	576	576	7	0	0	456433	692	0	correct_rejection	NA	0
10	Triplet	91	577	577	4	0	0	457142	691	0	correct_rejection	NA	0
10	Triplet	92	578	578	5	0	0	457850	692	0	correct_rejection	NA	0
10	Triplet	93	579	579	6	0	0	458559	692	0	correct_rejection	NA	0
10	Triplet	94	580	580	9	0	0	459267	692	0	correct_rejection	NA	0
10	Triplet	95	581	581	8	0	0	459976	692	0	correct_rejection	NA	0
10	Triplet	96	582	582	7	0	0	460685	691	0	correct_rejection	NA	0
10	Triplet	97	583	583	9	0	0	461393	692	0	correct_rejection	NA	0
10	Triplet	98	584	584	8	0	0	462102	691	0	correct_rejection	NA	0
10	Triplet	99	585	585	0	1	1	462810	692	1	hit	338	0
10	Triplet	100	586	586	7	0	0	463519	692	0	correct_rejection	NA	0
10	Triplet	101	587	587	6	0	0	464227	692	0	correct_rejection	NA	0
10	Triplet	102	588	588	5	0	0	464936	692	0	correct_rejection	NA	0
10	Triplet	103	589	589	4	0	0	465645	691	0	correct_rejection	NA	0
10	Triplet	104	590	590	9	0	0	466353	692	0	correct_rejection	NA	0
10	Triplet	105	591	591	8	0	0	467062	691	0	correct_rejection	NA	0
10	Triplet	106	592	592	7	0	0	467770	692	0	correct_rejection	NA	0
10	Triplet	107	593	593	7	0	0	468479	692	0	correct_rejection	NA	0
10	Triplet	108	594	594	8	0	0	469187	692	0	correct_rejection	NA	0
10	Triplet	109	595	595	9	0	0	469896	692	0	correct_rejection	NA	0
10	Triplet	110	596	596	7	0	0	470605	691	0	correct_rejection	NA	0
10	Triplet	111	597	597	8	0	0	471313	692	0	correct_rejection	NA	0
10	Triplet	112	598	598	9	0	0	472022	691	0	correct_rejection	NA	0
10	Triplet	113	599	599	6	0	0	472730	692	0	correct_rejection	NA	0
10	Triplet	114	600	600	5	0	0	473439	692	0	correct_rejection	NA	0
10	Triplet	115	601	601	4	0	0	474147	692	0	correct_rejection	NA	0
10	Triplet	116	602	602	0	1	2	474856	692	1	hit	355	0
10	Triplet	117	603	603	9	0	0	475565	691	0	correct_rejection	NA	0
10	Triplet	118	604	604	8	0	0	476273	692	0	correct_rejection	NA	0
10	Triplet	119	605	605	7	0	0	476982	691	0	correct_rejection	NA	0
10	Triplet	120	606	606	6	0	0	477690	692	0	correct_rejection	NA	0
10	Triplet	121	607	607	5	0	0	478399	691	0	correct_rejection	NA	0
10	Triplet	122	608	608	4	0	0	479107	692	0	correct_rejection	NA	0
10	Triplet	123	609	609	7	0	0	479816	692	0	correct_rejection	NA	0
10	Triplet	124	610	610	8	0	0	480524	692	0	correct_rejection	NA	0
10	Triplet	125	611	611	9	0	0	481233	692	0	correct_rejection	NA	0
10	Triplet	126	612	612	7	0	0	481942	691	0	correct_rejection	NA	0
10	Triplet	127	613	613	8	0	0	482650	692	0	correct_rejection	NA	0
10	Triplet	128	614	614	9	0	0	483359	691	0	correct_rejection	NA	0
10	Triplet	129	615	615	4	0	0	484067	692	0	correct_rejection	NA	0
10	Triplet	130	616	616	5	0	0	484776	692	0	correct_rejection	NA	0
10	Triplet	131	617	617	6	0	0	485484	692	0	correct_rejection	NA	0
10	Triplet	132	618	618	6	0	0	486193	692	0	correct_rejection	NA	0
10	Triplet	133	619	619	5	0	0	486902	691	0	correct_rejection	NA	0
10	Triplet	134	620	620	4	0	0	487610	692	0	correct_rejection	NA	0
10	Triplet	135	621	621	4	0	0	488319	691	0	correct_rejection	NA	0
10	Triplet	136	622	622	5	0	0	489027	692	0	correct_rejection	NA	0
10	Triplet	137	623	623	6	0	0	489736	692	0	correct_rejection	NA	0
10	Triplet	138	624	624	7	0	0	490444	692	0	correct_rejection	NA	0
10	Triplet	139	625	625	8	0	0	491153	692	0	correct_rejection	NA	0
10	Triplet	140	626	626	9	0	0	491862	691	0	correct_rejection	NA	0
10	Triplet	141	627	627	9	0	0	492570	692	0	correct_rejection	NA	0
10	Triplet	142	628	628	8	0	0	493279	691	0	correct_rejection	NA	0
10	Triplet	143	629	629	7	0	0	493987	692	0	correct_rejection	NA	0
10	Triplet	144	630	630	0	1	2	494696	692	1	hit	350	0
10	Triplet	145	631	631	9	0	0	495404	692	0	correct_rejection	NA	0
10	Triplet	146	632	632	8	0	0	496113	692	0	correct_rejection	NA	0
10	Triplet	147	633	633	7	0	0	496822	691	0	correct_rejection	NA	0
10	Triplet	148	634	634	4	0	0	497530	692	0	correct_rejection	NA	0
10	Triplet	149	635	635	5	0	0	498239	691	0	correct_rejection	NA	0
10	Triplet	150	636	636	6	0	0	498947	692	0	correct_rejection	NA	0
10	Triplet	151	637	637	4	0	0	499656	691	0	correct_rejection	NA	0
10	Triplet	152	638	638	5	0	0	500364	692	0	correct_rejection	NA	0
10	Triplet	153	639	639	6	0	0	501073	692	0	correct_rejection	NA	0
10	Triplet	154	640	640	9	0	0	501781	692	0	correct_rejection	NA	0
10	Triplet	155	641	641	8	0	0	502490	692	0	correct_rejection	NA	0
10	Triplet	156	642	642	7	0	0	503199	691	0	correct_rejection	NA	0
10	Triplet	157	643	643	7	0	0	503907	692	0	correct_rejection	NA	0
10	Triplet	158	644	644	8	0	0	504616	691	0	correct_rejection	NA	0
10	Triplet	159	645	645	9	0	0	505324	692	0	correct_rejection	NA	0
10	Triplet	160	646	646	6	0	0	506033	692	0	correct_rejection	NA	0
10	Triplet	161	647	647	5	0	0	506741	692	0	correct_rejection	NA	0
10	Triplet	162	648	648	4	0	0	507450	692	0	correct_rejection	NA	0
10	Single	1	487	649	7	0	0	517287	691	0	correct_rejection	NA	7149
10	Single	2	488	650	4	0	0	517995	692	0	correct_rejection	NA	0
10	Single	3	489	651	5	0	0	518704	691	0	correct_rejection	NA	0
10	Single	4	490	652	0	1	1	519412	692	1	hit	367	0
10	Single	5	491	653	5	0	0	520121	692	0	correct_rejection	NA	0
10	Single	6	492	654	7	0	0	520829	692	0	correct_rejection	NA	0
10	Single	7	493	655	6	0	0	521538	692	0	correct_rejection	NA	0
10	Single	8	494	656	4	0	0	522247	691	0	correct_rejection	NA	0
10	Single	9	495	657	9	0	0	522955	692	0	correct_rejection	NA	0
10	Single	10	496	658	0	1	1	523664	691	1	hit	383	0
10	Single	11	497	659	5	0	0	524372	692	0	correct_rejection	NA	0
10	Single	12	498	660	9	0	0	525081	692	0	correct_rejection	NA	0
10	Single	13	499	661	0	1	1	525789	692	1	hit	406	0
10	Single	14	500	662	4	0	0	526498	692	0	correct_rejection	NA	0
10	Single	15	501	663	8	0	0	527207	691	0	correct_rejection	NA	0
10	Single	16	502	664	5	0	0	527915	692	0	correct_rejection	NA	0
10	Single	17	503	665	8	0	0	528624	691	0	correct_rejection	NA	0
10	Single	18	504	666	4	0	0	529332	692	0	correct_rejection	NA	0
10	Single	19	505	667	7	0	0	530041	691	0	correct_rejection	NA	0
10	Single	20	506	668	8	0	0	530749	692	0	correct_rejection	NA	0
10	Single	21	507	669	6	0	0	531458	692	0	correct_rejection	NA	0
10	Single	22	508	670	8	0	0	532166	692	0	correct_rejection	NA	0
10	Single	23	509	671	9	0	0	532875	692	0	correct_rejection	NA	0
10	Single	24	510	672	7	0	0	533584	691	0	correct_rejection	NA	0
10	Single	25	511	673	0	1	1	534292	692	1	hit	388	0
10	Single	26	512	674	5	0	0	535001	691	0	correct_rejection	NA	0
10	Single	27	513	675	6	0	0	535709	692	0	correct_rejection	NA	0
10	Single	28	514	676	9	0	0	536418	692	0	correct_rejection	NA	0
10	Single	29	515	677	6	0	0	537126	692	0	correct_rejection	NA	0
10	Single	30	516	678	6	0	0	537835	692	0	correct_rejection	NA	0
10	Single	31	517	679	5	0	0	538544	691	0	correct_rejection	NA	0
10	Single	32	518	680	4	0	0	539252	692	0	correct_rejection	NA	0
10	Single	33	519	681	4	0	0	539961	691	0	correct_rejection	NA	0
10	Single	34	520	682	0	1	1	540669	692	1	hit	356	0
10	Single	35	521	683	6	0	0	541378	692	0	correct_rejection	NA	0
10	Single	36	522	684	7	0	0	542086	692	0	correct_rejection	NA	0
10	Single	37	523	685	7	0	0	542795	692	0	correct_rejection	NA	0
10	Single	38	524	686	9	0	0	543504	691	0	correct_rejection	NA	0
10	Single	39	525	687	9	0	0	544212	692	0	correct_rejection	NA	0
10	Single	40	526	688	8	0	0	544921	691	0	correct_rejection	NA	0
10	Single	41	527	689	8	0	0	545629	692	0	correct_rejection	NA	0
10	Single	42	528	690	5	0	0	546338	692	0	correct_rejection	NA	0
10	Single	43	529	691	9	0	0	547046	692	0	correct_rejection	NA	0
10	Single	44	530	692	9	0	0	547755	692	0	correct_rejection	NA	0
10	Single	45	531	693	7	0	0	548464	691	0	correct_rejection	NA	0
10	Single	46	532	694	0	1	1	549172	692	1	hit	350	0
10	Single	47	533	695	9	0	0	549881	691	0	correct_rejection	NA	0
10	Single	48	534	696	5	0	0	550589	692	0	correct_rejection	NA	0
10	Single	49	535	697	5	0	0	551298	691	0	correct_rejection	NA	0
10	Single	50	536	698	0	1	1	552006	692	1	hit	507	0
10	Single	51	537	699	8	0	0	552715	692	0	correct_rejection	NA	0
10	Single	52	538	700	7	0	0	553424	691	0	correct_rejection	NA	0
10	Single	53	539	701	5	0	0	554132	692	0	correct_rejection	NA	0
10	Single	54	540	702	4	0	0	554841	691	0	correct_rejection	NA	0
10	Single	55	541	703	5	0	0	555549	692	0	correct_rejection	NA	0
10	Single	56	542	704	7	0	0	556258	691	0	correct_rejection	NA	0
10	Single	57	543	705	7	0	0	556966	692	0	correct_rejection	NA	0
10	Single	58	544	706	4	0	0	557675	692	0	correct_rejection	NA	0
10	Single	59	545	707	9	0	0	558383	692	0	correct_rejection	NA	0
10	Single	60	546	708	6	0	0	559092	692	0	correct_rejection	NA	0
10	Single	61	547	709	7	0	0	559801	691	0	correct_rejection	NA	0
10	Single	62	548	710	8	0	0	560509	692	0	correct_rejection	NA	0
10	Single	63	549	711	4	0	0	561218	691	0	correct_rejection	NA	0
10	Single	64	550	712	6	0	0	561926	692	0	correct_rejection	NA	0
10	Single	65	551	713	5	0	0	562635	692	0	correct_rejection	NA	0
10	Single	66	552	714	6	0	0	563343	692	0	correct_rejection	NA	0
10	Single	67	553	715	6	0	0	564052	692	0	correct_rejection	NA	0
10	Single	68	554	716	9	0	0	564761	691	0	correct_rejection	NA	0
10	Single	69	555	717	8	0	0	565469	692	0	correct_rejection	NA	0
10	Single	70	556	718	9	0	0	566178	691	0	correct_rejection	NA	0
10	Single	71	557	719	4	0	0	566886	692	0	correct_rejection	NA	0
10	Single	72	558	720	4	0	0	567595	692	0	correct_rejection	NA	0
10	Single	73	559	721	8	0	0	568303	692	0	correct_rejection	NA	0
10	Single	74	560	722	6	0	0	569012	692	0	correct_rejection	NA	0
10	Single	75	561	723	4	0	0	569721	691	0	correct_rejection	NA	0
10	Single	76	562	724	7	0	0	570429	692	0	correct_rejection	NA	0
10	Single	77	563	725	6	0	0	571138	691	0	correct_rejection	NA	0
10	Single	78	564	726	8	0	0	571846	692	0	correct_rejection	NA	0
10	Single	79	565	727	8	0	0	572555	691	0	correct_rejection	NA	0
10	Single	80	566	728	4	0	0	573263	692	0	correct_rejection	NA	0
10	Single	81	567	729	7	0	0	573972	692	0	correct_rejection	NA	0
10	Single	82	568	730	5	0	0	574681	691	0	correct_rejection	NA	0
10	Single	83	569	731	5	0	0	575389	692	0	correct_rejection	NA	0
10	Single	84	570	732	4	0	0	576098	691	0	correct_rejection	NA	0
10	Single	85	571	733	0	1	1	576806	692	1	hit	371	0
10	Single	86	572	734	8	0	0	577515	691	0	correct_rejection	NA	0
10	Single	87	573	735	9	0	0	578223	692	0	correct_rejection	NA	0
10	Single	88	574	736	0	1	1	578932	692	1	hit	371	0
10	Single	89	575	737	6	0	0	579640	692	0	correct_rejection	NA	0
10	Single	90	576	738	9	0	0	580349	692	0	correct_rejection	NA	0
10	Single	91	577	739	9	0	0	581058	691	0	correct_rejection	NA	0
10	Single	92	578	740	5	0	0	581766	692	0	correct_rejection	NA	0
10	Single	93	579	741	8	0	0	582475	691	0	correct_rejection	NA	0
10	Single	94	580	742	5	0	0	583183	692	0	correct_rejection	NA	0
10	Single	95	581	743	6	0	0	583892	692	0	correct_rejection	NA	0
10	Single	96	582	744	7	0	0	584600	692	0	correct_rejection	NA	0
10	Single	97	583	745	9	0	0	585309	692	0	correct_rejection	NA	0
10	Single	98	584	746	4	0	0	586018	691	0	correct_rejection	NA	0
10	Single	99	585	747	6	0	0	586726	692	0	correct_rejection	NA	0
10	Single	100	586	748	8	0	0	587435	691	0	correct_rejection	NA	0
10	Single	101	587	749	0	1	1	588143	692	1	hit	309	0
10	Single	102	588	750	4	0	0	588852	692	0	correct_rejection	NA	0
10	Single	103	589	751	5	0	0	589560	692	0	correct_rejection	NA	0
10	Single	104	590	752	9	0	0	590269	692	0	correct_rejection	NA	0
10	Single	105	591	753	8	0	0	590978	691	0	correct_rejection	NA	0
10	Single	106	592	754	7	0	0	591686	692	0	correct_rejection	NA	0
10	Single	107	593	755	0	1	1	592395	691	1	hit	380	0
10	Single	108	594	756	6	0	0	593103	692	0	correct_rejection	NA	0
10	Single	109	595	757	6	0	0	593812	692	0	correct_rejection	NA	0
10	Single	110	596	758	4	0	0	594520	692	0	correct_rejection	NA	0
10	Single	111	597	759	0	1	1	595229	692	1	hit	454	0
10	Single	112	598	760	4	0	0	595938	691	0	correct_rejection	NA	0
10	Single	113	599	761	9	0	0	596646	692	0	correct_rejection	NA	0
10	Single	114	600	762	7	0	0	597355	691	0	correct_rejection	NA	0
10	Single	115	601	763	7	0	0	598063	692	0	correct_rejection	NA	0
10	Single	116	602	764	0	1	1	598772	691	1	hit	410	0
10	Single	117	603	765	8	0	0	599480	692	0	correct_rejection	NA	0
10	Single	118	604	766	8	0	0	600189	692	0	correct_rejection	NA	0
10	Single	119	605	767	6	0	0	600897	692	0	correct_rejection	NA	0
10	Single	120	606	768	5	0	0	601606	692	0	correct_rejection	NA	0
10	Single	121	607	769	7	0	0	602315	691	0	correct_rejection	NA	0
10	Single	122	608	770	0	1	1	603023	692	1	hit	366	0
10	Single	123	609	771	7	0	0	603732	691	0	correct_rejection	NA	0
10	Single	124	610	772	8	0	0	604440	692	0	correct_rejection	NA	0
10	Single	125	611	773	5	0	0	605149	692	0	correct_rejection	NA	0
10	Single	126	612	774	0	1	1	605857	692	1	hit	463	0
10	Single	127	613	775	7	0	0	606566	692	0	correct_rejection	NA	0
10	Single	128	614	776	6	0	0	607275	691	0	correct_rejection	NA	0
10	Single	129	615	777	4	0	0	607983	692	0	correct_rejection	NA	0
10	Single	130	616	778	5	0	0	608692	691	0	correct_rejection	NA	0
10	Single	131	617	779	5	0	0	609400	692	0	correct_rejection	NA	0
10	Single	132	618	780	6	0	0	610109	692	0	correct_rejection	NA	0
10	Single	133	619	781	8	0	0	610817	692	0	correct_rejection	NA	0
10	Single	134	620	782	0	1	1	611526	692	1	hit	341	0
10	Single	135	621	783	6	0	0	612235	691	0	correct_rejection	NA	0
10	Single	136	622	784	9	0	0	612943	692	0	correct_rejection	NA	0
10	Single	137	623	785	4	0	0	613652	691	0	correct_rejection	NA	0
10	Single	138	624	786	8	0	0	614360	692	0	correct_rejection	NA	0
10	Single	139	625	787	7	0	0	615069	692	0	correct_rejection	NA	0
10	Single	140	626	788	0	1	1	615777	692	1	hit	344	0
10	Single	141	627	789	4	0	0	616486	692	0	correct_rejection	NA	0
10	Single	142	628	790	6	0	0	617195	691	0	correct_rejection	NA	0
10	Single	143	629	791	6	0	0	617903	692	0	correct_rejection	NA	0
10	Single	144	630	792	7	0	0	618612	691	0	correct_rejection	NA	0
10	Single	145	631	793	5	0	0	619320	692	0	correct_rejection	NA	0
10	Single	146	632	794	8	0	0	620029	691	0	correct_rejection	NA	0
10	Single	147	633	795	9	0	0	620737	692	0	correct_rejection	NA	0
10	Single	148	634	796	8	0	0	621446	692	0	correct_rejection	NA	0
10	Single	149	635	797	8	0	0	622154	692	0	correct_rejection	NA	0
10	Single	150	636	798	4	0	0	622863	692	0	correct_rejection	NA	0
10	Single	151	637	799	9	0	0	623572	691	0	correct_rejection	NA	0
10	Single	152	638	800	5	0	0	624280	692	0	correct_rejection	NA	0
10	Single	153	639	801	4	0	0	624989	691	0	correct_rejection	NA	0
10	Single	154	640	802	4	0	0	625697	692	0	correct_rejection	NA	0
10	Single	155	641	803	7	0	0	626406	692	0	correct_rejection	NA	0
10	Single	156	642	804	9	0	0	627114	692	0	correct_rejection	NA	0
10	Single	157	643	805	9	0	0	627823	692	0	correct_rejection	NA	0
10	Single	158	644	806	6	0	0	628532	691	0	correct_rejection	NA	0
10	Single	159	645	807	5	0	0	629240	692	0	correct_rejection	NA	0
10	Single	160	646	808	0	1	1	629949	691	1	hit	527	0
10	Single	161	647	809	9	0	0	630657	692	0	correct_rejection	NA	0
10	Single	162	648	810	7	0	0	631366	692	0	correct_rejection	NA	0
trigger nr 620 at 633102
trigger nr 624 at 706736
10	Correct	1	649	811	4	0	0	714718	692	0	correct_rejection	NA	7948
10	Correct	2	650	812	5	0	0	715427	692	0	correct_rejection	NA	0
10	Correct	3	651	813	6	0	0	716135	692	0	correct_rejection	NA	0
10	Correct	4	652	814	4	0	0	716844	692	0	correct_rejection	NA	0
10	Correct	5	653	815	5	0	0	717553	691	0	correct_rejection	NA	0
10	Correct	6	654	816	6	0	0	718261	692	0	correct_rejection	NA	0
10	Correct	7	655	817	4	0	0	718970	691	0	correct_rejection	NA	0
10	Correct	8	656	818	5	0	0	719678	692	0	correct_rejection	NA	0
10	Correct	9	657	819	6	0	0	720387	692	0	correct_rejection	NA	0
10	Correct	10	658	820	6	0	0	721095	692	0	correct_rejection	NA	0
10	Correct	11	659	821	5	0	0	721804	692	0	correct_rejection	NA	0
10	Correct	12	660	822	4	0	0	722513	691	0	correct_rejection	NA	0
10	Correct	13	661	823	6	0	0	723221	692	0	correct_rejection	NA	0
10	Correct	14	662	824	5	0	0	723930	691	0	correct_rejection	NA	0
10	Correct	15	663	825	4	0	0	724638	692	0	correct_rejection	NA	0
10	Correct	16	664	826	6	0	0	725347	692	0	correct_rejection	NA	0
10	Correct	17	665	827	5	0	0	726055	692	0	correct_rejection	NA	0
10	Correct	18	666	828	4	0	0	726764	692	0	correct_rejection	NA	0
10	Correct	19	667	829	9	0	0	727473	691	0	correct_rejection	NA	0
10	Correct	20	668	830	8	0	0	728181	692	0	correct_rejection	NA	0
10	Correct	21	669	831	7	0	0	728890	691	0	correct_rejection	NA	0
10	Correct	22	670	832	0	1	2	729598	692	1	hit	413	0
10	Correct	23	671	833	9	0	0	730307	691	0	correct_rejection	NA	0
10	Correct	24	672	834	8	0	0	731015	692	0	correct_rejection	NA	0
10	Correct	25	673	835	7	0	0	731724	692	0	correct_rejection	NA	0
10	Correct	26	674	836	9	0	0	732432	692	0	correct_rejection	NA	0
10	Correct	27	675	837	8	0	0	733141	692	0	correct_rejection	NA	0
10	Correct	28	676	838	7	0	0	733850	691	0	correct_rejection	NA	0
10	Correct	29	677	839	7	0	0	734558	692	0	correct_rejection	NA	0
10	Correct	30	678	840	8	0	0	735267	691	0	correct_rejection	NA	0
10	Correct	31	679	841	9	0	0	735975	692	0	correct_rejection	NA	0
10	Correct	32	680	842	7	0	0	736684	692	0	correct_rejection	NA	0
10	Correct	33	681	843	8	0	0	737392	692	0	correct_rejection	NA	0
10	Correct	34	682	844	9	0	0	738101	692	0	correct_rejection	NA	0
10	Correct	35	683	845	0	1	2	738810	691	1	hit	448	0
10	Correct	36	684	846	7	0	0	739518	692	0	correct_rejection	NA	0
10	Correct	37	685	847	8	0	0	740227	691	0	correct_rejection	NA	0
10	Correct	38	686	848	9	0	0	740935	692	0	correct_rejection	NA	0
10	Correct	39	687	849	0	1	4	741644	692	1	hit	596	0
10	Correct	40	688	850	4	0	0	742352	692	0	correct_rejection	NA	0
10	Correct	41	689	851	5	0	0	743061	692	0	correct_rejection	NA	0
10	Correct	42	690	852	6	0	0	743770	691	0	correct_rejection	NA	0
10	Correct	43	691	853	4	0	0	744478	692	0	correct_rejection	NA	0
10	Correct	44	692	854	0	1	1	745187	691	1	hit	328	0
10	Correct	45	693	855	5	0	0	745895	692	0	correct_rejection	NA	0
10	Correct	46	694	856	6	0	0	746604	692	0	correct_rejection	NA	0
10	Correct	47	695	857	4	0	0	747312	692	0	correct_rejection	NA	0
10	Correct	48	696	858	5	0	0	748021	692	0	correct_rejection	NA	0
10	Correct	49	697	859	6	0	0	748730	691	0	correct_rejection	NA	0
10	Correct	50	698	860	6	0	0	749438	692	0	correct_rejection	NA	0
10	Correct	51	699	861	5	0	0	750147	691	0	correct_rejection	NA	0
10	Correct	52	700	862	4	0	0	750855	692	0	correct_rejection	NA	0
10	Correct	53	701	863	6	0	0	751564	691	0	correct_rejection	NA	0
10	Correct	54	702	864	5	0	0	752272	692	0	correct_rejection	NA	0
10	Correct	55	703	865	4	0	0	752981	692	0	correct_rejection	NA	0
10	Correct	56	704	866	6	0	0	753689	692	0	correct_rejection	NA	0
10	Correct	57	705	867	5	0	0	754398	692	0	correct_rejection	NA	0
10	Correct	58	706	868	0	1	1	755107	691	1	hit	352	0
10	Correct	59	707	869	4	0	0	755815	692	0	correct_rejection	NA	0
10	Correct	60	708	870	9	0	0	756524	691	0	correct_rejection	NA	0
10	Correct	61	709	871	8	0	0	757232	692	0	correct_rejection	NA	0
10	Correct	62	710	872	7	0	0	757941	692	0	correct_rejection	NA	0
10	Correct	63	711	873	9	0	0	758649	692	0	correct_rejection	NA	0
10	Correct	64	712	874	0	1	1	759358	692	1	hit	327	0
10	Correct	65	713	875	8	0	0	760067	691	0	correct_rejection	NA	0
10	Correct	66	714	876	7	0	0	760775	692	0	correct_rejection	NA	0
10	Correct	67	715	877	9	0	0	761484	691	0	correct_rejection	NA	0
10	Correct	68	716	878	8	0	0	762192	692	0	correct_rejection	NA	0
10	Correct	69	717	879	7	0	0	762901	692	0	correct_rejection	NA	0
10	Correct	70	718	880	7	0	0	763609	692	0	correct_rejection	NA	0
10	Correct	71	719	881	8	0	0	764318	692	0	correct_rejection	NA	0
10	Correct	72	720	882	9	0	0	765027	691	0	correct_rejection	NA	0
10	Correct	73	721	883	7	0	0	765735	692	0	correct_rejection	NA	0
10	Correct	74	722	884	8	0	0	766444	691	0	correct_rejection	NA	0
10	Correct	75	723	885	9	0	0	767152	692	0	correct_rejection	NA	0
10	Correct	76	724	886	7	0	0	767861	692	0	correct_rejection	NA	0
10	Correct	77	725	887	0	1	1	768569	692	1	hit	397	0
10	Correct	78	726	888	8	0	0	769278	692	0	correct_rejection	NA	0
10	Correct	79	727	889	9	0	0	769987	691	0	correct_rejection	NA	0
10	Correct	80	728	890	4	0	0	770695	692	0	correct_rejection	NA	0
10	Correct	81	729	891	5	0	0	771404	691	0	correct_rejection	NA	0
10	Correct	82	730	892	6	0	0	772112	692	0	correct_rejection	NA	0
10	Correct	83	731	893	4	0	0	772821	691	0	correct_rejection	NA	0
10	Correct	84	732	894	5	0	0	773529	692	0	correct_rejection	NA	0
10	Correct	85	733	895	6	0	0	774238	692	0	correct_rejection	NA	0
10	Correct	86	734	896	4	0	0	774946	692	0	correct_rejection	NA	0
10	Correct	87	735	897	5	0	0	775655	692	0	correct_rejection	NA	0
10	Correct	88	736	898	6	0	0	776364	691	0	correct_rejection	NA	0
10	Correct	89	737	899	6	0	0	777072	692	0	correct_rejection	NA	0
10	Correct	90	738	900	5	0	0	777781	691	0	correct_rejection	NA	0
10	Correct	91	739	901	4	0	0	778489	692	0	correct_rejection	NA	0
10	Correct	92	740	902	6	0	0	779198	692	0	correct_rejection	NA	0
10	Correct	93	741	903	0	1	1	779906	692	1	hit	347	0
10	Correct	94	742	904	5	0	0	780615	692	0	correct_rejection	NA	0
10	Correct	95	743	905	4	0	0	781324	691	0	correct_rejection	NA	0
10	Correct	96	744	906	6	0	0	782032	692	0	correct_rejection	NA	0
10	Correct	97	745	907	5	0	0	782741	691	0	correct_rejection	NA	0
10	Correct	98	746	908	4	0	0	783449	692	0	correct_rejection	NA	0
10	Correct	99	747	909	0	1	3	784158	692	1	hit	386	0
10	Correct	100	748	910	9	0	0	784866	692	0	correct_rejection	NA	0
10	Correct	101	749	911	8	0	0	785575	692	0	correct_rejection	NA	0
10	Correct	102	750	912	7	0	0	786284	691	0	correct_rejection	NA	0
10	Correct	103	751	913	9	0	0	786992	692	0	correct_rejection	NA	0
10	Correct	104	752	914	8	0	0	787701	691	0	correct_rejection	NA	0
10	Correct	105	753	915	7	0	0	788409	692	0	correct_rejection	NA	0
10	Correct	106	754	916	9	0	0	789118	692	0	correct_rejection	NA	0
10	Correct	107	755	917	8	0	0	789826	692	0	correct_rejection	NA	0
10	Correct	108	756	918	7	0	0	790535	692	0	correct_rejection	NA	0
10	Correct	109	757	919	0	1	3	791244	691	1	hit	397	0
10	Correct	110	758	920	7	0	0	791952	692	0	correct_rejection	NA	0
10	Correct	111	759	921	8	0	0	792661	691	0	correct_rejection	NA	0
10	Correct	112	760	922	9	0	0	793369	692	0	correct_rejection	NA	0
10	Correct	113	761	923	0	1	2	794078	691	1	hit	353	0
10	Correct	114	762	924	7	0	0	794786	692	0	correct_rejection	NA	0
10	Correct	115	763	925	8	0	0	795495	692	0	correct_rejection	NA	0
10	Correct	116	764	926	9	0	0	796204	691	0	correct_rejection	NA	0
10	Correct	117	765	927	7	0	0	796912	692	0	correct_rejection	NA	0
10	Correct	118	766	928	8	0	0	797621	691	0	correct_rejection	NA	0
10	Correct	119	767	929	9	0	0	798329	692	0	correct_rejection	NA	0
10	Correct	120	768	930	4	0	0	799038	691	0	correct_rejection	NA	0
10	Correct	121	769	931	0	1	1	799746	692	1	hit	342	0
10	Correct	122	770	932	5	0	0	800455	692	0	correct_rejection	NA	0
10	Correct	123	771	933	6	0	0	801163	692	0	correct_rejection	NA	0
10	Correct	124	772	934	4	0	0	801872	692	0	correct_rejection	NA	0
10	Correct	125	773	935	5	0	0	802581	691	0	correct_rejection	NA	0
10	Correct	126	774	936	0	1	1	803289	692	1	hit	394	0
10	Correct	127	775	937	6	0	0	803998	691	0	correct_rejection	NA	0
10	Correct	128	776	938	4	0	0	804706	692	0	correct_rejection	NA	0
10	Correct	129	777	939	5	0	0	805415	692	0	correct_rejection	NA	0
10	Correct	130	778	940	6	0	0	806123	692	0	correct_rejection	NA	0
10	Correct	131	779	941	6	0	0	806832	692	0	correct_rejection	NA	0
10	Correct	132	780	942	5	0	0	807541	691	0	correct_rejection	NA	0
10	Correct	133	781	943	0	1	1	808249	692	1	hit	322	0
10	Correct	134	782	944	4	0	0	808958	691	0	correct_rejection	NA	0
10	Correct	135	783	945	6	0	0	809666	692	0	correct_rejection	NA	0
10	Correct	136	784	946	0	1	1	810375	692	1	hit	355	0
10	Correct	137	785	947	5	0	0	811083	692	0	correct_rejection	NA	0
10	Correct	138	786	948	4	0	0	811792	692	0	correct_rejection	NA	0
10	Correct	139	787	949	6	0	0	812501	691	0	correct_rejection	NA	0
10	Correct	140	788	950	5	0	0	813209	692	0	correct_rejection	NA	0
10	Correct	141	789	951	4	0	0	813918	691	0	correct_rejection	NA	0
10	Correct	142	790	952	9	0	0	814626	692	0	correct_rejection	NA	0
10	Correct	143	791	953	8	0	0	815335	691	0	correct_rejection	NA	0
10	Correct	144	792	954	0	1	1	816043	692	1	hit	386	0
10	Correct	145	793	955	7	0	0	816752	692	0	correct_rejection	NA	0
10	Correct	146	794	956	9	0	0	817461	691	0	correct_rejection	NA	0
10	Correct	147	795	957	8	0	0	818169	692	0	correct_rejection	NA	0
10	Correct	148	796	958	7	0	0	818878	691	0	correct_rejection	NA	0
10	Correct	149	797	959	9	0	0	819586	692	0	correct_rejection	NA	0
10	Correct	150	798	960	8	0	0	820295	691	0	correct_rejection	NA	0
10	Correct	151	799	961	7	0	0	821003	692	0	correct_rejection	NA	0
10	Correct	152	800	962	7	0	0	821712	692	0	correct_rejection	NA	0
10	Correct	153	801	963	8	0	0	822420	692	0	correct_rejection	NA	0
10	Correct	154	802	964	9	0	0	823129	692	0	correct_rejection	NA	0
10	Correct	155	803	965	7	0	0	823838	691	0	correct_rejection	NA	0
10	Correct	156	804	966	8	0	0	824546	692	0	correct_rejection	NA	0
10	Correct	157	805	967	0	1	1	825255	691	1	hit	329	0
10	Correct	158	806	968	9	0	0	825963	692	0	correct_rejection	NA	0
10	Correct	159	807	969	7	0	0	826672	692	0	correct_rejection	NA	0
10	Correct	160	808	970	8	0	0	827380	692	0	correct_rejection	NA	0
10	Correct	161	809	971	0	1	1	828089	692	1	hit	396	0
10	Correct	162	810	972	9	0	0	828798	691	0	correct_rejection	NA	0
10	Nonet	1	1	973	9	0	0	837200	692	0	correct_rejection	NA	6428
10	Nonet	2	2	974	8	0	0	837909	692	0	correct_rejection	NA	0
10	Nonet	3	3	975	7	0	0	838617	692	0	correct_rejection	NA	0
10	Nonet	4	4	976	9	0	0	839326	692	0	correct_rejection	NA	0
10	Nonet	5	5	977	8	0	0	840035	691	0	correct_rejection	NA	0
10	Nonet	6	6	978	7	0	0	840743	692	0	correct_rejection	NA	0
10	Nonet	7	7	979	9	0	0	841452	691	0	correct_rejection	NA	0
10	Nonet	8	8	980	8	0	0	842160	692	0	correct_rejection	NA	0
10	Nonet	9	9	981	7	0	0	842869	692	0	correct_rejection	NA	0
10	Nonet	10	10	982	6	0	0	843577	692	0	correct_rejection	NA	0
10	Nonet	11	11	983	5	0	0	844286	692	0	correct_rejection	NA	0
10	Nonet	12	12	984	4	0	0	844995	691	0	correct_rejection	NA	0
10	Nonet	13	13	985	6	0	0	845703	692	0	correct_rejection	NA	0
10	Nonet	14	14	986	5	0	0	846412	691	0	correct_rejection	NA	0
10	Nonet	15	15	987	4	0	0	847120	692	0	correct_rejection	NA	0
10	Nonet	16	16	988	6	0	0	847829	692	0	correct_rejection	NA	0
10	Nonet	17	17	989	0	1	1	848537	692	1	hit	387	0
10	Nonet	18	18	990	5	0	0	849246	692	0	correct_rejection	NA	0
10	Nonet	19	19	991	4	0	0	849955	691	0	correct_rejection	NA	0
10	Nonet	20	20	992	6	0	0	850663	692	0	correct_rejection	NA	0
10	Nonet	21	21	993	5	0	0	851372	691	0	correct_rejection	NA	0
10	Nonet	22	22	994	0	1	1	852080	692	1	hit	351	0
10	Nonet	23	23	995	4	0	0	852789	692	0	correct_rejection	NA	0
10	Nonet	24	24	996	6	0	0	853497	692	0	correct_rejection	NA	0
10	Nonet	25	25	997	5	0	0	854206	692	0	correct_rejection	NA	0
10	Nonet	26	26	998	4	0	0	854915	691	0	correct_rejection	NA	0
10	Nonet	27	27	999	6	0	0	855623	692	0	correct_rejection	NA	0
10	Nonet	28	28	1000	5	0	0	856332	691	0	correct_rejection	NA	0
10	Nonet	29	29	1001	4	0	0	857040	692	0	correct_rejection	NA	0
10	Nonet	30	30	1002	9	0	0	857749	691	0	correct_rejection	NA	0
10	Nonet	31	31	1003	8	0	0	858457	692	0	correct_rejection	NA	0
10	Nonet	32	32	1004	0	1	1	859166	692	1	hit	343	0
10	Nonet	33	33	1005	7	0	0	859874	692	0	correct_rejection	NA	0
10	Nonet	34	34	1006	9	0	0	860583	692	0	correct_rejection	NA	0
10	Nonet	35	35	1007	8	0	0	861292	691	0	correct_rejection	NA	0
10	Nonet	36	36	1008	7	0	0	862000	692	0	correct_rejection	NA	0
10	Nonet	37	37	1009	9	0	0	862709	691	0	correct_rejection	NA	0
10	Nonet	38	38	1010	8	0	0	863417	692	0	correct_rejection	NA	0
10	Nonet	39	39	1011	7	0	0	864126	692	0	correct_rejection	NA	0
10	Nonet	40	40	1012	4	0	0	864834	692	0	correct_rejection	NA	0
10	Nonet	41	41	1013	5	0	0	865543	692	0	correct_rejection	NA	0
10	Nonet	42	42	1014	6	0	0	866252	691	0	correct_rejection	NA	0
10	Nonet	43	43	1015	0	1	2	866960	692	1	hit	424	0
10	Nonet	44	44	1016	4	0	0	867669	691	0	correct_rejection	NA	0
10	Nonet	45	45	1017	5	0	0	868377	692	0	correct_rejection	NA	0
10	Nonet	46	46	1018	6	0	0	869086	692	0	correct_rejection	NA	0
10	Nonet	47	47	1019	0	1	2	869794	692	1	hit	385	0
10	Nonet	48	48	1020	4	0	0	870503	692	0	correct_rejection	NA	0
10	Nonet	49	49	1021	5	0	0	871212	691	0	correct_rejection	NA	0
10	Nonet	50	50	1022	6	0	0	871920	692	0	correct_rejection	NA	0
10	Nonet	51	51	1023	4	0	0	872629	691	0	correct_rejection	NA	0
10	Nonet	52	52	1024	5	0	0	873337	692	0	correct_rejection	NA	0
10	Nonet	53	53	1025	0	1	1	874046	692	1	hit	394	0
10	Nonet	54	54	1026	6	0	0	874754	692	0	correct_rejection	NA	0
10	Nonet	55	55	1027	4	0	0	875463	692	0	correct_rejection	NA	0
10	Nonet	56	56	1028	5	0	0	876172	691	0	correct_rejection	NA	0
10	Nonet	57	57	1029	6	0	0	876880	692	0	correct_rejection	NA	0
10	Nonet	58	58	1030	4	0	0	877589	691	0	correct_rejection	NA	0
10	Nonet	59	59	1031	5	0	0	878297	692	0	correct_rejection	NA	0
10	Nonet	60	60	1032	6	0	0	879006	691	0	correct_rejection	NA	0
10	Nonet	61	61	1033	7	0	0	879714	692	0	correct_rejection	NA	0
10	Nonet	62	62	1034	8	0	0	880423	692	0	correct_rejection	NA	0
10	Nonet	63	63	1035	9	0	0	881131	692	0	correct_rejection	NA	0
10	Nonet	64	64	1036	7	0	0	881840	692	0	correct_rejection	NA	0
10	Nonet	65	65	1037	8	0	0	882549	691	0	correct_rejection	NA	0
10	Nonet	66	66	1038	0	1	1	883257	692	1	hit	307	0
10	Nonet	67	67	1039	9	0	0	883966	691	0	correct_rejection	NA	0
10	Nonet	68	68	1040	7	0	0	884674	692	0	correct_rejection	NA	0
10	Nonet	69	69	1041	8	0	0	885383	692	0	correct_rejection	NA	0
10	Nonet	70	70	1042	9	0	0	886091	692	0	correct_rejection	NA	0
10	Nonet	71	71	1043	4	0	0	886800	692	0	correct_rejection	NA	0
10	Nonet	72	72	1044	5	0	0	887509	691	0	correct_rejection	NA	0
10	Nonet	73	73	1045	6	0	0	888217	692	0	correct_rejection	NA	0
10	Nonet	74	74	1046	4	0	0	888926	691	0	correct_rejection	NA	0
10	Nonet	75	75	1047	5	0	0	889634	692	0	correct_rejection	NA	0
10	Nonet	76	76	1048	6	0	0	890343	692	0	correct_rejection	NA	0
10	Nonet	77	77	1049	4	0	0	891051	692	0	correct_rejection	NA	0
10	Nonet	78	78	1050	5	0	0	891760	692	0	correct_rejection	NA	0
10	Nonet	79	79	1051	6	0	0	892469	691	0	correct_rejection	NA	0
10	Nonet	80	80	1052	9	0	0	893177	692	0	correct_rejection	NA	0
10	Nonet	81	81	1053	8	0	0	893886	691	0	correct_rejection	NA	0
10	Nonet	82	82	1054	0	1	1	894594	692	1	hit	610	0
10	Nonet	83	83	1055	7	0	0	895303	692	0	correct_rejection	NA	0
10	Nonet	84	84	1056	9	0	0	896011	692	0	correct_rejection	NA	0
10	Nonet	85	85	1057	8	0	0	896720	692	0	correct_rejection	NA	0
10	Nonet	86	86	1058	0	1	1	897429	691	1	hit	340	0
10	Nonet	87	87	1059	7	0	0	898137	692	0	correct_rejection	NA	0
10	Nonet	88	88	1060	9	0	0	898846	691	0	correct_rejection	NA	0
10	Nonet	89	89	1061	8	0	0	899554	692	0	correct_rejection	NA	0
10	Nonet	90	90	1062	7	0	0	900263	691	0	correct_rejection	NA	0
10	Nonet	91	91	1063	0	1	3	900971	692	1	hit	333	0
10	Nonet	92	92	1064	9	0	0	901680	692	0	correct_rejection	NA	0
10	Nonet	93	93	1065	8	0	0	902388	692	0	correct_rejection	NA	0
10	Nonet	94	94	1066	7	0	0	903097	692	0	correct_rejection	NA	0
10	Nonet	95	95	1067	9	0	0	903806	691	0	correct_rejection	NA	0
10	Nonet	96	96	1068	8	0	0	904514	692	0	correct_rejection	NA	0
10	Nonet	97	97	1069	7	0	0	905223	691	0	correct_rejection	NA	0
10	Nonet	98	98	1070	9	0	0	905931	692	0	correct_rejection	NA	0
10	Nonet	99	99	1071	8	0	0	906640	692	0	correct_rejection	NA	0
10	Nonet	100	100	1072	7	0	0	907348	692	0	correct_rejection	NA	0
10	Nonet	101	101	1073	7	0	0	908057	692	0	correct_rejection	NA	0
10	Nonet	102	102	1074	0	1	1	908766	691	1	hit	341	0
10	Nonet	103	103	1075	8	0	0	909474	692	0	correct_rejection	NA	0
10	Nonet	104	104	1076	9	0	0	910183	691	0	correct_rejection	NA	0
10	Nonet	105	105	1077	7	0	0	910891	692	0	correct_rejection	NA	0
10	Nonet	106	106	1078	8	0	0	911600	692	0	correct_rejection	NA	0
10	Nonet	107	107	1079	9	0	0	912308	692	0	correct_rejection	NA	0
10	Nonet	108	108	1080	7	0	0	913017	692	0	correct_rejection	NA	0
10	Nonet	109	109	1081	8	0	0	913726	691	0	correct_rejection	NA	0
10	Nonet	110	110	1082	9	0	0	914434	692	0	correct_rejection	NA	0
10	Nonet	111	111	1083	6	0	0	915143	691	0	correct_rejection	NA	0
10	Nonet	112	112	1084	5	0	0	915851	692	0	correct_rejection	NA	0
10	Nonet	113	113	1085	0	1	1	916560	692	1	hit	370	0
10	Nonet	114	114	1086	4	0	0	917268	692	0	correct_rejection	NA	0
10	Nonet	115	115	1087	6	0	0	917977	692	0	correct_rejection	NA	0
10	Nonet	116	116	1088	5	0	0	918686	691	0	correct_rejection	NA	0
10	Nonet	117	117	1089	4	0	0	919394	692	0	correct_rejection	NA	0
10	Nonet	118	118	1090	0	1	2	920103	691	1	hit	289	0
10	Nonet	119	119	1091	6	0	0	920811	692	0	correct_rejection	NA	0
10	Nonet	120	120	1092	5	0	0	921520	691	0	correct_rejection	NA	0
10	Nonet	121	121	1093	4	0	0	922228	692	0	correct_rejection	NA	0
10	Nonet	122	122	1094	4	0	0	922937	692	0	correct_rejection	NA	0
10	Nonet	123	123	1095	5	0	0	923646	691	0	correct_rejection	NA	0
10	Nonet	124	124	1096	6	0	0	924354	692	0	correct_rejection	NA	0
10	Nonet	125	125	1097	4	0	0	925063	691	0	correct_rejection	NA	0
10	Nonet	126	126	1098	5	0	0	925771	692	0	correct_rejection	NA	0
10	Nonet	127	127	1099	0	1	1	926480	691	1	hit	315	0
10	Nonet	128	128	1100	6	0	0	927188	692	0	correct_rejection	NA	0
10	Nonet	129	129	1101	4	0	0	927897	692	0	correct_rejection	NA	0
10	Nonet	130	130	1102	0	1	1	928605	692	1	hit	303	0
10	Nonet	131	131	1103	5	0	0	929314	692	0	correct_rejection	NA	0
10	Nonet	132	132	1104	6	0	0	930023	691	0	correct_rejection	NA	0
10	Nonet	133	133	1105	6	0	0	930731	692	0	correct_rejection	NA	0
10	Nonet	134	134	1106	5	0	0	931440	691	0	correct_rejection	NA	0
10	Nonet	135	135	1107	4	0	0	932148	692	0	correct_rejection	NA	0
10	Nonet	136	136	1108	6	0	0	932857	692	0	correct_rejection	NA	0
10	Nonet	137	137	1109	5	0	0	933565	692	0	correct_rejection	NA	0
10	Nonet	138	138	1110	4	0	0	934274	692	0	correct_rejection	NA	0
10	Nonet	139	139	1111	6	0	0	934983	691	0	correct_rejection	NA	0
10	Nonet	140	140	1112	5	0	0	935691	692	0	correct_rejection	NA	0
10	Nonet	141	141	1113	4	0	0	936400	691	0	correct_rejection	NA	0
10	Nonet	142	142	1114	7	0	0	937108	692	0	correct_rejection	NA	0
10	Nonet	143	143	1115	8	0	0	937817	692	0	correct_rejection	NA	0
10	Nonet	144	144	1116	0	1	1	938525	692	1	hit	306	0
10	Nonet	145	145	1117	9	0	0	939234	692	0	correct_rejection	NA	0
10	Nonet	146	146	1118	7	0	0	939943	691	0	correct_rejection	NA	0
10	Nonet	147	147	1119	8	0	0	940651	692	0	correct_rejection	NA	0
10	Nonet	148	148	1120	9	0	0	941360	691	0	correct_rejection	NA	0
10	Nonet	149	149	1121	0	1	2	942068	692	1	hit	347	0
10	Nonet	150	150	1122	7	0	0	942777	692	0	correct_rejection	NA	0
10	Nonet	151	151	1123	8	0	0	943485	692	0	correct_rejection	NA	0
10	Nonet	152	152	1124	9	0	0	944194	692	0	correct_rejection	NA	0
10	Nonet	153	153	1125	7	0	0	944902	692	0	correct_rejection	NA	0
10	Nonet	154	154	1126	8	0	0	945611	692	0	correct_rejection	NA	0
10	Nonet	155	155	1127	9	0	0	946320	691	0	correct_rejection	NA	0
10	Nonet	156	156	1128	7	0	0	947028	692	0	correct_rejection	NA	0
10	Nonet	157	157	1129	8	0	0	947737	691	0	correct_rejection	NA	0
10	Nonet	158	158	1130	9	0	0	948445	692	0	correct_rejection	NA	0
10	Nonet	159	159	1131	0	1	2	949154	692	1	hit	305	0
10	Nonet	160	160	1132	7	0	0	949862	692	0	correct_rejection	NA	0
10	Nonet	161	161	1133	8	0	0	950571	692	0	correct_rejection	NA	0
10	Nonet	162	162	1134	9	0	0	951280	691	0	correct_rejection	NA	0
10	Single	1	325	1135	9	0	0	961383	692	0	correct_rejection	NA	7609
10	Single	2	326	1136	5	0	0	962091	692	0	correct_rejection	NA	0
10	Single	3	327	1137	7	0	0	962800	692	0	correct_rejection	NA	0
10	Single	4	328	1138	6	0	0	963509	691	0	correct_rejection	NA	0
10	Single	5	329	1139	0	1	1	964217	692	1	hit	287	0
10	Single	6	330	1140	9	0	0	964926	691	0	correct_rejection	NA	0
10	Single	7	331	1141	4	0	0	965634	692	0	correct_rejection	NA	0
10	Single	8	332	1142	4	0	0	966343	692	0	correct_rejection	NA	0
10	Single	9	333	1143	7	0	0	967051	692	0	correct_rejection	NA	0
10	Single	10	334	1144	8	0	0	967760	692	0	correct_rejection	NA	0
10	Single	11	335	1145	5	0	0	968469	691	0	correct_rejection	NA	0
10	Single	12	336	1146	9	0	0	969177	692	0	correct_rejection	NA	0
10	Single	13	337	1147	0	1	1	969886	691	1	hit	313	0
10	Single	14	338	1148	8	0	0	970594	692	0	correct_rejection	NA	0
10	Single	15	339	1149	6	0	0	971303	692	0	correct_rejection	NA	0
10	Single	16	340	1150	7	0	0	972011	692	0	correct_rejection	NA	0
10	Single	17	341	1151	4	0	0	972720	692	0	correct_rejection	NA	0
10	Single	18	342	1152	0	1	1	973429	691	1	hit	395	0
10	Single	19	343	1153	5	0	0	974137	692	0	correct_rejection	NA	0
10	Single	20	344	1154	8	0	0	974846	691	0	correct_rejection	NA	0
10	Single	21	345	1155	8	0	0	975554	692	0	correct_rejection	NA	0
10	Single	22	346	1156	9	0	0	976263	692	0	correct_rejection	NA	0
10	Single	23	347	1157	7	0	0	976971	692	0	correct_rejection	NA	0
10	Single	24	348	1158	5	0	0	977680	692	0	correct_rejection	NA	0
10	Single	25	349	1159	5	0	0	978389	691	0	correct_rejection	NA	0
10	Single	26	350	1160	4	0	0	979097	692	0	correct_rejection	NA	0
10	Single	27	351	1161	9	0	0	979806	691	0	correct_rejection	NA	0
10	Single	28	352	1162	9	0	0	980514	692	0	correct_rejection	NA	0
10	Single	29	353	1163	6	0	0	981223	691	0	correct_rejection	NA	0
10	Single	30	354	1164	8	0	0	981931	692	0	correct_rejection	NA	0
10	Single	31	355	1165	4	0	0	982640	692	0	correct_rejection	NA	0
10	Single	32	356	1166	6	0	0	983349	691	0	correct_rejection	NA	0
10	Single	33	357	1167	0	1	1	984057	692	1	hit	334	0
10	Single	34	358	1168	6	0	0	984766	691	0	correct_rejection	NA	0
10	Single	35	359	1169	5	0	0	985474	692	0	correct_rejection	NA	0
10	Single	36	360	1170	6	0	0	986183	691	0	correct_rejection	NA	0
10	Single	37	361	1171	4	0	0	986891	692	0	correct_rejection	NA	0
10	Single	38	362	1172	8	0	0	987600	692	0	correct_rejection	NA	0
10	Single	39	363	1173	7	0	0	988308	692	0	correct_rejection	NA	0
10	Single	40	364	1174	7	0	0	989017	692	0	correct_rejection	NA	0
10	Single	41	365	1175	5	0	0	989726	691	0	correct_rejection	NA	0
10	Single	42	366	1176	8	0	0	990434	692	0	correct_rejection	NA	0
10	Single	43	367	1177	4	0	0	991143	691	0	correct_rejection	NA	0
10	Single	44	368	1178	5	0	0	991851	692	0	correct_rejection	NA	0
10	Single	45	369	1179	6	0	0	992560	692	0	correct_rejection	NA	0
10	Single	46	370	1180	8	0	0	993268	692	0	correct_rejection	NA	0
10	Single	47	371	1181	6	0	0	993977	692	0	correct_rejection	NA	0
10	Single	48	372	1182	6	0	0	994686	691	0	correct_rejection	NA	0
10	Single	49	373	1183	0	1	1	995394	692	1	hit	389	0
10	Single	50	374	1184	4	0	0	996103	691	0	correct_rejection	NA	0
10	Single	51	375	1185	7	0	0	996811	692	0	correct_rejection	NA	0
10	Single	52	376	1186	9	0	0	997520	692	0	correct_rejection	NA	0
10	Single	53	377	1187	0	1	1	998228	692	1	hit	374	0
10	Single	54	378	1188	7	0	0	998937	692	0	correct_rejection	NA	0
10	Single	55	379	1189	7	0	0	999646	691	0	correct_rejection	NA	0
10	Single	56	380	1190	8	0	0	1000354	692	0	correct_rejection	NA	0
10	Single	57	381	1191	0	1	1	1001063	691	1	hit	346	0
10	Single	58	382	1192	7	0	0	1001771	692	0	correct_rejection	NA	0
10	Single	59	383	1193	4	0	0	1002480	692	0	correct_rejection	NA	0
10	Single	60	384	1194	0	1	1	1003188	692	1	hit	335	0
10	Single	61	385	1195	9	0	0	1003897	692	0	correct_rejection	NA	0
10	Single	62	386	1196	8	0	0	1004606	691	0	correct_rejection	NA	0
10	Single	63	387	1197	9	0	0	1005314	692	0	correct_rejection	NA	0
10	Single	64	388	1198	5	0	0	1006023	691	0	correct_rejection	NA	0
10	Single	65	389	1199	5	0	0	1006731	692	0	correct_rejection	NA	0
10	Single	66	390	1200	7	0	0	1007440	691	0	correct_rejection	NA	0
10	Single	67	391	1201	5	0	0	1008148	692	0	correct_rejection	NA	0
10	Single	68	392	1202	9	0	0	1008857	692	0	correct_rejection	NA	0
10	Single	69	393	1203	6	0	0	1009565	692	0	correct_rejection	NA	0
10	Single	70	394	1204	9	0	0	1010274	692	0	correct_rejection	NA	0
10	Single	71	395	1205	9	0	0	1010983	691	0	correct_rejection	NA	0
10	Single	72	396	1206	4	0	0	1011691	692	0	correct_rejection	NA	0
10	Single	73	397	1207	6	0	0	1012400	691	0	correct_rejection	NA	0
10	Single	74	398	1208	7	0	0	1013108	692	0	correct_rejection	NA	0
10	Single	75	399	1209	6	0	0	1013817	692	0	correct_rejection	NA	0
10	Single	76	400	1210	5	0	0	1014525	692	0	correct_rejection	NA	0
10	Single	77	401	1211	0	1	1	1015234	692	1	hit	329	0
10	Single	78	402	1212	4	0	0	1015943	691	0	correct_rejection	NA	0
10	Single	79	403	1213	4	0	0	1016651	692	0	correct_rejection	NA	0
10	Single	80	404	1214	8	0	0	1017360	691	0	correct_rejection	NA	0
10	Single	81	405	1215	8	0	0	1018068	692	0	correct_rejection	NA	0
10	Single	82	406	1216	0	1	1	1018777	692	1	hit	353	0
10	Single	83	407	1217	8	0	0	1019485	692	0	correct_rejection	NA	0
10	Single	84	408	1218	4	0	0	1020194	692	0	correct_rejection	NA	0
10	Single	85	409	1219	9	0	0	1020903	691	0	correct_rejection	NA	0
10	Single	86	410	1220	7	0	0	1021611	692	0	correct_rejection	NA	0
10	Single	87	411	1221	4	0	0	1022320	691	0	correct_rejection	NA	0
10	Single	88	412	1222	8	0	0	1023028	692	0	correct_rejection	NA	0
10	Single	89	413	1223	9	0	0	1023737	692	0	correct_rejection	NA	0
10	Single	90	414	1224	4	0	0	1024445	692	0	correct_rejection	NA	0
10	Single	91	415	1225	7	0	0	1025154	692	0	correct_rejection	NA	0
10	Single	92	416	1226	6	0	0	1025863	691	0	correct_rejection	NA	0
10	Single	93	417	1227	6	0	0	1026571	692	0	correct_rejection	NA	0
10	Single	94	418	1228	0	1	1	1027280	691	1	hit	417	0
10	Single	95	419	1229	8	0	0	1027988	692	0	correct_rejection	NA	0
10	Single	96	420	1230	8	0	0	1028697	691	0	correct_rejection	NA	0
10	Single	97	421	1231	5	0	0	1029405	692	0	correct_rejection	NA	0
10	Single	98	422	1232	5	0	0	1030114	692	0	correct_rejection	NA	0
10	Single	99	423	1233	6	0	0	1030822	692	0	correct_rejection	NA	0
10	Single	100	424	1234	0	1	1	1031531	692	1	hit	417	0
10	Single	101	425	1235	7	0	0	1032240	691	0	correct_rejection	NA	0
10	Single	102	426	1236	9	0	0	1032948	692	0	correct_rejection	NA	0
10	Single	103	427	1237	6	0	0	1033657	691	0	correct_rejection	NA	0
10	Single	104	428	1238	4	0	0	1034365	692	0	correct_rejection	NA	0
10	Single	105	429	1239	4	0	0	1035074	692	0	correct_rejection	NA	0
10	Single	106	430	1240	6	0	0	1035782	692	0	correct_rejection	NA	0
10	Single	107	431	1241	9	0	0	1036491	692	0	correct_rejection	NA	0
10	Single	108	432	1242	5	0	0	1037200	691	0	correct_rejection	NA	0
10	Single	109	433	1243	4	0	0	1037908	692	0	correct_rejection	NA	0
10	Single	110	434	1244	5	0	0	1038617	691	0	correct_rejection	NA	0
10	Single	111	435	1245	9	0	0	1039325	692	0	correct_rejection	NA	0
10	Single	112	436	1246	9	0	0	1040034	692	0	correct_rejection	NA	0
10	Single	113	437	1247	8	0	0	1040742	692	0	correct_rejection	NA	0
10	Single	114	438	1248	7	0	0	1041451	692	0	correct_rejection	NA	0
10	Single	115	439	1249	8	0	0	1042160	691	0	correct_rejection	NA	0
10	Single	116	440	1250	6	0	0	1042868	692	0	correct_rejection	NA	0
10	Single	117	441	1251	5	0	0	1043577	691	0	correct_rejection	NA	0
10	Single	118	442	1252	7	0	0	1044285	692	0	correct_rejection	NA	0
10	Single	119	443	1253	7	0	0	1044994	692	0	correct_rejection	NA	0
10	Single	120	444	1254	5	0	0	1045702	692	0	correct_rejection	NA	0
10	Single	121	445	1255	8	0	0	1046411	692	0	correct_rejection	NA	0
10	Single	122	446	1256	7	0	0	1047120	691	0	correct_rejection	NA	0
10	Single	123	447	1257	9	0	0	1047828	692	0	correct_rejection	NA	0
10	Single	124	448	1258	0	1	1	1048537	691	1	hit	359	0
10	Single	125	449	1259	9	0	0	1049245	692	0	correct_rejection	NA	0
10	Single	126	450	1260	6	0	0	1049954	691	0	correct_rejection	NA	0
10	Single	127	451	1261	0	1	1	1050662	692	1	hit	434	0
10	Single	128	452	1262	5	0	0	1051371	692	0	correct_rejection	NA	0
10	Single	129	453	1263	5	0	0	1052079	692	0	correct_rejection	NA	0
10	Single	130	454	1264	9	0	0	1052788	692	0	correct_rejection	NA	0
10	Single	131	455	1265	4	0	0	1053497	691	0	correct_rejection	NA	0
10	Single	132	456	1266	9	0	0	1054205	692	0	correct_rejection	NA	0
10	Single	133	457	1267	5	0	0	1054914	691	0	correct_rejection	NA	0
10	Single	134	458	1268	7	0	0	1055622	692	0	correct_rejection	NA	0
10	Single	135	459	1269	4	0	0	1056331	692	0	correct_rejection	NA	0
10	Single	136	460	1270	4	0	0	1057039	692	0	correct_rejection	NA	0
10	Single	137	461	1271	5	0	0	1057748	692	0	correct_rejection	NA	0
10	Single	138	462	1272	8	0	0	1058457	691	0	correct_rejection	NA	0
10	Single	139	463	1273	8	0	0	1059165	692	0	correct_rejection	NA	0
10	Single	140	464	1274	0	1	1	1059874	691	1	hit	457	0
10	Single	141	465	1275	9	0	0	1060582	692	0	correct_rejection	NA	0
10	Single	142	466	1276	7	0	0	1061291	692	0	correct_rejection	NA	0
10	Single	143	467	1277	8	0	0	1061999	692	0	correct_rejection	NA	0
10	Single	144	468	1278	4	0	0	1062708	692	0	correct_rejection	NA	0
10	Single	145	469	1279	8	0	0	1063417	691	0	correct_rejection	NA	0
10	Single	146	470	1280	6	0	0	1064125	692	0	correct_rejection	NA	0
10	Single	147	471	1281	9	0	0	1064834	691	0	correct_rejection	NA	0
10	Single	148	472	1282	8	0	0	1065542	692	0	correct_rejection	NA	0
10	Single	149	473	1283	0	1	1	1066251	692	1	hit	381	0
10	Single	150	474	1284	5	0	0	1066959	692	0	correct_rejection	NA	0
10	Single	151	475	1285	4	0	0	1067668	692	0	correct_rejection	NA	0
10	Single	152	476	1286	0	1	1	1068377	691	1	hit	348	0
10	Single	153	477	1287	7	0	0	1069085	692	0	correct_rejection	NA	0
10	Single	154	478	1288	5	0	0	1069794	691	0	correct_rejection	NA	0
10	Single	155	479	1289	0	1	1	1070502	692	1	hit	399	0
10	Single	156	480	1290	6	0	0	1071211	691	0	correct_rejection	NA	0
10	Single	157	481	1291	6	0	0	1071919	692	0	correct_rejection	NA	0
10	Single	158	482	1292	7	0	0	1072628	692	0	correct_rejection	NA	0
10	Single	159	483	1293	7	0	0	1073336	692	0	correct_rejection	NA	0
10	Single	160	484	1294	6	0	0	1074045	692	0	correct_rejection	NA	0
10	Single	161	485	1295	4	0	0	1074754	691	0	correct_rejection	NA	0
10	Single	162	486	1296	6	0	0	1075462	692	0	correct_rejection	NA	0
10	Triplet	1	163	1297	6	0	0	1085657	692	0	correct_rejection	NA	7898
10	Triplet	2	164	1298	5	0	0	1086366	691	0	correct_rejection	NA	0
10	Triplet	3	165	1299	4	0	0	1087074	692	0	correct_rejection	NA	0
10	Triplet	4	166	1300	0	1	2	1087783	692	1	hit	416	0
10	Triplet	5	167	1301	6	0	0	1088491	692	0	correct_rejection	NA	0
10	Triplet	6	168	1302	5	0	0	1089200	692	0	correct_rejection	NA	0
10	Triplet	7	169	1303	0	1	1	1089909	691	1	hit	328	0
10	Triplet	8	170	1304	4	0	0	1090617	692	0	correct_rejection	NA	0
10	Triplet	9	171	1305	4	0	0	1091326	691	0	correct_rejection	NA	0
10	Triplet	10	172	1306	5	0	0	1092034	692	0	correct_rejection	NA	0
10	Triplet	11	173	1307	0	1	1	1092743	692	1	hit	314	0
10	Triplet	12	174	1308	6	0	0	1093451	692	0	correct_rejection	NA	0
10	Triplet	13	175	1309	9	0	0	1094160	692	0	correct_rejection	NA	0
10	Triplet	14	176	1310	8	0	0	1094869	691	0	correct_rejection	NA	0
10	Triplet	15	177	1311	7	0	0	1095577	692	0	correct_rejection	NA	0
10	Triplet	16	178	1312	6	0	0	1096286	691	0	correct_rejection	NA	0
10	Triplet	17	179	1313	0	1	1	1096994	692	1	hit	384	0
10	Triplet	18	180	1314	5	0	0	1097703	692	0	correct_rejection	NA	0
10	Triplet	19	181	1315	4	0	0	1098411	692	0	correct_rejection	NA	0
10	Triplet	20	182	1316	9	0	0	1099120	692	0	correct_rejection	NA	0
10	Triplet	21	183	1317	8	0	0	1099829	691	0	correct_rejection	NA	0
10	Triplet	22	184	1318	7	0	0	1100537	692	0	correct_rejection	NA	0
10	Triplet	23	185	1319	0	1	2	1101246	691	1	hit	339	0
10	Triplet	24	186	1320	7	0	0	1101954	692	0	correct_rejection	NA	0
10	Triplet	25	187	1321	8	0	0	1102663	692	0	correct_rejection	NA	0
10	Triplet	26	188	1322	9	0	0	1103371	692	0	correct_rejection	NA	0
10	Triplet	27	189	1323	6	0	0	1104080	692	0	correct_rejection	NA	0
10	Triplet	28	190	1324	5	0	0	1104789	691	0	correct_rejection	NA	0
10	Triplet	29	191	1325	0	1	1	1105497	692	1	hit	302	0
10	Triplet	30	192	1326	4	0	0	1106206	691	0	correct_rejection	NA	0
10	Triplet	31	193	1327	7	0	0	1106914	692	0	correct_rejection	NA	0
10	Triplet	32	194	1328	8	0	0	1107623	691	0	correct_rejection	NA	0
10	Triplet	33	195	1329	9	0	0	1108331	692	0	correct_rejection	NA	0
10	Triplet	34	196	1330	7	0	0	1109040	692	0	correct_rejection	NA	0
10	Triplet	35	197	1331	8	0	0	1109748	692	0	correct_rejection	NA	0
10	Triplet	36	198	1332	9	0	0	1110457	692	0	correct_rejection	NA	0
10	Triplet	37	199	1333	9	0	0	1111166	691	0	correct_rejection	NA	0
10	Triplet	38	200	1334	8	0	0	1111874	692	0	correct_rejection	NA	0
10	Triplet	39	201	1335	7	0	0	1112583	691	0	correct_rejection	NA	0
10	Triplet	40	202	1336	9	0	0	1113291	692	0	correct_rejection	NA	0
10	Triplet	41	203	1337	8	0	0	1114000	692	0	correct_rejection	NA	0
10	Triplet	42	204	1338	0	1	1	1114708	692	1	hit	340	0
10	Triplet	43	205	1339	7	0	0	1115417	692	0	correct_rejection	NA	0
10	Triplet	44	206	1340	4	0	0	1116126	691	0	correct_rejection	NA	0
10	Triplet	45	207	1341	5	0	0	1116834	692	0	correct_rejection	NA	0
10	Triplet	46	208	1342	6	0	0	1117543	691	0	correct_rejection	NA	0
10	Triplet	47	209	1343	4	0	0	1118251	692	0	correct_rejection	NA	0
10	Triplet	48	210	1344	5	0	0	1118960	692	0	correct_rejection	NA	0
10	Triplet	49	211	1345	6	0	0	1119668	692	0	correct_rejection	NA	0
10	Triplet	50	212	1346	7	0	0	1120377	692	0	correct_rejection	NA	0
10	Triplet	51	213	1347	8	0	0	1121086	691	0	correct_rejection	NA	0
10	Triplet	52	214	1348	9	0	0	1121794	692	0	correct_rejection	NA	0
10	Triplet	53	215	1349	4	0	0	1122503	691	0	correct_rejection	NA	0
10	Triplet	54	216	1350	5	0	0	1123211	692	0	correct_rejection	NA	0
10	Triplet	55	217	1351	6	0	0	1123920	692	0	correct_rejection	NA	0
10	Triplet	56	218	1352	7	0	0	1124628	692	0	correct_rejection	NA	0
10	Triplet	57	219	1353	0	1	1	1125337	692	1	hit	371	0
10	Triplet	58	220	1354	8	0	0	1126046	691	0	correct_rejection	NA	0
10	Triplet	59	221	1355	9	0	0	1126754	692	0	correct_rejection	NA	0
10	Triplet	60	222	1356	0	1	2	1127463	691	0	miss	NA	0
10	Triplet	61	223	1357	6	0	0	1128171	692	1	false_alarm	1	0
10	Triplet	62	224	1358	5	0	0	1128880	691	0	correct_rejection	NA	0
10	Triplet	63	225	1359	4	0	0	1129588	692	0	correct_rejection	NA	0
10	Triplet	64	226	1360	6	0	0	1130297	692	0	correct_rejection	NA	0
10	Triplet	65	227	1361	5	0	0	1131005	692	0	correct_rejection	NA	0
10	Triplet	66	228	1362	4	0	0	1131714	692	0	correct_rejection	NA	0
10	Triplet	67	229	1363	9	0	0	1132423	691	0	correct_rejection	NA	0
10	Triplet	68	230	1364	8	0	0	1133131	692	0	correct_rejection	NA	0
10	Triplet	69	231	1365	7	0	0	1133840	691	0	correct_rejection	NA	0
10	Triplet	70	232	1366	4	0	0	1134548	692	0	correct_rejection	NA	0
10	Triplet	71	233	1367	0	1	1	1135257	692	1	hit	335	0
10	Triplet	72	234	1368	5	0	0	1135965	692	0	correct_rejection	NA	0
10	Triplet	73	235	1369	6	0	0	1136674	692	0	correct_rejection	NA	0
10	Triplet	74	236	1370	7	0	0	1137383	691	0	correct_rejection	NA	0
10	Triplet	75	237	1371	8	0	0	1138091	692	0	correct_rejection	NA	0
10	Triplet	76	238	1372	9	0	0	1138800	691	0	correct_rejection	NA	0
10	Triplet	77	239	1373	7	0	0	1139508	692	0	correct_rejection	NA	0
10	Triplet	78	240	1374	8	0	0	1140217	692	0	correct_rejection	NA	0
10	Triplet	79	241	1375	9	0	0	1140925	692	0	correct_rejection	NA	0
10	Triplet	80	242	1376	4	0	0	1141634	692	0	correct_rejection	NA	0
10	Triplet	81	243	1377	5	0	0	1142343	691	0	correct_rejection	NA	0
10	Triplet	82	244	1378	6	0	0	1143051	692	0	correct_rejection	NA	0
10	Triplet	83	245	1379	6	0	0	1143760	691	0	correct_rejection	NA	0
10	Triplet	84	246	1380	5	0	0	1144468	692	0	correct_rejection	NA	0
10	Triplet	85	247	1381	4	0	0	1145177	692	0	correct_rejection	NA	0
10	Triplet	86	248	1382	7	0	0	1145885	692	0	correct_rejection	NA	0
10	Triplet	87	249	1383	8	0	0	1146594	692	0	correct_rejection	NA	0
10	Triplet	88	250	1384	9	0	0	1147303	691	0	correct_rejection	NA	0
10	Triplet	89	251	1385	9	0	0	1148011	692	0	correct_rejection	NA	0
10	Triplet	90	252	1386	8	0	0	1148720	691	0	correct_rejection	NA	0
10	Triplet	91	253	1387	7	0	0	1149428	692	0	correct_rejection	NA	0
10	Triplet	92	254	1388	6	0	0	1150137	691	0	correct_rejection	NA	0
10	Triplet	93	255	1389	5	0	0	1150845	692	0	correct_rejection	NA	0
10	Triplet	94	256	1390	4	0	0	1151554	692	0	correct_rejection	NA	0
10	Triplet	95	257	1391	4	0	0	1152262	692	0	correct_rejection	NA	0
10	Triplet	96	258	1392	5	0	0	1152971	692	0	correct_rejection	NA	0
10	Triplet	97	259	1393	6	0	0	1153680	691	0	correct_rejection	NA	0
10	Triplet	98	260	1394	4	0	0	1154388	692	0	correct_rejection	NA	0
10	Triplet	99	261	1395	5	0	0	1155097	691	0	correct_rejection	NA	0
10	Triplet	100	262	1396	6	0	0	1155805	692	0	correct_rejection	NA	0
10	Triplet	101	263	1397	9	0	0	1156514	692	0	correct_rejection	NA	0
10	Triplet	102	264	1398	8	0	0	1157222	692	0	correct_rejection	NA	0
10	Triplet	103	265	1399	7	0	0	1157931	692	0	correct_rejection	NA	0
10	Triplet	104	266	1400	0	1	2	1158640	691	1	hit	365	0
10	Triplet	105	267	1401	9	0	0	1159348	692	0	correct_rejection	NA	0
10	Triplet	106	268	1402	8	0	0	1160057	691	0	correct_rejection	NA	0
10	Triplet	107	269	1403	7	0	0	1160765	692	0	correct_rejection	NA	0
10	Triplet	108	270	1404	4	0	0	1161474	692	0	correct_rejection	NA	0
10	Triplet	109	271	1405	5	0	0	1162182	692	0	correct_rejection	NA	0
10	Triplet	110	272	1406	6	0	0	1162891	692	0	correct_rejection	NA	0
10	Triplet	111	273	1407	4	0	0	1163600	691	0	correct_rejection	NA	0
10	Triplet	112	274	1408	5	0	0	1164308	692	0	correct_rejection	NA	0
10	Triplet	113	275	1409	6	0	0	1165017	691	0	correct_rejection	NA	0
10	Triplet	114	276	1410	6	0	0	1165725	692	0	correct_rejection	NA	0
10	Triplet	115	277	1411	0	1	1	1166434	692	1	hit	361	0
10	Triplet	116	278	1412	5	0	0	1167142	692	0	correct_rejection	NA	0
10	Triplet	117	279	1413	4	0	0	1167851	692	0	correct_rejection	NA	0
10	Triplet	118	280	1414	9	0	0	1168560	691	0	correct_rejection	NA	0
10	Triplet	119	281	1415	8	0	0	1169268	692	0	correct_rejection	NA	0
10	Triplet	120	282	1416	0	1	1	1169977	691	0	miss	NA	0
10	Triplet	121	283	1417	7	0	0	1170685	692	1	false_alarm	160	0
10	Triplet	122	284	1418	9	0	0	1171394	691	0	correct_rejection	NA	0
10	Triplet	123	285	1419	0	1	1	1172102	692	1	hit	458	0
10	Triplet	124	286	1420	8	0	0	1172811	692	0	correct_rejection	NA	0
10	Triplet	125	287	1421	7	0	0	1173520	691	0	correct_rejection	NA	0
10	Triplet	126	288	1422	6	0	0	1174228	692	0	correct_rejection	NA	0
10	Triplet	127	289	1423	5	0	0	1174937	691	0	correct_rejection	NA	0
10	Triplet	128	290	1424	4	0	0	1175645	692	0	correct_rejection	NA	0
10	Triplet	129	291	1425	6	0	0	1176354	691	0	correct_rejection	NA	0
10	Triplet	130	292	1426	5	0	0	1177062	692	0	correct_rejection	NA	0
10	Triplet	131	293	1427	4	0	0	1177771	692	0	correct_rejection	NA	0
10	Triplet	132	294	1428	7	0	0	1178479	692	0	correct_rejection	NA	0
10	Triplet	133	295	1429	0	1	1	1179188	692	1	hit	330	0
10	Triplet	134	296	1430	8	0	0	1179897	691	0	correct_rejection	NA	0
10	Triplet	135	297	1431	9	0	0	1180605	692	0	correct_rejection	NA	0
10	Triplet	136	298	1432	4	0	0	1181314	691	0	correct_rejection	NA	0
10	Triplet	137	299	1433	5	0	0	1182022	692	0	correct_rejection	NA	0
10	Triplet	138	300	1434	6	0	0	1182731	692	0	correct_rejection	NA	0
10	Triplet	139	301	1435	7	0	0	1183439	692	0	correct_rejection	NA	0
10	Triplet	140	302	1436	8	0	0	1184148	692	0	correct_rejection	NA	0
10	Triplet	141	303	1437	0	1	1	1184857	691	1	hit	321	0
10	Triplet	142	304	1438	9	0	0	1185565	692	0	correct_rejection	NA	0
10	Triplet	143	305	1439	9	0	0	1186274	691	0	correct_rejection	NA	0
10	Triplet	144	306	1440	8	0	0	1186982	692	0	correct_rejection	NA	0
10	Triplet	145	307	1441	7	0	0	1187691	692	0	correct_rejection	NA	0
10	Triplet	146	308	1442	4	0	0	1188399	692	0	correct_rejection	NA	0
10	Triplet	147	309	1443	5	0	0	1189108	692	0	correct_rejection	NA	0
10	Triplet	148	310	1444	6	0	0	1189817	691	0	correct_rejection	NA	0
10	Triplet	149	311	1445	9	0	0	1190525	692	0	correct_rejection	NA	0
10	Triplet	150	312	1446	0	1	1	1191234	691	1	hit	336	0
10	Triplet	151	313	1447	8	0	0	1191942	692	0	correct_rejection	NA	0
10	Triplet	152	314	1448	7	0	0	1192651	692	0	correct_rejection	NA	0
10	Triplet	153	315	1449	7	0	0	1193359	692	0	correct_rejection	NA	0
10	Triplet	154	316	1450	8	0	0	1194068	692	0	correct_rejection	NA	0
10	Triplet	155	317	1451	9	0	0	1194777	691	0	correct_rejection	NA	0
10	Triplet	156	318	1452	7	0	0	1195485	692	0	correct_rejection	NA	0
10	Triplet	157	319	1453	0	1	1	1196194	691	1	hit	345	0
10	Triplet	158	320	1454	8	0	0	1196902	692	0	correct_rejection	NA	0
10	Triplet	159	321	1455	9	0	0	1197611	691	0	correct_rejection	NA	0
10	Triplet	160	322	1456	6	0	0	1198319	692	0	correct_rejection	NA	0
10	Triplet	161	323	1457	5	0	0	1199028	692	0	correct_rejection	NA	0
10	Triplet	162	324	1458	4	0	0	1199736	692	0	correct_rejection	NA	0
10	Single	1	649	1459	8	0	0	1209090	691	0	correct_rejection	NA	7329
10	Single	2	650	1460	9	0	0	1209798	692	0	correct_rejection	NA	0
10	Single	3	651	1461	8	0	0	1210507	691	0	correct_rejection	NA	0
10	Single	4	652	1462	5	0	0	1211215	692	0	correct_rejection	NA	0
10	Single	5	653	1463	4	0	0	1211924	692	0	correct_rejection	NA	0
10	Single	6	654	1464	4	0	0	1212632	692	0	correct_rejection	NA	0
10	Single	7	655	1465	9	0	0	1213341	692	0	correct_rejection	NA	0
10	Single	8	656	1466	9	0	0	1214050	691	0	correct_rejection	NA	0
10	Single	9	657	1467	4	0	0	1214758	692	0	correct_rejection	NA	0
10	Single	10	658	1468	7	0	0	1215467	691	0	correct_rejection	NA	0
10	Single	11	659	1469	4	0	0	1216175	692	0	correct_rejection	NA	0
10	Single	12	660	1470	5	0	0	1216884	691	0	correct_rejection	NA	0
10	Single	13	661	1471	7	0	0	1217592	692	0	correct_rejection	NA	0
10	Single	14	662	1472	6	0	0	1218301	692	0	correct_rejection	NA	0
10	Single	15	663	1473	8	0	0	1219010	691	0	correct_rejection	NA	0
10	Single	16	664	1474	7	0	0	1219718	692	0	correct_rejection	NA	0
10	Single	17	665	1475	5	0	0	1220427	691	0	correct_rejection	NA	0
10	Single	18	666	1476	5	0	0	1221135	692	0	correct_rejection	NA	0
10	Single	19	667	1477	9	0	0	1221844	691	0	correct_rejection	NA	0
10	Single	20	668	1478	5	0	0	1222552	692	0	correct_rejection	NA	0
10	Single	21	669	1479	0	1	1	1223261	692	1	hit	355	0
10	Single	22	670	1480	8	0	0	1223969	692	0	correct_rejection	NA	0
10	Single	23	671	1481	6	0	0	1224678	692	0	correct_rejection	NA	0
10	Single	24	672	1482	5	0	0	1225387	691	0	correct_rejection	NA	0
10	Single	25	673	1483	6	0	0	1226095	692	0	correct_rejection	NA	0
10	Single	26	674	1484	6	0	0	1226804	691	0	correct_rejection	NA	0
10	Single	27	675	1485	7	0	0	1227512	692	0	correct_rejection	NA	0
10	Single	28	676	1486	9	0	0	1228221	692	0	correct_rejection	NA	0
10	Single	29	677	1487	6	0	0	1228929	692	0	correct_rejection	NA	0
10	Single	30	678	1488	9	0	0	1229638	692	0	correct_rejection	NA	0
10	Single	31	679	1489	7	0	0	1230347	691	0	correct_rejection	NA	0
10	Single	32	680	1490	7	0	0	1231055	692	0	correct_rejection	NA	0
10	Single	33	681	1491	0	1	1	1231764	691	1	hit	307	0
10	Single	34	682	1492	8	0	0	1232472	692	0	correct_rejection	NA	0
10	Single	35	683	1493	8	0	0	1233181	692	0	correct_rejection	NA	0
10	Single	36	684	1494	4	0	0	1233889	692	0	correct_rejection	NA	0
10	Single	37	685	1495	6	0	0	1234598	692	0	correct_rejection	NA	0
10	Single	38	686	1496	4	0	0	1235307	691	0	correct_rejection	NA	0
10	Single	39	687	1497	7	0	0	1236015	692	0	correct_rejection	NA	0
10	Single	40	688	1498	9	0	0	1236724	691	0	correct_rejection	NA	0
10	Single	41	689	1499	5	0	0	1237432	692	0	correct_rejection	NA	0
10	Single	42	690	1500	9	0	0	1238141	691	0	correct_rejection	NA	0
10	Single	43	691	1501	4	0	0	1238849	692	0	correct_rejection	NA	0
10	Single	44	692	1502	8	0	0	1239558	692	0	correct_rejection	NA	0
10	Single	45	693	1503	4	0	0	1240267	691	0	correct_rejection	NA	0
10	Single	46	694	1504	9	0	0	1240975	692	0	correct_rejection	NA	0
10	Single	47	695	1505	7	0	0	1241684	691	0	correct_rejection	NA	0
10	Single	48	696	1506	8	0	0	1242392	692	0	correct_rejection	NA	0
10	Single	49	697	1507	9	0	0	1243101	691	0	correct_rejection	NA	0
10	Single	50	698	1508	6	0	0	1243809	692	0	correct_rejection	NA	0
10	Single	51	699	1509	8	0	0	1244518	692	0	correct_rejection	NA	0
10	Single	52	700	1510	8	0	0	1245226	692	0	correct_rejection	NA	0
10	Single	53	701	1511	5	0	0	1245935	692	0	correct_rejection	NA	0
10	Single	54	702	1512	8	0	0	1246644	691	0	correct_rejection	NA	0
10	Single	55	703	1513	7	0	0	1247352	692	0	correct_rejection	NA	0
10	Single	56	704	1514	7	0	0	1248061	691	0	correct_rejection	NA	0
10	Single	57	705	1515	4	0	0	1248769	692	0	correct_rejection	NA	0
10	Single	58	706	1516	0	1	1	1249478	692	1	hit	410	0
10	Single	59	707	1517	4	0	0	1250186	692	0	correct_rejection	NA	0
10	Single	60	708	1518	6	0	0	1250895	692	0	correct_rejection	NA	0
10	Single	61	709	1519	5	0	0	1251604	691	0	correct_rejection	NA	0
10	Single	62	710	1520	4	0	0	1252312	692	0	correct_rejection	NA	0
10	Single	63	711	1521	7	0	0	1253021	691	0	correct_rejection	NA	0
10	Single	64	712	1522	6	0	0	1253729	692	0	correct_rejection	NA	0
10	Single	65	713	1523	6	0	0	1254438	692	0	correct_rejection	NA	0
10	Single	66	714	1524	9	0	0	1255146	692	0	correct_rejection	NA	0
10	Single	67	715	1525	0	1	1	1255855	692	1	hit	499	0
10	Single	68	716	1526	9	0	0	1256564	691	0	correct_rejection	NA	0
10	Single	69	717	1527	8	0	0	1257272	692	0	correct_rejection	NA	0
10	Single	70	718	1528	0	1	1	1257981	691	1	hit	371	0
10	Single	71	719	1529	6	0	0	1258689	692	0	correct_rejection	NA	0
10	Single	72	720	1530	4	0	0	1259398	692	0	correct_rejection	NA	0
10	Single	73	721	1531	5	0	0	1260106	692	0	correct_rejection	NA	0
10	Single	74	722	1532	5	0	0	1260815	692	0	correct_rejection	NA	0
10	Single	75	723	1533	0	1	1	1261524	691	1	hit	334	0
10	Single	76	724	1534	6	0	0	1262232	692	0	correct_rejection	NA	0
10	Single	77	725	1535	7	0	0	1262941	691	0	correct_rejection	NA	0
10	Single	78	726	1536	0	1	1	1263649	692	1	hit	317	0
10	Single	79	727	1537	5	0	0	1264358	691	0	correct_rejection	NA	0
10	Single	80	728	1538	5	0	0	1265066	692	0	correct_rejection	NA	0
10	Single	81	729	1539	4	0	0	1265775	692	0	correct_rejection	NA	0
10	Single	82	730	1540	0	1	1	1266483	692	1	hit	280	0
10	Single	83	731	1541	9	0	0	1267192	692	0	correct_rejection	NA	0
10	Single	84	732	1542	5	0	0	1267901	691	0	correct_rejection	NA	0
10	Single	85	733	1543	6	0	0	1268609	692	0	correct_rejection	NA	0
10	Single	86	734	1544	4	0	0	1269318	691	0	correct_rejection	NA	0
10	Single	87	735	1545	0	1	1	1270026	692	1	hit	294	0
10	Single	88	736	1546	7	0	0	1270735	692	0	correct_rejection	NA	0
10	Single	89	737	1547	9	0	0	1271443	692	0	correct_rejection	NA	0
10	Single	90	738	1548	8	0	0	1272152	692	0	correct_rejection	NA	0
10	Single	91	739	1549	8	0	0	1272861	691	0	correct_rejection	NA	0
10	Single	92	740	1550	7	0	0	1273569	692	0	correct_rejection	NA	0
10	Single	93	741	1551	8	0	0	1274278	691	0	correct_rejection	NA	0
10	Single	94	742	1552	0	1	1	1274986	692	1	hit	281	0
10	Single	95	743	1553	4	0	0	1275695	692	0	correct_rejection	NA	0
10	Single	96	744	1554	8	0	0	1276403	692	0	correct_rejection	NA	0
10	Single	97	745	1555	5	0	0	1277112	692	0	correct_rejection	NA	0
10	Single	98	746	1556	5	0	0	1277821	691	0	correct_rejection	NA	0
10	Single	99	747	1557	8	0	0	1278529	692	0	correct_rejection	NA	0
10	Single	100	748	1558	9	0	0	1279238	691	0	correct_rejection	NA	0
10	Single	101	749	1559	4	0	0	1279946	692	0	correct_rejection	NA	0
10	Single	102	750	1560	4	0	0	1280655	692	0	correct_rejection	NA	0
10	Single	103	751	1561	0	1	1	1281363	692	1	hit	311	0
10	Single	104	752	1562	5	0	0	1282072	692	0	correct_rejection	NA	0
10	Single	105	753	1563	9	0	0	1282781	691	0	correct_rejection	NA	0
10	Single	106	754	1564	9	0	0	1283489	692	0	correct_rejection	NA	0
10	Single	107	755	1565	7	0	0	1284198	691	0	correct_rejection	NA	0
10	Single	108	756	1566	6	0	0	1284906	692	0	correct_rejection	NA	0
10	Single	109	757	1567	7	0	0	1285615	691	0	correct_rejection	NA	0
10	Single	110	758	1568	7	0	0	1286323	692	0	correct_rejection	NA	0
10	Single	111	759	1569	5	0	0	1287032	692	0	correct_rejection	NA	0
10	Single	112	760	1570	0	1	1	1287740	692	1	hit	293	0
10	Single	113	761	1571	7	0	0	1288449	692	0	correct_rejection	NA	0
10	Single	114	762	1572	4	0	0	1289158	691	0	correct_rejection	NA	0
10	Single	115	763	1573	6	0	0	1289866	692	0	correct_rejection	NA	0
10	Single	116	764	1574	9	0	0	1290575	691	0	correct_rejection	NA	0
10	Single	117	765	1575	6	0	0	1291283	692	0	correct_rejection	NA	0
10	Single	118	766	1576	6	0	0	1291992	692	0	correct_rejection	NA	0
10	Single	119	767	1577	8	0	0	1292700	692	0	correct_rejection	NA	0
10	Single	120	768	1578	6	0	0	1293409	692	0	correct_rejection	NA	0
10	Single	121	769	1579	0	1	1	1294118	691	1	hit	317	0
10	Single	122	770	1580	7	0	0	1294826	692	0	correct_rejection	NA	0
10	Single	123	771	1581	7	0	0	1295535	691	0	correct_rejection	NA	0
10	Single	124	772	1582	8	0	0	1296243	692	0	correct_rejection	NA	0
10	Single	125	773	1583	7	0	0	1296952	692	0	correct_rejection	NA	0
10	Single	126	774	1584	6	0	0	1297660	692	0	correct_rejection	NA	0
10	Single	127	775	1585	9	0	0	1298369	692	0	correct_rejection	NA	0
10	Single	128	776	1586	7	0	0	1299078	691	0	correct_rejection	NA	0
10	Single	129	777	1587	0	1	1	1299786	692	1	hit	313	0
10	Single	130	778	1588	4	0	0	1300495	691	0	correct_rejection	NA	0
10	Single	131	779	1589	9	0	0	1301203	692	0	correct_rejection	NA	0
10	Single	132	780	1590	6	0	0	1301912	692	0	correct_rejection	NA	0
10	Single	133	781	1591	5	0	0	1302620	692	0	correct_rejection	NA	0
10	Single	134	782	1592	6	0	0	1303329	692	0	correct_rejection	NA	0
10	Single	135	783	1593	0	1	1	1304038	691	1	hit	336	0
