ID	block	trial_block	trial_cat	trial_total	number	violation	level_violation	onset	duration	Response	Hit_Miss	RT	pre_trial_fixcross_ISI
first_trigger_at: 11299
trigger nr 13 at 23298
11	Nonet	1	649	1	6	0	0	31151	692	0	correct_rejection	NA	7809
11	Nonet	2	650	2	5	0	0	31860	692	0	correct_rejection	NA	0
11	Nonet	3	651	3	4	0	0	32569	691	0	correct_rejection	NA	0
11	Nonet	4	652	4	6	0	0	33277	692	0	correct_rejection	NA	0
11	Nonet	5	653	5	5	0	0	33986	691	0	correct_rejection	NA	0
11	Nonet	6	654	6	4	0	0	34694	692	0	correct_rejection	NA	0
11	Nonet	7	655	7	6	0	0	35403	691	0	correct_rejection	NA	0
11	Nonet	8	656	8	5	0	0	36111	692	0	correct_rejection	NA	0
11	Nonet	9	657	9	4	0	0	36820	692	0	correct_rejection	NA	0
11	Nonet	10	658	10	9	0	0	37529	691	0	correct_rejection	NA	0
11	Nonet	11	659	11	8	0	0	38237	692	0	correct_rejection	NA	0
11	Nonet	12	660	12	7	0	0	38946	691	0	correct_rejection	NA	0
11	Nonet	13	661	13	9	0	0	39654	692	0	correct_rejection	NA	0
11	Nonet	14	662	14	8	0	0	40363	691	0	correct_rejection	NA	0
11	Nonet	15	663	15	7	0	0	41071	692	0	correct_rejection	NA	0
11	Nonet	16	664	16	0	1	2	41780	692	1	hit	482	0
11	Nonet	17	665	17	9	0	0	42488	692	0	correct_rejection	NA	0
11	Nonet	18	666	18	8	0	0	43197	692	0	correct_rejection	NA	0
11	Nonet	19	667	19	7	0	0	43906	691	0	correct_rejection	NA	0
11	Nonet	20	668	20	0	1	3	44614	692	1	hit	299	0
11	Nonet	21	669	21	4	0	0	45323	691	0	correct_rejection	NA	0
11	Nonet	22	670	22	5	0	0	46031	692	0	correct_rejection	NA	0
11	Nonet	23	671	23	0	1	1	46740	692	1	hit	540	0
11	Nonet	24	672	24	6	0	0	47448	692	0	correct_rejection	NA	0
11	Nonet	25	673	25	4	0	0	48157	692	0	correct_rejection	NA	0
11	Nonet	26	674	26	5	0	0	48866	691	0	correct_rejection	NA	0
11	Nonet	27	675	27	6	0	0	49574	692	0	correct_rejection	NA	0
11	Nonet	28	676	28	4	0	0	50283	691	0	correct_rejection	NA	0
11	Nonet	29	677	29	5	0	0	50991	692	0	correct_rejection	NA	0
11	Nonet	30	678	30	0	1	1	51700	692	1	hit	391	0
11	Nonet	31	679	31	6	0	0	52408	692	0	correct_rejection	NA	0
11	Nonet	32	680	32	4	0	0	53117	692	0	correct_rejection	NA	0
11	Nonet	33	681	33	5	0	0	53826	691	0	correct_rejection	NA	0
11	Nonet	34	682	34	6	0	0	54534	692	0	correct_rejection	NA	0
11	Nonet	35	683	35	4	0	0	55243	691	0	correct_rejection	NA	0
11	Nonet	36	684	36	5	0	0	55951	692	0	correct_rejection	NA	0
11	Nonet	37	685	37	6	0	0	56660	691	0	correct_rejection	NA	0
11	Nonet	38	686	38	4	0	0	57368	692	0	correct_rejection	NA	0
11	Nonet	39	687	39	5	0	0	58077	692	0	correct_rejection	NA	0
11	Nonet	40	688	40	6	0	0	58786	691	0	correct_rejection	NA	0
11	Nonet	41	689	41	6	0	0	59494	692	0	correct_rejection	NA	0
11	Nonet	42	690	42	5	0	0	60203	691	0	correct_rejection	NA	0
11	Nonet	43	691	43	4	0	0	60911	692	0	correct_rejection	NA	0
11	Nonet	44	692	44	6	0	0	61620	691	0	correct_rejection	NA	0
11	Nonet	45	693	45	5	0	0	62328	692	0	correct_rejection	NA	0
11	Nonet	46	694	46	4	0	0	63037	692	0	correct_rejection	NA	0
11	Nonet	47	695	47	6	0	0	63745	692	0	correct_rejection	NA	0
11	Nonet	48	696	48	5	0	0	64454	692	0	correct_rejection	NA	0
11	Nonet	49	697	49	0	1	1	65163	691	1	hit	364	0
11	Nonet	50	698	50	4	0	0	65871	692	0	correct_rejection	NA	0
11	Nonet	51	699	51	6	0	0	66580	691	0	correct_rejection	NA	0
11	Nonet	52	700	52	5	0	0	67288	692	0	correct_rejection	NA	0
11	Nonet	53	701	53	4	0	0	67997	692	0	correct_rejection	NA	0
11	Nonet	54	702	54	6	0	0	68705	692	0	correct_rejection	NA	0
11	Nonet	55	703	55	0	1	1	69414	692	1	hit	457	0
11	Nonet	56	704	56	5	0	0	70123	691	0	correct_rejection	NA	0
11	Nonet	57	705	57	4	0	0	70831	692	0	correct_rejection	NA	0
11	Nonet	58	706	58	0	1	2	71540	691	1	hit	428	0
11	Nonet	59	707	59	6	0	0	72248	692	0	correct_rejection	NA	0
11	Nonet	60	708	60	5	0	0	72957	692	0	correct_rejection	NA	0
11	Nonet	61	709	61	4	0	0	73665	692	0	correct_rejection	NA	0
11	Nonet	62	710	62	4	0	0	74374	692	0	correct_rejection	NA	0
11	Nonet	63	711	63	5	0	0	75083	691	0	correct_rejection	NA	0
11	Nonet	64	712	64	6	0	0	75791	692	0	correct_rejection	NA	0
11	Nonet	65	713	65	4	0	0	76500	691	0	correct_rejection	NA	0
11	Nonet	66	714	66	5	0	0	77208	692	0	correct_rejection	NA	0
11	Nonet	67	715	67	6	0	0	77917	692	0	correct_rejection	NA	0
11	Nonet	68	716	68	4	0	0	78625	692	0	correct_rejection	NA	0
11	Nonet	69	717	69	5	0	0	79334	692	0	correct_rejection	NA	0
11	Nonet	70	718	70	6	0	0	80043	691	0	correct_rejection	NA	0
11	Nonet	71	719	71	7	0	0	80751	692	0	correct_rejection	NA	0
11	Nonet	72	720	72	8	0	0	81460	691	0	correct_rejection	NA	0
11	Nonet	73	721	73	9	0	0	82168	692	0	correct_rejection	NA	0
11	Nonet	74	722	74	0	1	2	82877	691	1	hit	304	0
11	Nonet	75	723	75	7	0	0	83585	692	0	correct_rejection	NA	0
11	Nonet	76	724	76	8	0	0	84294	692	0	correct_rejection	NA	0
11	Nonet	77	725	77	0	1	1	85002	692	1	hit	424	0
11	Nonet	78	726	78	9	0	0	85711	692	0	correct_rejection	NA	0
11	Nonet	79	727	79	7	0	0	86420	691	0	correct_rejection	NA	0
11	Nonet	80	728	80	8	0	0	87128	692	0	correct_rejection	NA	0
11	Nonet	81	729	81	9	0	0	87837	691	0	correct_rejection	NA	0
11	Nonet	82	730	82	6	0	0	88545	692	0	correct_rejection	NA	0
11	Nonet	83	731	83	5	0	0	89254	692	0	correct_rejection	NA	0
11	Nonet	84	732	84	4	0	0	89962	692	0	correct_rejection	NA	0
11	Nonet	85	733	85	6	0	0	90671	692	0	correct_rejection	NA	0
11	Nonet	86	734	86	5	0	0	91380	691	0	correct_rejection	NA	0
11	Nonet	87	735	87	4	0	0	92088	692	0	correct_rejection	NA	0
11	Nonet	88	736	88	0	1	2	92797	691	1	hit	440	0
11	Nonet	89	737	89	6	0	0	93505	692	0	correct_rejection	NA	0
11	Nonet	90	738	90	5	0	0	94214	692	0	correct_rejection	NA	0
11	Nonet	91	739	91	4	0	0	94922	692	0	correct_rejection	NA	0
11	Nonet	92	740	92	7	0	0	95631	692	0	correct_rejection	NA	0
11	Nonet	93	741	93	8	0	0	96340	691	0	correct_rejection	NA	0
11	Nonet	94	742	94	9	0	0	97048	692	0	correct_rejection	NA	0
11	Nonet	95	743	95	7	0	0	97757	691	0	correct_rejection	NA	0
11	Nonet	96	744	96	8	0	0	98465	692	0	correct_rejection	NA	0
11	Nonet	97	745	97	9	0	0	99174	692	0	correct_rejection	NA	0
11	Nonet	98	746	98	7	0	0	99882	692	0	correct_rejection	NA	0
11	Nonet	99	747	99	0	1	1	100591	692	1	hit	405	0
11	Nonet	100	748	100	8	0	0	101300	691	0	correct_rejection	NA	0
11	Nonet	101	749	101	9	0	0	102008	692	0	correct_rejection	NA	0
11	Nonet	102	750	102	4	0	0	102717	691	0	correct_rejection	NA	0
11	Nonet	103	751	103	0	1	1	103425	692	1	hit	408	0
11	Nonet	104	752	104	5	0	0	104134	691	0	correct_rejection	NA	0
11	Nonet	105	753	105	6	0	0	104842	692	0	correct_rejection	NA	0
11	Nonet	106	754	106	0	1	2	105551	692	1	hit	414	0
11	Nonet	107	755	107	4	0	0	106259	692	0	correct_rejection	NA	0
11	Nonet	108	756	108	5	0	0	106968	692	0	correct_rejection	NA	0
11	Nonet	109	757	109	6	0	0	107677	691	0	correct_rejection	NA	0
11	Nonet	110	758	110	4	0	0	108385	692	0	correct_rejection	NA	0
11	Nonet	111	759	111	5	0	0	109094	691	0	correct_rejection	NA	0
11	Nonet	112	760	112	6	0	0	109802	692	0	correct_rejection	NA	0
11	Nonet	113	761	113	9	0	0	110511	692	0	correct_rejection	NA	0
11	Nonet	114	762	114	8	0	0	111219	692	0	correct_rejection	NA	0
11	Nonet	115	763	115	7	0	0	111928	692	0	correct_rejection	NA	0
11	Nonet	116	764	116	9	0	0	112637	691	0	correct_rejection	NA	0
11	Nonet	117	765	117	0	1	1	113345	692	1	hit	469	0
11	Nonet	118	766	118	8	0	0	114054	691	0	correct_rejection	NA	0
11	Nonet	119	767	119	7	0	0	114762	692	0	correct_rejection	NA	0
11	Nonet	120	768	120	9	0	0	115471	692	0	correct_rejection	NA	0
11	Nonet	121	769	121	8	0	0	116179	692	0	correct_rejection	NA	0
11	Nonet	122	770	122	0	1	1	116888	692	1	hit	384	0
11	Nonet	123	771	123	7	0	0	117597	691	0	correct_rejection	NA	0
11	Nonet	124	772	124	9	0	0	118305	692	0	correct_rejection	NA	0
11	Nonet	125	773	125	8	0	0	119014	691	0	correct_rejection	NA	0
11	Nonet	126	774	126	7	0	0	119722	692	0	correct_rejection	NA	0
11	Nonet	127	775	127	0	1	2	120431	692	1	hit	320	0
11	Nonet	128	776	128	9	0	0	121139	692	0	correct_rejection	NA	0
11	Nonet	129	777	129	8	0	0	121848	692	0	correct_rejection	NA	0
11	Nonet	130	778	130	0	1	1	122557	691	1	hit	415	0
11	Nonet	131	779	131	7	0	0	123265	692	0	correct_rejection	NA	0
11	Nonet	132	780	132	9	0	0	123974	691	0	correct_rejection	NA	0
11	Nonet	133	781	133	8	0	0	124682	692	0	correct_rejection	NA	0
11	Nonet	134	782	134	7	0	0	125391	691	0	correct_rejection	NA	0
11	Nonet	135	783	135	7	0	0	126099	692	0	correct_rejection	NA	0
11	Nonet	136	784	136	8	0	0	126808	692	0	correct_rejection	NA	0
11	Nonet	137	785	137	9	0	0	127516	692	0	correct_rejection	NA	0
11	Nonet	138	786	138	7	0	0	128225	692	0	correct_rejection	NA	0
11	Nonet	139	787	139	8	0	0	128934	691	0	correct_rejection	NA	0
11	Nonet	140	788	140	9	0	0	129642	692	0	correct_rejection	NA	0
11	Nonet	141	789	141	7	0	0	130351	691	0	correct_rejection	NA	0
11	Nonet	142	790	142	8	0	0	131059	692	0	correct_rejection	NA	0
11	Nonet	143	791	143	9	0	0	131768	692	0	correct_rejection	NA	0
11	Nonet	144	792	144	0	1	3	132476	692	1	hit	388	0
11	Nonet	145	793	145	7	0	0	133185	692	0	correct_rejection	NA	0
11	Nonet	146	794	146	8	0	0	133894	691	0	correct_rejection	NA	0
11	Nonet	147	795	147	9	0	0	134602	692	0	correct_rejection	NA	0
11	Nonet	148	796	148	7	0	0	135311	691	0	correct_rejection	NA	0
11	Nonet	149	797	149	8	0	0	136019	692	0	correct_rejection	NA	0
11	Nonet	150	798	150	9	0	0	136728	692	0	correct_rejection	NA	0
11	Nonet	151	799	151	7	0	0	137436	692	0	correct_rejection	NA	0
11	Nonet	152	800	152	8	0	0	138145	692	0	correct_rejection	NA	0
11	Nonet	153	801	153	9	0	0	138854	691	0	correct_rejection	NA	0
11	Nonet	154	802	154	9	0	0	139562	692	0	correct_rejection	NA	0
11	Nonet	155	803	155	8	0	0	140271	691	0	correct_rejection	NA	0
11	Nonet	156	804	156	7	0	0	140979	692	0	correct_rejection	NA	0
11	Nonet	157	805	157	9	0	0	141688	692	0	correct_rejection	NA	0
11	Nonet	158	806	158	8	0	0	142396	692	0	correct_rejection	NA	0
11	Nonet	159	807	159	7	0	0	143105	692	0	correct_rejection	NA	0
11	Nonet	160	808	160	9	0	0	143814	691	0	correct_rejection	NA	0
11	Nonet	161	809	161	8	0	0	144522	692	0	correct_rejection	NA	0
11	Nonet	162	810	162	7	0	0	145231	691	0	correct_rejection	NA	0
11	Triplet	1	1	163	9	0	0	155167	692	0	correct_rejection	NA	7828
11	Triplet	2	2	164	8	0	0	155876	692	0	correct_rejection	NA	0
11	Triplet	3	3	165	7	0	0	156584	692	0	correct_rejection	NA	0
11	Triplet	4	4	166	6	0	0	157293	692	0	correct_rejection	NA	0
11	Triplet	5	5	167	5	0	0	158002	691	0	correct_rejection	NA	0
11	Triplet	6	6	168	4	0	0	158710	692	0	correct_rejection	NA	0
11	Triplet	7	7	169	7	0	0	159419	691	0	correct_rejection	NA	0
11	Triplet	8	8	170	8	0	0	160127	692	0	correct_rejection	NA	0
11	Triplet	9	9	171	9	0	0	160836	691	0	correct_rejection	NA	0
11	Triplet	10	10	172	7	0	0	161544	692	0	correct_rejection	NA	0
11	Triplet	11	11	173	8	0	0	162253	692	0	correct_rejection	NA	0
11	Triplet	12	12	174	9	0	0	162961	692	0	correct_rejection	NA	0
11	Triplet	13	13	175	0	1	2	163670	692	1	hit	456	0
11	Triplet	14	14	176	4	0	0	164379	691	0	correct_rejection	NA	0
11	Triplet	15	15	177	5	0	0	165087	692	0	correct_rejection	NA	0
11	Triplet	16	16	178	0	1	1	165796	691	1	hit	621	0
11	Triplet	17	17	179	6	0	0	166504	692	0	correct_rejection	NA	0
11	Triplet	18	18	180	6	0	0	167213	692	0	correct_rejection	NA	0
11	Triplet	19	19	181	0	1	1	167921	692	1	hit	403	0
11	Triplet	20	20	182	5	0	0	168630	692	0	correct_rejection	NA	0
11	Triplet	21	21	183	4	0	0	169339	691	0	correct_rejection	NA	0
11	Triplet	22	22	184	4	0	0	170047	692	0	correct_rejection	NA	0
11	Triplet	23	23	185	5	0	0	170756	691	0	correct_rejection	NA	0
11	Triplet	24	24	186	6	0	0	171464	692	0	correct_rejection	NA	0
11	Triplet	25	25	187	0	1	2	172173	692	1	hit	347	0
11	Triplet	26	26	188	7	0	0	172881	692	0	correct_rejection	NA	0
11	Triplet	27	27	189	8	0	0	173590	692	0	correct_rejection	NA	0
11	Triplet	28	28	190	9	0	0	174299	691	0	correct_rejection	NA	0
11	Triplet	29	29	191	9	0	0	175007	692	0	correct_rejection	NA	0
11	Triplet	30	30	192	8	0	0	175716	691	0	correct_rejection	NA	0
11	Triplet	31	31	193	7	0	0	176424	692	0	correct_rejection	NA	0
11	Triplet	32	32	194	7	0	0	177133	692	0	correct_rejection	NA	0
11	Triplet	33	33	195	8	0	0	177841	692	0	correct_rejection	NA	0
11	Triplet	34	34	196	9	0	0	178550	692	0	correct_rejection	NA	0
11	Triplet	35	35	197	6	0	0	179259	691	0	correct_rejection	NA	0
11	Triplet	36	36	198	5	0	0	179967	692	0	correct_rejection	NA	0
11	Triplet	37	37	199	4	0	0	180676	691	0	correct_rejection	NA	0
11	Triplet	38	38	200	6	0	0	181384	692	0	correct_rejection	NA	0
11	Triplet	39	39	201	5	0	0	182093	691	0	correct_rejection	NA	0
11	Triplet	40	40	202	4	0	0	182801	692	0	correct_rejection	NA	0
11	Triplet	41	41	203	9	0	0	183510	692	0	correct_rejection	NA	0
11	Triplet	42	42	204	8	0	0	184218	692	0	correct_rejection	NA	0
11	Triplet	43	43	205	7	0	0	184927	692	0	correct_rejection	NA	0
11	Triplet	44	44	206	9	0	0	185636	691	0	correct_rejection	NA	0
11	Triplet	45	45	207	8	0	0	186344	692	0	correct_rejection	NA	0
11	Triplet	46	46	208	7	0	0	187053	691	0	correct_rejection	NA	0
11	Triplet	47	47	209	0	1	2	187761	692	1	hit	382	0
11	Triplet	48	48	210	4	0	0	188470	692	0	correct_rejection	NA	0
11	Triplet	49	49	211	5	0	0	189178	692	0	correct_rejection	NA	0
11	Triplet	50	50	212	0	1	1	189887	692	1	hit	632	0
11	Triplet	51	51	213	6	0	0	190596	691	0	correct_rejection	NA	0
11	Triplet	52	52	214	4	0	0	191304	692	0	correct_rejection	NA	0
11	Triplet	53	53	215	5	0	0	192013	691	0	correct_rejection	NA	0
11	Triplet	54	54	216	6	0	0	192721	692	0	correct_rejection	NA	0
11	Triplet	55	55	217	9	0	0	193430	692	0	correct_rejection	NA	0
11	Triplet	56	56	218	8	0	0	194138	692	0	correct_rejection	NA	0
11	Triplet	57	57	219	7	0	0	194847	692	0	correct_rejection	NA	0
11	Triplet	58	58	220	4	0	0	195556	691	0	correct_rejection	NA	0
11	Triplet	59	59	221	5	0	0	196264	692	0	correct_rejection	NA	0
11	Triplet	60	60	222	6	0	0	196973	691	0	correct_rejection	NA	0
11	Triplet	61	61	223	0	1	2	197681	692	1	hit	368	0
11	Triplet	62	62	224	6	0	0	198390	692	0	correct_rejection	NA	0
11	Triplet	63	63	225	5	0	0	199098	692	0	correct_rejection	NA	0
11	Triplet	64	64	226	0	1	1	199807	692	1	hit	487	0
11	Triplet	65	65	227	4	0	0	200516	691	0	correct_rejection	NA	0
11	Triplet	66	66	228	6	0	0	201224	692	0	correct_rejection	NA	0
11	Triplet	67	67	229	5	0	0	201933	691	0	correct_rejection	NA	0
11	Triplet	68	68	230	4	0	0	202641	692	0	correct_rejection	NA	0
11	Triplet	69	69	231	0	1	2	203350	691	1	hit	400	0
11	Triplet	70	70	232	7	0	0	204058	692	0	correct_rejection	NA	0
11	Triplet	71	71	233	8	0	0	204767	692	0	correct_rejection	NA	0
11	Triplet	72	72	234	0	1	1	205475	692	1	hit	417	0
11	Triplet	73	73	235	9	0	0	206184	692	0	correct_rejection	NA	0
11	Triplet	74	74	236	4	0	0	206893	691	0	correct_rejection	NA	0
11	Triplet	75	75	237	0	1	1	207601	692	1	hit	401	0
11	Triplet	76	76	238	5	0	0	208310	692	0	correct_rejection	NA	0
11	Triplet	77	77	239	6	0	0	209018	692	0	correct_rejection	NA	0
11	Triplet	78	78	240	9	0	0	209727	692	0	correct_rejection	NA	0
11	Triplet	79	79	241	8	0	0	210435	692	0	correct_rejection	NA	0
11	Triplet	80	80	242	7	0	0	211144	692	0	correct_rejection	NA	0
11	Triplet	81	81	243	7	0	0	211853	691	0	correct_rejection	NA	0
11	Triplet	82	82	244	8	0	0	212561	692	0	correct_rejection	NA	0
11	Triplet	83	83	245	9	0	0	213270	691	0	correct_rejection	NA	0
11	Triplet	84	84	246	0	1	2	213978	692	1	hit	416	0
11	Triplet	85	85	247	9	0	0	214687	692	0	correct_rejection	NA	0
11	Triplet	86	86	248	8	0	0	215395	692	0	correct_rejection	NA	0
11	Triplet	87	87	249	7	0	0	216104	692	0	correct_rejection	NA	0
11	Triplet	88	88	250	6	0	0	216813	691	0	correct_rejection	NA	0
11	Triplet	89	89	251	5	0	0	217521	692	0	correct_rejection	NA	0
11	Triplet	90	90	252	4	0	0	218230	691	0	correct_rejection	NA	0
11	Triplet	91	91	253	4	0	0	218938	692	0	correct_rejection	NA	0
11	Triplet	92	92	254	5	0	0	219647	692	0	correct_rejection	NA	0
11	Triplet	93	93	255	6	0	0	220355	692	0	correct_rejection	NA	0
11	Triplet	94	94	256	4	0	0	221064	692	0	correct_rejection	NA	0
11	Triplet	95	95	257	0	1	1	221773	691	1	hit	456	0
11	Triplet	96	96	258	5	0	0	222481	692	0	correct_rejection	NA	0
11	Triplet	97	97	259	6	0	0	223190	691	0	correct_rejection	NA	0
11	Triplet	98	98	260	7	0	0	223898	692	0	correct_rejection	NA	0
11	Triplet	99	99	261	8	0	0	224607	691	0	correct_rejection	NA	0
11	Triplet	100	100	262	9	0	0	225315	692	0	correct_rejection	NA	0
11	Triplet	101	101	263	7	0	0	226024	692	0	correct_rejection	NA	0
11	Triplet	102	102	264	8	0	0	226733	691	0	correct_rejection	NA	0
11	Triplet	103	103	265	9	0	0	227441	692	0	correct_rejection	NA	0
11	Triplet	104	104	266	6	0	0	228150	691	0	correct_rejection	NA	0
11	Triplet	105	105	267	5	0	0	228858	692	0	correct_rejection	NA	0
11	Triplet	106	106	268	4	0	0	229567	691	0	correct_rejection	NA	0
11	Triplet	107	107	269	9	0	0	230275	692	0	correct_rejection	NA	0
11	Triplet	108	108	270	8	0	0	230984	692	0	correct_rejection	NA	0
11	Triplet	109	109	271	0	1	1	231692	692	1	hit	431	0
11	Triplet	110	110	272	7	0	0	232401	692	0	correct_rejection	NA	0
11	Triplet	111	111	273	7	0	0	233110	691	0	correct_rejection	NA	0
11	Triplet	112	112	274	8	0	0	233818	692	0	correct_rejection	NA	0
11	Triplet	113	113	275	9	0	0	234527	691	0	correct_rejection	NA	0
11	Triplet	114	114	276	4	0	0	235235	692	0	correct_rejection	NA	0
11	Triplet	115	115	277	5	0	0	235944	692	0	correct_rejection	NA	0
11	Triplet	116	116	278	6	0	0	236652	692	0	correct_rejection	NA	0
11	Triplet	117	117	279	4	0	0	237361	692	0	correct_rejection	NA	0
11	Triplet	118	118	280	5	0	0	238070	691	0	correct_rejection	NA	0
11	Triplet	119	119	281	6	0	0	238778	692	0	correct_rejection	NA	0
11	Triplet	120	120	282	0	1	2	239487	691	1	hit	404	0
11	Triplet	121	121	283	9	0	0	240195	692	0	correct_rejection	NA	0
11	Triplet	122	122	284	8	0	0	240904	692	0	correct_rejection	NA	0
11	Triplet	123	123	285	7	0	0	241612	692	0	correct_rejection	NA	0
11	Triplet	124	124	286	4	0	0	242321	692	0	correct_rejection	NA	0
11	Triplet	125	125	287	5	0	0	243030	691	0	correct_rejection	NA	0
11	Triplet	126	126	288	6	0	0	243738	692	0	correct_rejection	NA	0
11	Triplet	127	127	289	7	0	0	244447	691	0	correct_rejection	NA	0
11	Triplet	128	128	290	8	0	0	245155	692	0	correct_rejection	NA	0
11	Triplet	129	129	291	0	1	1	245864	692	1	hit	407	0
11	Triplet	130	130	292	9	0	0	246572	692	0	correct_rejection	NA	0
11	Triplet	131	131	293	6	0	0	247281	692	0	correct_rejection	NA	0
11	Triplet	132	132	294	5	0	0	247990	691	0	correct_rejection	NA	0
11	Triplet	133	133	295	4	0	0	248698	692	0	correct_rejection	NA	0
11	Triplet	134	134	296	0	1	2	249407	691	1	hit	381	0
11	Triplet	135	135	297	4	0	0	250115	692	0	correct_rejection	NA	0
11	Triplet	136	136	298	5	0	0	250824	691	0	correct_rejection	NA	0
11	Triplet	137	137	299	6	0	0	251532	692	0	correct_rejection	NA	0
11	Triplet	138	138	300	6	0	0	252241	692	0	correct_rejection	NA	0
11	Triplet	139	139	301	5	0	0	252949	692	0	correct_rejection	NA	0
11	Triplet	140	140	302	4	0	0	253658	692	0	correct_rejection	NA	0
11	Triplet	141	141	303	9	0	0	254367	691	0	correct_rejection	NA	0
11	Triplet	142	142	304	8	0	0	255075	692	0	correct_rejection	NA	0
11	Triplet	143	143	305	7	0	0	255784	691	0	correct_rejection	NA	0
11	Triplet	144	144	306	7	0	0	256492	692	0	correct_rejection	NA	0
11	Triplet	145	145	307	8	0	0	257201	692	0	correct_rejection	NA	0
11	Triplet	146	146	308	9	0	0	257909	692	0	correct_rejection	NA	0
11	Triplet	147	147	309	7	0	0	258618	692	0	correct_rejection	NA	0
11	Triplet	148	148	310	8	0	0	259327	691	0	correct_rejection	NA	0
11	Triplet	149	149	311	9	0	0	260035	692	0	correct_rejection	NA	0
11	Triplet	150	150	312	9	0	0	260744	691	0	correct_rejection	NA	0
11	Triplet	151	151	313	0	1	1	261452	692	1	hit	396	0
11	Triplet	152	152	314	8	0	0	262161	692	0	correct_rejection	NA	0
11	Triplet	153	153	315	7	0	0	262869	692	0	correct_rejection	NA	0
11	Triplet	154	154	316	9	0	0	263578	692	0	correct_rejection	NA	0
11	Triplet	155	155	317	8	0	0	264287	691	0	correct_rejection	NA	0
11	Triplet	156	156	318	7	0	0	264995	692	0	correct_rejection	NA	0
11	Triplet	157	157	319	6	0	0	265704	691	0	correct_rejection	NA	0
11	Triplet	158	158	320	5	0	0	266412	692	0	correct_rejection	NA	0
11	Triplet	159	159	321	4	0	0	267121	692	0	correct_rejection	NA	0
11	Triplet	160	160	322	6	0	0	267829	692	0	correct_rejection	NA	0
11	Triplet	161	161	323	5	0	0	268538	692	0	correct_rejection	NA	0
11	Triplet	162	162	324	4	0	0	269247	691	0	correct_rejection	NA	0
11	Single	1	163	325	8	0	0	278325	691	0	correct_rejection	NA	6999
11	Single	2	164	326	6	0	0	279033	692	0	correct_rejection	NA	0
11	Single	3	165	327	7	0	0	279742	691	0	correct_rejection	NA	0
11	Single	4	166	328	5	0	0	280450	692	0	correct_rejection	NA	0
11	Single	5	167	329	0	1	1	281159	691	1	hit	509	0
11	Single	6	168	330	5	0	0	281867	692	0	correct_rejection	NA	0
11	Single	7	169	331	7	0	0	282576	692	0	correct_rejection	NA	0
11	Single	8	170	332	6	0	0	283284	692	0	correct_rejection	NA	0
11	Single	9	171	333	0	1	1	283993	692	1	hit	508	0
11	Single	10	172	334	8	0	0	284702	691	0	correct_rejection	NA	0
11	Single	11	173	335	7	0	0	285410	692	0	correct_rejection	NA	0
11	Single	12	174	336	7	0	0	286119	691	0	correct_rejection	NA	0
11	Single	13	175	337	8	0	0	286827	692	0	correct_rejection	NA	0
11	Single	14	176	338	8	0	0	287536	692	0	correct_rejection	NA	0
11	Single	15	177	339	4	0	0	288244	692	0	correct_rejection	NA	0
11	Single	16	178	340	7	0	0	288953	692	0	correct_rejection	NA	0
11	Single	17	179	341	0	1	1	289662	691	1	hit	468	0
11	Single	18	180	342	9	0	0	290370	692	0	correct_rejection	NA	0
11	Single	19	181	343	6	0	0	291079	691	0	correct_rejection	NA	0
11	Single	20	182	344	5	0	0	291787	692	0	correct_rejection	NA	0
11	Single	21	183	345	9	0	0	292496	692	0	correct_rejection	NA	0
11	Single	22	184	346	7	0	0	293204	692	0	correct_rejection	NA	0
11	Single	23	185	347	4	0	0	293913	692	0	correct_rejection	NA	0
11	Single	24	186	348	4	0	0	294622	691	0	correct_rejection	NA	0
11	Single	25	187	349	0	1	1	295330	692	1	hit	618	0
11	Single	26	188	350	6	0	0	296039	691	0	correct_rejection	NA	0
11	Single	27	189	351	9	0	0	296747	692	0	correct_rejection	NA	0
11	Single	28	190	352	9	0	0	297456	691	0	correct_rejection	NA	0
11	Single	29	191	353	5	0	0	298164	692	0	correct_rejection	NA	0
11	Single	30	192	354	6	0	0	298873	692	0	correct_rejection	NA	0
11	Single	31	193	355	6	0	0	299582	691	0	correct_rejection	NA	0
11	Single	32	194	356	0	1	1	300290	692	1	hit	392	0
11	Single	33	195	357	4	0	0	300999	691	0	correct_rejection	NA	0
11	Single	34	196	358	8	0	0	301707	692	0	correct_rejection	NA	0
11	Single	35	197	359	5	0	0	302416	691	0	correct_rejection	NA	0
11	Single	36	198	360	4	0	0	303124	692	0	correct_rejection	NA	0
11	Single	37	199	361	9	0	0	303833	692	0	correct_rejection	NA	0
11	Single	38	200	362	4	0	0	304541	692	0	correct_rejection	NA	0
11	Single	39	201	363	5	0	0	305250	692	0	correct_rejection	NA	0
11	Single	40	202	364	8	0	0	305959	691	0	correct_rejection	NA	0
11	Single	41	203	365	9	0	0	306667	692	0	correct_rejection	NA	0
11	Single	42	204	366	9	0	0	307376	691	0	correct_rejection	NA	0
11	Single	43	205	367	7	0	0	308084	692	0	correct_rejection	NA	0
11	Single	44	206	368	6	0	0	308793	692	0	correct_rejection	NA	0
11	Single	45	207	369	9	0	0	309501	692	0	correct_rejection	NA	0
11	Single	46	208	370	6	0	0	310210	692	0	correct_rejection	NA	0
11	Single	47	209	371	8	0	0	310919	691	0	correct_rejection	NA	0
11	Single	48	210	372	0	1	1	311627	692	1	hit	459	0
11	Single	49	211	373	4	0	0	312336	691	0	correct_rejection	NA	0
11	Single	50	212	374	8	0	0	313044	692	0	correct_rejection	NA	0
11	Single	51	213	375	8	0	0	313753	692	0	correct_rejection	NA	0
11	Single	52	214	376	0	1	1	314461	692	1	hit	449	0
11	Single	53	215	377	5	0	0	315170	692	0	correct_rejection	NA	0
11	Single	54	216	378	7	0	0	315879	691	0	correct_rejection	NA	0
11	Single	55	217	379	7	0	0	316587	692	0	correct_rejection	NA	0
11	Single	56	218	380	5	0	0	317296	691	0	correct_rejection	NA	0
11	Single	57	219	381	6	0	0	318004	692	0	correct_rejection	NA	0
11	Single	58	220	382	4	0	0	318713	692	0	correct_rejection	NA	0
11	Single	59	221	383	7	0	0	319421	692	0	correct_rejection	NA	0
11	Single	60	222	384	0	1	1	320130	692	1	hit	532	0
11	Single	61	223	385	4	0	0	320839	691	0	correct_rejection	NA	0
11	Single	62	224	386	6	0	0	321547	692	0	correct_rejection	NA	0
11	Single	63	225	387	5	0	0	322256	691	0	correct_rejection	NA	0
11	Single	64	226	388	5	0	0	322964	692	0	correct_rejection	NA	0
11	Single	65	227	389	8	0	0	323673	691	0	correct_rejection	NA	0
11	Single	66	228	390	0	1	1	324381	692	1	hit	393	0
11	Single	67	229	391	7	0	0	325090	692	0	correct_rejection	NA	0
11	Single	68	230	392	8	0	0	325798	692	0	correct_rejection	NA	0
11	Single	69	231	393	9	0	0	326507	692	0	correct_rejection	NA	0
11	Single	70	232	394	0	1	1	327216	691	1	hit	379	0
11	Single	71	233	395	4	0	0	327924	692	0	correct_rejection	NA	0
11	Single	72	234	396	9	0	0	328633	691	0	correct_rejection	NA	0
11	Single	73	235	397	5	0	0	329341	692	0	correct_rejection	NA	0
11	Single	74	236	398	4	0	0	330050	692	0	correct_rejection	NA	0
11	Single	75	237	399	4	0	0	330758	692	0	correct_rejection	NA	0
11	Single	76	238	400	5	0	0	331467	692	0	correct_rejection	NA	0
11	Single	77	239	401	0	1	1	332176	691	1	hit	340	0
11	Single	78	240	402	9	0	0	332884	692	0	correct_rejection	NA	0
11	Single	79	241	403	9	0	0	333593	691	0	correct_rejection	NA	0
11	Single	80	242	404	8	0	0	334301	692	0	correct_rejection	NA	0
11	Single	81	243	405	6	0	0	335010	692	0	correct_rejection	NA	0
11	Single	82	244	406	6	0	0	335718	692	0	correct_rejection	NA	0
11	Single	83	245	407	7	0	0	336427	692	0	correct_rejection	NA	0
11	Single	84	246	408	7	0	0	337136	691	0	correct_rejection	NA	0
11	Single	85	247	409	5	0	0	337844	692	0	correct_rejection	NA	0
11	Single	86	248	410	7	0	0	338553	691	0	correct_rejection	NA	0
11	Single	87	249	411	9	0	0	339261	692	0	correct_rejection	NA	0
11	Single	88	250	412	9	0	0	339970	692	0	correct_rejection	NA	0
11	Single	89	251	413	7	0	0	340678	692	0	correct_rejection	NA	0
11	Single	90	252	414	7	0	0	341387	692	0	correct_rejection	NA	0
11	Single	91	253	415	4	0	0	342096	691	0	correct_rejection	NA	0
11	Single	92	254	416	8	0	0	342804	692	0	correct_rejection	NA	0
11	Single	93	255	417	7	0	0	343513	691	0	correct_rejection	NA	0
11	Single	94	256	418	6	0	0	344221	692	0	correct_rejection	NA	0
11	Single	95	257	419	5	0	0	344930	691	0	correct_rejection	NA	0
11	Single	96	258	420	6	0	0	345638	692	0	correct_rejection	NA	0
11	Single	97	259	421	7	0	0	346347	692	0	correct_rejection	NA	0
11	Single	98	260	422	8	0	0	347055	692	0	correct_rejection	NA	0
11	Single	99	261	423	5	0	0	347764	692	0	correct_rejection	NA	0
11	Single	100	262	424	9	0	0	348473	691	0	correct_rejection	NA	0
11	Single	101	263	425	4	0	0	349181	692	0	correct_rejection	NA	0
11	Single	102	264	426	4	0	0	349890	691	0	correct_rejection	NA	0
11	Single	103	265	427	9	0	0	350598	692	0	correct_rejection	NA	0
11	Single	104	266	428	0	1	1	351307	692	1	hit	407	0
11	Single	105	267	429	8	0	0	352015	692	0	correct_rejection	NA	0
11	Single	106	268	430	9	0	0	352724	692	0	correct_rejection	NA	0
11	Single	107	269	431	6	0	0	353433	691	0	correct_rejection	NA	0
11	Single	108	270	432	9	0	0	354141	692	0	correct_rejection	NA	0
11	Single	109	271	433	0	1	1	354850	691	1	hit	435	0
11	Single	110	272	434	5	0	0	355558	692	0	correct_rejection	NA	0
11	Single	111	273	435	8	0	0	356267	692	0	correct_rejection	NA	0
11	Single	112	274	436	4	0	0	356975	692	0	correct_rejection	NA	0
11	Single	113	275	437	5	0	0	357684	692	0	correct_rejection	NA	0
11	Single	114	276	438	5	0	0	358393	691	0	correct_rejection	NA	0
11	Single	115	277	439	4	0	0	359101	692	0	correct_rejection	NA	0
11	Single	116	278	440	6	0	0	359810	691	0	correct_rejection	NA	0
11	Single	117	279	441	6	0	0	360518	692	0	correct_rejection	NA	0
11	Single	118	280	442	8	0	0	361227	692	0	correct_rejection	NA	0
11	Single	119	281	443	8	0	0	361935	692	0	correct_rejection	NA	0
11	Single	120	282	444	6	0	0	362644	692	0	correct_rejection	NA	0
11	Single	121	283	445	4	0	0	363353	691	0	correct_rejection	NA	0
11	Single	122	284	446	8	0	0	364061	692	0	correct_rejection	NA	0
11	Single	123	285	447	4	0	0	364770	691	0	correct_rejection	NA	0
11	Single	124	286	448	6	0	0	365478	692	0	correct_rejection	NA	0
11	Single	125	287	449	0	1	1	366187	691	1	hit	451	0
11	Single	126	288	450	9	0	0	366895	692	0	correct_rejection	NA	0
11	Single	127	289	451	8	0	0	367604	692	0	correct_rejection	NA	0
11	Single	128	290	452	8	0	0	368312	692	0	correct_rejection	NA	0
11	Single	129	291	453	0	1	1	369021	692	1	hit	548	0
11	Single	130	292	454	9	0	0	369730	691	0	correct_rejection	NA	0
11	Single	131	293	455	5	0	0	370438	692	0	correct_rejection	NA	0
11	Single	132	294	456	9	0	0	371147	691	0	correct_rejection	NA	0
11	Single	133	295	457	7	0	0	371855	692	0	correct_rejection	NA	0
11	Single	134	296	458	5	0	0	372564	692	0	correct_rejection	NA	0
11	Single	135	297	459	8	0	0	373272	692	0	correct_rejection	NA	0
11	Single	136	298	460	5	0	0	373981	692	0	correct_rejection	NA	0
11	Single	137	299	461	5	0	0	374690	691	0	correct_rejection	NA	0
11	Single	138	300	462	6	0	0	375398	692	0	correct_rejection	NA	0
11	Single	139	301	463	8	0	0	376107	691	0	correct_rejection	NA	0
11	Single	140	302	464	0	1	1	376815	692	1	hit	411	0
11	Single	141	303	465	6	0	0	377524	692	0	correct_rejection	NA	0
11	Single	142	304	466	7	0	0	378232	692	0	correct_rejection	NA	0
11	Single	143	305	467	9	0	0	378941	692	0	correct_rejection	NA	0
11	Single	144	306	468	6	0	0	379650	691	0	correct_rejection	NA	0
11	Single	145	307	469	0	1	1	380358	692	1	hit	501	0
11	Single	146	308	470	5	0	0	381067	691	0	correct_rejection	NA	0
11	Single	147	309	471	4	0	0	381775	692	0	correct_rejection	NA	0
11	Single	148	310	472	0	1	1	382484	692	1	hit	578	0
11	Single	149	311	473	5	0	0	383192	692	0	correct_rejection	NA	0
11	Single	150	312	474	7	0	0	383901	692	0	correct_rejection	NA	0
11	Single	151	313	475	8	0	0	384610	691	0	correct_rejection	NA	0
11	Single	152	314	476	7	0	0	385318	692	0	correct_rejection	NA	0
11	Single	153	315	477	4	0	0	386027	691	0	correct_rejection	NA	0
11	Single	154	316	478	4	0	0	386735	692	0	correct_rejection	NA	0
11	Single	155	317	479	7	0	0	387444	691	0	correct_rejection	NA	0
11	Single	156	318	480	7	0	0	388152	692	0	correct_rejection	NA	0
11	Single	157	319	481	6	0	0	388861	692	0	correct_rejection	NA	0
11	Single	158	320	482	6	0	0	389569	692	0	correct_rejection	NA	0
11	Single	159	321	483	4	0	0	390278	692	0	correct_rejection	NA	0
11	Single	160	322	484	9	0	0	390987	691	0	correct_rejection	NA	0
11	Single	161	323	485	9	0	0	391695	692	0	correct_rejection	NA	0
11	Single	162	324	486	4	0	0	392404	691	0	correct_rejection	NA	0
11	Nonet	1	325	487	4	0	0	401857	692	0	correct_rejection	NA	7529
11	Nonet	2	326	488	5	0	0	402565	692	0	correct_rejection	NA	0
11	Nonet	3	327	489	6	0	0	403274	692	0	correct_rejection	NA	0
11	Nonet	4	328	490	4	0	0	403983	691	0	correct_rejection	NA	0
11	Nonet	5	329	491	5	0	0	404691	692	0	correct_rejection	NA	0
11	Nonet	6	330	492	6	0	0	405400	691	0	correct_rejection	NA	0
11	Nonet	7	331	493	0	1	2	406108	692	1	hit	567	0
11	Nonet	8	332	494	4	0	0	406817	692	0	correct_rejection	NA	0
11	Nonet	9	333	495	5	0	0	407525	692	0	correct_rejection	NA	0
11	Nonet	10	334	496	6	0	0	408234	692	0	correct_rejection	NA	0
11	Nonet	11	335	497	6	0	0	408943	691	0	correct_rejection	NA	0
11	Nonet	12	336	498	0	1	1	409651	692	1	hit	472	0
11	Nonet	13	337	499	5	0	0	410360	691	0	correct_rejection	NA	0
11	Nonet	14	338	500	4	0	0	411068	692	0	correct_rejection	NA	0
11	Nonet	15	339	501	6	0	0	411777	691	0	correct_rejection	NA	0
11	Nonet	16	340	502	5	0	0	412485	692	0	correct_rejection	NA	0
11	Nonet	17	341	503	4	0	0	413194	692	0	correct_rejection	NA	0
11	Nonet	18	342	504	6	0	0	413903	691	0	correct_rejection	NA	0
11	Nonet	19	343	505	5	0	0	414611	692	0	correct_rejection	NA	0
11	Nonet	20	344	506	4	0	0	415320	691	0	correct_rejection	NA	0
11	Nonet	21	345	507	4	0	0	416028	692	0	correct_rejection	NA	0
11	Nonet	22	346	508	5	0	0	416737	691	0	correct_rejection	NA	0
11	Nonet	23	347	509	6	0	0	417445	692	0	correct_rejection	NA	0
11	Nonet	24	348	510	4	0	0	418154	692	0	correct_rejection	NA	0
11	Nonet	25	349	511	0	1	1	418862	692	1	hit	426	0
11	Nonet	26	350	512	5	0	0	419571	692	0	correct_rejection	NA	0
11	Nonet	27	351	513	6	0	0	420280	691	0	correct_rejection	NA	0
11	Nonet	28	352	514	4	0	0	420988	692	0	correct_rejection	NA	0
11	Nonet	29	353	515	5	0	0	421697	691	0	correct_rejection	NA	0
11	Nonet	30	354	516	6	0	0	422405	692	0	correct_rejection	NA	0
11	Nonet	31	355	517	9	0	0	423114	692	0	correct_rejection	NA	0
11	Nonet	32	356	518	8	0	0	423822	692	0	correct_rejection	NA	0
11	Nonet	33	357	519	7	0	0	424531	692	0	correct_rejection	NA	0
11	Nonet	34	358	520	9	0	0	425240	691	0	correct_rejection	NA	0
11	Nonet	35	359	521	8	0	0	425948	692	0	correct_rejection	NA	0
11	Nonet	36	360	522	7	0	0	426657	691	0	correct_rejection	NA	0
11	Nonet	37	361	523	9	0	0	427365	692	0	correct_rejection	NA	0
11	Nonet	38	362	524	8	0	0	428074	692	0	correct_rejection	NA	0
11	Nonet	39	363	525	7	0	0	428782	692	0	correct_rejection	NA	0
11	Nonet	40	364	526	4	0	0	429491	692	0	correct_rejection	NA	0
11	Nonet	41	365	527	5	0	0	430200	691	0	correct_rejection	NA	0
11	Nonet	42	366	528	6	0	0	430908	692	0	correct_rejection	NA	0
11	Nonet	43	367	529	4	0	0	431617	691	0	correct_rejection	NA	0
11	Nonet	44	368	530	5	0	0	432325	692	0	correct_rejection	NA	0
11	Nonet	45	369	531	0	1	1	433034	691	1	hit	410	0
11	Nonet	46	370	532	6	0	0	433742	692	0	correct_rejection	NA	0
11	Nonet	47	371	533	4	0	0	434451	692	0	correct_rejection	NA	0
11	Nonet	48	372	534	5	0	0	435160	691	0	correct_rejection	NA	0
11	Nonet	49	373	535	6	0	0	435868	692	0	correct_rejection	NA	0
11	Nonet	50	374	536	7	0	0	436577	691	0	correct_rejection	NA	0
11	Nonet	51	375	537	0	1	1	437285	692	1	hit	486	0
11	Nonet	52	376	538	8	0	0	437994	691	0	correct_rejection	NA	0
11	Nonet	53	377	539	9	0	0	438702	692	0	correct_rejection	NA	0
11	Nonet	54	378	540	7	0	0	439411	692	0	correct_rejection	NA	0
11	Nonet	55	379	541	8	0	0	440119	692	0	correct_rejection	NA	0
11	Nonet	56	380	542	9	0	0	440828	692	0	correct_rejection	NA	0
11	Nonet	57	381	543	7	0	0	441537	691	0	correct_rejection	NA	0
11	Nonet	58	382	544	8	0	0	442245	692	0	correct_rejection	NA	0
11	Nonet	59	383	545	9	0	0	442954	691	0	correct_rejection	NA	0
11	Nonet	60	384	546	9	0	0	443662	692	0	correct_rejection	NA	0
11	Nonet	61	385	547	8	0	0	444371	692	0	correct_rejection	NA	0
11	Nonet	62	386	548	7	0	0	445079	692	0	correct_rejection	NA	0
11	Nonet	63	387	549	9	0	0	445788	692	0	correct_rejection	NA	0
11	Nonet	64	388	550	8	0	0	446497	691	0	correct_rejection	NA	0
11	Nonet	65	389	551	0	1	1	447205	692	1	hit	418	0
11	Nonet	66	390	552	7	0	0	447914	691	0	correct_rejection	NA	0
11	Nonet	67	391	553	9	0	0	448622	692	0	correct_rejection	NA	0
11	Nonet	68	392	554	8	0	0	449331	692	0	correct_rejection	NA	0
11	Nonet	69	393	555	7	0	0	450039	692	0	correct_rejection	NA	0
11	Nonet	70	394	556	0	1	3	450748	692	1	hit	619	0
11	Nonet	71	395	557	9	0	0	451457	691	0	correct_rejection	NA	0
11	Nonet	72	396	558	8	0	0	452165	692	0	correct_rejection	NA	0
11	Nonet	73	397	559	7	0	0	452874	691	0	correct_rejection	NA	0
11	Nonet	74	398	560	9	0	0	453582	692	0	correct_rejection	NA	0
11	Nonet	75	399	561	8	0	0	454291	692	0	correct_rejection	NA	0
11	Nonet	76	400	562	7	0	0	454999	692	0	correct_rejection	NA	0
11	Nonet	77	401	563	9	0	0	455708	692	0	correct_rejection	NA	0
11	Nonet	78	402	564	0	1	1	456417	691	1	hit	417	0
11	Nonet	79	403	565	8	0	0	457125	692	0	correct_rejection	NA	0
11	Nonet	80	404	566	7	0	0	457834	691	0	correct_rejection	NA	0
11	Nonet	81	405	567	6	0	0	458542	692	0	correct_rejection	NA	0
11	Nonet	82	406	568	5	0	0	459251	691	0	correct_rejection	NA	0
11	Nonet	83	407	569	4	0	0	459959	692	0	correct_rejection	NA	0
11	Nonet	84	408	570	0	1	2	460668	692	1	hit	494	0
11	Nonet	85	409	571	6	0	0	461376	692	0	correct_rejection	NA	0
11	Nonet	86	410	572	5	0	0	462085	692	0	correct_rejection	NA	0
11	Nonet	87	411	573	4	0	0	462794	691	0	correct_rejection	NA	0
11	Nonet	88	412	574	6	0	0	463502	692	0	correct_rejection	NA	0
11	Nonet	89	413	575	5	0	0	464211	691	0	correct_rejection	NA	0
11	Nonet	90	414	576	4	0	0	464919	692	0	correct_rejection	NA	0
11	Nonet	91	415	577	7	0	0	465628	692	0	correct_rejection	NA	0
11	Nonet	92	416	578	8	0	0	466336	692	0	correct_rejection	NA	0
11	Nonet	93	417	579	9	0	0	467045	692	0	correct_rejection	NA	0
11	Nonet	94	418	580	7	0	0	467754	691	0	correct_rejection	NA	0
11	Nonet	95	419	581	8	0	0	468462	692	0	correct_rejection	NA	0
11	Nonet	96	420	582	9	0	0	469171	691	0	correct_rejection	NA	0
11	Nonet	97	421	583	7	0	0	469879	692	0	correct_rejection	NA	0
11	Nonet	98	422	584	8	0	0	470588	692	0	correct_rejection	NA	0
11	Nonet	99	423	585	9	0	0	471296	692	0	correct_rejection	NA	0
11	Nonet	100	424	586	6	0	0	472005	692	0	correct_rejection	NA	0
11	Nonet	101	425	587	0	1	1	472714	691	1	hit	328	0
11	Nonet	102	426	588	5	0	0	473422	692	0	correct_rejection	NA	0
11	Nonet	103	427	589	4	0	0	474131	691	0	correct_rejection	NA	0
11	Nonet	104	428	590	6	0	0	474839	692	0	correct_rejection	NA	0
11	Nonet	105	429	591	5	0	0	475548	692	0	correct_rejection	NA	0
11	Nonet	106	430	592	4	0	0	476256	692	0	correct_rejection	NA	0
11	Nonet	107	431	593	6	0	0	476965	692	0	correct_rejection	NA	0
11	Nonet	108	432	594	5	0	0	477674	691	0	correct_rejection	NA	0
11	Nonet	109	433	595	4	0	0	478382	692	0	correct_rejection	NA	0
11	Nonet	110	434	596	0	1	3	479091	691	1	hit	475	0
11	Nonet	111	435	597	6	0	0	479799	692	0	correct_rejection	NA	0
11	Nonet	112	436	598	5	0	0	480508	691	0	correct_rejection	NA	0
11	Nonet	113	437	599	0	1	1	481216	692	1	hit	513	0
11	Nonet	114	438	600	4	0	0	481925	692	0	correct_rejection	NA	0
11	Nonet	115	439	601	6	0	0	482633	692	0	correct_rejection	NA	0
11	Nonet	116	440	602	5	0	0	483342	692	0	correct_rejection	NA	0
11	Nonet	117	441	603	4	0	0	484051	691	0	correct_rejection	NA	0
11	Nonet	118	442	604	6	0	0	484759	692	0	correct_rejection	NA	0
11	Nonet	119	443	605	5	0	0	485468	691	0	correct_rejection	NA	0
11	Nonet	120	444	606	4	0	0	486176	692	0	correct_rejection	NA	0
11	Nonet	121	445	607	9	0	0	486885	692	0	correct_rejection	NA	0
11	Nonet	122	446	608	8	0	0	487593	692	0	correct_rejection	NA	0
11	Nonet	123	447	609	0	1	1	488302	692	1	hit	390	0
11	Nonet	124	448	610	7	0	0	489011	691	0	correct_rejection	NA	0
11	Nonet	125	449	611	9	0	0	489719	692	0	correct_rejection	NA	0
11	Nonet	126	450	612	8	0	0	490428	691	0	correct_rejection	NA	0
11	Nonet	127	451	613	7	0	0	491136	692	0	correct_rejection	NA	0
11	Nonet	128	452	614	9	0	0	491845	692	0	correct_rejection	NA	0
11	Nonet	129	453	615	8	0	0	492553	692	0	correct_rejection	NA	0
11	Nonet	130	454	616	7	0	0	493262	692	0	correct_rejection	NA	0
11	Nonet	131	455	617	0	1	3	493971	691	1	hit	363	0
11	Nonet	132	456	618	7	0	0	494679	692	0	correct_rejection	NA	0
11	Nonet	133	457	619	8	0	0	495388	691	0	correct_rejection	NA	0
11	Nonet	134	458	620	9	0	0	496096	692	0	correct_rejection	NA	0
11	Nonet	135	459	621	7	0	0	496805	692	0	correct_rejection	NA	0
11	Nonet	136	460	622	8	0	0	497513	692	0	correct_rejection	NA	0
11	Nonet	137	461	623	0	1	1	498222	692	1	hit	270	0
11	Nonet	138	462	624	9	0	0	498931	691	0	correct_rejection	NA	0
11	Nonet	139	463	625	7	0	0	499639	692	0	correct_rejection	NA	0
11	Nonet	140	464	626	8	0	0	500348	691	0	correct_rejection	NA	0
11	Nonet	141	465	627	9	0	0	501056	692	0	correct_rejection	NA	0
11	Nonet	142	466	628	0	1	3	501765	691	1	hit	386	0
11	Nonet	143	467	629	7	0	0	502473	692	0	correct_rejection	NA	0
11	Nonet	144	468	630	8	0	0	503182	692	0	correct_rejection	NA	0
11	Nonet	145	469	631	9	0	0	503890	692	0	correct_rejection	NA	0
11	Nonet	146	470	632	7	0	0	504599	692	0	correct_rejection	NA	0
11	Nonet	147	471	633	8	0	0	505308	691	0	correct_rejection	NA	0
11	Nonet	148	472	634	9	0	0	506016	692	0	correct_rejection	NA	0
11	Nonet	149	473	635	7	0	0	506725	691	0	correct_rejection	NA	0
11	Nonet	150	474	636	8	0	0	507433	692	0	correct_rejection	NA	0
11	Nonet	151	475	637	9	0	0	508142	692	0	correct_rejection	NA	0
11	Nonet	152	476	638	4	0	0	508850	692	0	correct_rejection	NA	0
11	Nonet	153	477	639	5	0	0	509559	692	0	correct_rejection	NA	0
11	Nonet	154	478	640	0	1	1	510268	691	1	hit	382	0
11	Nonet	155	479	641	6	0	0	510976	692	0	correct_rejection	NA	0
11	Nonet	156	480	642	4	0	0	511685	691	0	correct_rejection	NA	0
11	Nonet	157	481	643	0	1	1	512393	692	1	hit	418	0
11	Nonet	158	482	644	5	0	0	513102	692	0	correct_rejection	NA	0
11	Nonet	159	483	645	6	0	0	513810	692	0	correct_rejection	NA	0
11	Nonet	160	484	646	4	0	0	514519	692	0	correct_rejection	NA	0
11	Nonet	161	485	647	5	0	0	515228	691	0	correct_rejection	NA	0
11	Nonet	162	486	648	6	0	0	515936	692	0	correct_rejection	NA	0
11	Correct	1	487	649	4	0	0	526039	692	0	correct_rejection	NA	7709
11	Correct	2	488	650	5	0	0	526748	692	0	correct_rejection	NA	0
11	Correct	3	489	651	6	0	0	527457	691	0	correct_rejection	NA	0
11	Correct	4	490	652	4	0	0	528165	692	0	correct_rejection	NA	0
11	Correct	5	491	653	0	1	1	528874	691	1	hit	562	0
11	Correct	6	492	654	5	0	0	529582	692	0	correct_rejection	NA	0
11	Correct	7	493	655	6	0	0	530291	692	0	correct_rejection	NA	0
11	Correct	8	494	656	0	1	2	530999	692	1	hit	343	0
11	Correct	9	495	657	4	0	0	531708	692	0	correct_rejection	NA	0
11	Correct	10	496	658	5	0	0	532417	691	0	correct_rejection	NA	0
11	Correct	11	497	659	6	0	0	533125	692	0	correct_rejection	NA	0
11	Correct	12	498	660	6	0	0	533834	691	0	correct_rejection	NA	0
11	Correct	13	499	661	5	0	0	534542	692	0	correct_rejection	NA	0
11	Correct	14	500	662	4	0	0	535251	692	0	correct_rejection	NA	0
11	Correct	15	501	663	0	1	2	535959	692	1	hit	281	0
11	Correct	16	502	664	6	0	0	536668	692	0	correct_rejection	NA	0
11	Correct	17	503	665	5	0	0	537377	691	0	correct_rejection	NA	0
11	Correct	18	504	666	4	0	0	538085	692	0	correct_rejection	NA	0
11	Correct	19	505	667	6	0	0	538794	691	0	correct_rejection	NA	0
11	Correct	20	506	668	0	1	1	539502	692	1	hit	393	0
11	Correct	21	507	669	5	0	0	540211	691	0	correct_rejection	NA	0
11	Correct	22	508	670	4	0	0	540919	692	0	correct_rejection	NA	0
11	Correct	23	509	671	9	0	0	541628	692	0	correct_rejection	NA	0
11	Correct	24	510	672	8	0	0	542336	692	0	correct_rejection	NA	0
11	Correct	25	511	673	7	0	0	543045	692	0	correct_rejection	NA	0
11	Correct	26	512	674	9	0	0	543754	691	0	correct_rejection	NA	0
11	Correct	27	513	675	0	1	1	544462	692	1	hit	338	0
11	Correct	28	514	676	8	0	0	545171	691	0	correct_rejection	NA	0
11	Correct	29	515	677	7	0	0	545879	692	0	correct_rejection	NA	0
11	Correct	30	516	678	9	0	0	546588	692	0	correct_rejection	NA	0
11	Correct	31	517	679	8	0	0	547296	692	0	correct_rejection	NA	0
11	Correct	32	518	680	0	1	1	548005	692	1	hit	401	0
11	Correct	33	519	681	7	0	0	548714	691	0	correct_rejection	NA	0
11	Correct	34	520	682	7	0	0	549422	692	0	correct_rejection	NA	0
11	Correct	35	521	683	8	0	0	550131	691	0	correct_rejection	NA	0
11	Correct	36	522	684	9	0	0	550839	692	0	correct_rejection	NA	0
11	Correct	37	523	685	7	0	0	551548	692	0	correct_rejection	NA	0
11	Correct	38	524	686	8	0	0	552256	692	0	correct_rejection	NA	0
11	Correct	39	525	687	9	0	0	552965	692	0	correct_rejection	NA	0
11	Correct	40	526	688	7	0	0	553674	691	0	correct_rejection	NA	0
11	Correct	41	527	689	8	0	0	554382	692	0	correct_rejection	NA	0
11	Correct	42	528	690	9	0	0	555091	691	0	correct_rejection	NA	0
11	Correct	43	529	691	4	0	0	555799	692	0	correct_rejection	NA	0
11	Correct	44	530	692	5	0	0	556508	692	0	correct_rejection	NA	0
11	Correct	45	531	693	6	0	0	557216	692	0	correct_rejection	NA	0
11	Correct	46	532	694	4	0	0	557925	692	0	correct_rejection	NA	0
11	Correct	47	533	695	5	0	0	558634	691	0	correct_rejection	NA	0
11	Correct	48	534	696	6	0	0	559342	692	0	correct_rejection	NA	0
11	Correct	49	535	697	4	0	0	560051	691	0	correct_rejection	NA	0
11	Correct	50	536	698	5	0	0	560759	692	0	correct_rejection	NA	0
11	Correct	51	537	699	0	1	1	561468	691	1	hit	316	0
11	Correct	52	538	700	6	0	0	562176	692	0	correct_rejection	NA	0
11	Correct	53	539	701	6	0	0	562885	692	0	correct_rejection	NA	0
11	Correct	54	540	702	5	0	0	563593	692	0	correct_rejection	NA	0
11	Correct	55	541	703	4	0	0	564302	692	0	correct_rejection	NA	0
11	Correct	56	542	704	6	0	0	565011	691	0	correct_rejection	NA	0
11	Correct	57	543	705	5	0	0	565719	692	0	correct_rejection	NA	0
11	Correct	58	544	706	4	0	0	566428	691	0	correct_rejection	NA	0
11	Correct	59	545	707	0	1	2	567136	692	1	hit	285	0
11	Correct	60	546	708	6	0	0	567845	692	0	correct_rejection	NA	0
11	Correct	61	547	709	5	0	0	568553	692	0	correct_rejection	NA	0
11	Correct	62	548	710	0	1	1	569262	692	1	hit	493	0
11	Correct	63	549	711	4	0	0	569971	691	0	correct_rejection	NA	0
11	Correct	64	550	712	9	0	0	570679	692	0	correct_rejection	NA	0
11	Correct	65	551	713	0	1	1	571388	691	1	hit	589	0
11	Correct	66	552	714	8	0	0	572096	692	0	correct_rejection	NA	0
11	Correct	67	553	715	7	0	0	572805	692	0	correct_rejection	NA	0
11	Correct	68	554	716	9	0	0	573513	692	0	correct_rejection	NA	0
11	Correct	69	555	717	8	0	0	574222	692	0	correct_rejection	NA	0
11	Correct	70	556	718	0	1	1	574931	691	1	hit	346	0
11	Correct	71	557	719	7	0	0	575639	692	0	correct_rejection	NA	0
11	Correct	72	558	720	9	0	0	576348	691	0	correct_rejection	NA	0
11	Correct	73	559	721	8	0	0	577056	692	0	correct_rejection	NA	0
11	Correct	74	560	722	7	0	0	577765	692	0	correct_rejection	NA	0
11	Correct	75	561	723	7	0	0	578473	692	0	correct_rejection	NA	0
11	Correct	76	562	724	8	0	0	579182	692	0	correct_rejection	NA	0
11	Correct	77	563	725	9	0	0	579891	691	0	correct_rejection	NA	0
11	Correct	78	564	726	7	0	0	580599	692	0	correct_rejection	NA	0
11	Correct	79	565	727	8	0	0	581308	691	0	correct_rejection	NA	0
11	Correct	80	566	728	9	0	0	582016	692	0	correct_rejection	NA	0
11	Correct	81	567	729	7	0	0	582725	691	0	correct_rejection	NA	0
11	Correct	82	568	730	8	0	0	583433	692	0	correct_rejection	NA	0
11	Correct	83	569	731	9	0	0	584142	692	0	correct_rejection	NA	0
11	Correct	84	570	732	4	0	0	584850	692	0	correct_rejection	NA	0
11	Correct	85	571	733	5	0	0	585559	692	0	correct_rejection	NA	0
11	Correct	86	572	734	6	0	0	586268	691	0	correct_rejection	NA	0
11	Correct	87	573	735	4	0	0	586976	692	0	correct_rejection	NA	0
11	Correct	88	574	736	5	0	0	587685	691	0	correct_rejection	NA	0
11	Correct	89	575	737	0	1	1	588393	692	1	hit	385	0
11	Correct	90	576	738	6	0	0	589102	692	0	correct_rejection	NA	0
11	Correct	91	577	739	4	0	0	589810	692	0	correct_rejection	NA	0
11	Correct	92	578	740	5	0	0	590519	692	0	correct_rejection	NA	0
11	Correct	93	579	741	6	0	0	591228	691	0	correct_rejection	NA	0
11	Correct	94	580	742	6	0	0	591936	692	0	correct_rejection	NA	0
11	Correct	95	581	743	0	1	1	592645	691	1	hit	425	0
11	Correct	96	582	744	5	0	0	593353	692	0	correct_rejection	NA	0
11	Correct	97	583	745	4	0	0	594062	692	0	correct_rejection	NA	0
11	Correct	98	584	746	6	0	0	594770	692	0	correct_rejection	NA	0
11	Correct	99	585	747	5	0	0	595479	692	0	correct_rejection	NA	0
11	Correct	100	586	748	4	0	0	596188	691	0	correct_rejection	NA	0
11	Correct	101	587	749	6	0	0	596896	692	0	correct_rejection	NA	0
11	Correct	102	588	750	5	0	0	597605	691	0	correct_rejection	NA	0
11	Correct	103	589	751	4	0	0	598313	692	0	correct_rejection	NA	0
11	Correct	104	590	752	9	0	0	599022	692	0	correct_rejection	NA	0
11	Correct	105	591	753	8	0	0	599730	692	0	correct_rejection	NA	0
11	Correct	106	592	754	7	0	0	600439	692	0	correct_rejection	NA	0
11	Correct	107	593	755	9	0	0	601148	691	0	correct_rejection	NA	0
11	Correct	108	594	756	8	0	0	601856	692	0	correct_rejection	NA	0
11	Correct	109	595	757	7	0	0	602565	691	0	correct_rejection	NA	0
11	Correct	110	596	758	9	0	0	603273	692	0	correct_rejection	NA	0
11	Correct	111	597	759	8	0	0	603982	691	0	correct_rejection	NA	0
11	Correct	112	598	760	7	0	0	604690	692	0	correct_rejection	NA	0
11	Correct	113	599	761	7	0	0	605399	692	0	correct_rejection	NA	0
11	Correct	114	600	762	8	0	0	606107	692	0	correct_rejection	NA	0
11	Correct	115	601	763	0	1	1	606816	692	1	hit	357	0
11	Correct	116	602	764	9	0	0	607525	691	0	correct_rejection	NA	0
11	Correct	117	603	765	7	0	0	608233	692	0	correct_rejection	NA	0
11	Correct	118	604	766	8	0	0	608942	691	0	correct_rejection	NA	0
11	Correct	119	605	767	9	0	0	609650	692	0	correct_rejection	NA	0
11	Correct	120	606	768	7	0	0	610359	692	0	correct_rejection	NA	0
11	Correct	121	607	769	8	0	0	611067	692	0	correct_rejection	NA	0
11	Correct	122	608	770	9	0	0	611776	692	0	correct_rejection	NA	0
11	Correct	123	609	771	0	1	4	612485	691	1	hit	377	0
11	Correct	124	610	772	4	0	0	613193	692	0	correct_rejection	NA	0
11	Correct	125	611	773	5	0	0	613902	691	0	correct_rejection	NA	0
11	Correct	126	612	774	6	0	0	614610	692	0	correct_rejection	NA	0
11	Correct	127	613	775	4	0	0	615319	692	0	correct_rejection	NA	0
11	Correct	128	614	776	5	0	0	616027	692	0	correct_rejection	NA	0
11	Correct	129	615	777	6	0	0	616736	692	0	correct_rejection	NA	0
11	Correct	130	616	778	0	1	2	617445	691	1	hit	435	0
11	Correct	131	617	779	4	0	0	618153	692	0	correct_rejection	NA	0
11	Correct	132	618	780	5	0	0	618862	691	0	correct_rejection	NA	0
11	Correct	133	619	781	6	0	0	619570	692	0	correct_rejection	NA	0
11	Correct	134	620	782	6	0	0	620279	692	0	correct_rejection	NA	0
11	Correct	135	621	783	5	0	0	620987	692	0	correct_rejection	NA	0
11	Correct	136	622	784	4	0	0	621696	692	0	correct_rejection	NA	0
11	Correct	137	623	785	6	0	0	622405	691	0	correct_rejection	NA	0
11	Correct	138	624	786	5	0	0	623113	692	0	correct_rejection	NA	0
11	Correct	139	625	787	0	1	1	623822	691	1	hit	366	0
11	Correct	140	626	788	4	0	0	624530	692	0	correct_rejection	NA	0
11	Correct	141	627	789	6	0	0	625239	691	0	correct_rejection	NA	0
11	Correct	142	628	790	5	0	0	625947	692	0	correct_rejection	NA	0
11	Correct	143	629	791	4	0	0	626656	692	0	correct_rejection	NA	0
11	Correct	144	630	792	0	1	3	627364	692	1	hit	514	0
11	Correct	145	631	793	9	0	0	628073	692	0	correct_rejection	NA	0
11	Correct	146	632	794	8	0	0	628782	691	0	correct_rejection	NA	0
11	Correct	147	633	795	7	0	0	629490	692	0	correct_rejection	NA	0
11	Correct	148	634	796	9	0	0	630199	691	0	correct_rejection	NA	0
11	Correct	149	635	797	8	0	0	630907	692	0	correct_rejection	NA	0
11	Correct	150	636	798	7	0	0	631616	692	0	correct_rejection	NA	0
11	Correct	151	637	799	9	0	0	632324	692	0	correct_rejection	NA	0
11	Correct	152	638	800	8	0	0	633033	692	0	correct_rejection	NA	0
11	Correct	153	639	801	7	0	0	633742	691	0	correct_rejection	NA	0
11	Correct	154	640	802	7	0	0	634450	692	0	correct_rejection	NA	0
11	Correct	155	641	803	8	0	0	635159	691	0	correct_rejection	NA	0
11	Correct	156	642	804	9	0	0	635867	692	0	correct_rejection	NA	0
11	Correct	157	643	805	7	0	0	636576	692	0	correct_rejection	NA	0
11	Correct	158	644	806	8	0	0	637284	692	0	correct_rejection	NA	0
11	Correct	159	645	807	9	0	0	637993	692	0	correct_rejection	NA	0
11	Correct	160	646	808	7	0	0	638702	691	0	correct_rejection	NA	0
11	Correct	161	647	809	8	0	0	639410	692	0	correct_rejection	NA	0
11	Correct	162	648	810	9	0	0	640119	691	0	correct_rejection	NA	0
trigger nr 632 at 642283
trigger nr 637 at 717809
11	Single	1	649	811	8	0	0	725180	692	0	correct_rejection	NA	7329
11	Single	2	650	812	9	0	0	725889	691	0	correct_rejection	NA	0
11	Single	3	651	813	8	0	0	726597	692	0	correct_rejection	NA	0
11	Single	4	652	814	5	0	0	727306	691	0	correct_rejection	NA	0
11	Single	5	653	815	4	0	0	728014	692	0	correct_rejection	NA	0
11	Single	6	654	816	4	0	0	728723	692	0	correct_rejection	NA	0
11	Single	7	655	817	9	0	0	729431	692	0	correct_rejection	NA	0
11	Single	8	656	818	9	0	0	730140	692	0	correct_rejection	NA	0
11	Single	9	657	819	4	0	0	730849	691	0	correct_rejection	NA	0
11	Single	10	658	820	7	0	0	731557	692	0	correct_rejection	NA	0
11	Single	11	659	821	4	0	0	732266	691	0	correct_rejection	NA	0
11	Single	12	660	822	5	0	0	732974	692	0	correct_rejection	NA	0
11	Single	13	661	823	7	0	0	733683	692	0	correct_rejection	NA	0
11	Single	14	662	824	6	0	0	734391	692	0	correct_rejection	NA	0
11	Single	15	663	825	8	0	0	735100	692	0	correct_rejection	NA	0
11	Single	16	664	826	7	0	0	735809	691	0	correct_rejection	NA	0
11	Single	17	665	827	5	0	0	736517	692	0	correct_rejection	NA	0
11	Single	18	666	828	5	0	0	737226	691	0	correct_rejection	NA	0
11	Single	19	667	829	9	0	0	737934	692	0	correct_rejection	NA	0
11	Single	20	668	830	5	0	0	738643	692	0	correct_rejection	NA	0
11	Single	21	669	831	0	1	1	739351	692	1	hit	447	0
11	Single	22	670	832	8	0	0	740060	692	0	correct_rejection	NA	0
11	Single	23	671	833	6	0	0	740769	691	0	correct_rejection	NA	0
11	Single	24	672	834	5	0	0	741477	692	0	correct_rejection	NA	0
11	Single	25	673	835	6	0	0	742186	691	0	correct_rejection	NA	0
11	Single	26	674	836	6	0	0	742894	692	0	correct_rejection	NA	0
11	Single	27	675	837	7	0	0	743603	691	0	correct_rejection	NA	0
11	Single	28	676	838	9	0	0	744311	692	0	correct_rejection	NA	0
11	Single	29	677	839	6	0	0	745020	692	0	correct_rejection	NA	0
11	Single	30	678	840	9	0	0	745728	692	0	correct_rejection	NA	0
11	Single	31	679	841	7	0	0	746437	692	0	correct_rejection	NA	0
11	Single	32	680	842	7	0	0	747146	691	0	correct_rejection	NA	0
11	Single	33	681	843	0	1	1	747854	692	1	hit	392	0
11	Single	34	682	844	8	0	0	748563	691	0	correct_rejection	NA	0
11	Single	35	683	845	8	0	0	749271	692	0	correct_rejection	NA	0
11	Single	36	684	846	4	0	0	749980	692	0	correct_rejection	NA	0
11	Single	37	685	847	6	0	0	750688	692	0	correct_rejection	NA	0
11	Single	38	686	848	4	0	0	751397	692	0	correct_rejection	NA	0
11	Single	39	687	849	7	0	0	752106	691	0	correct_rejection	NA	0
11	Single	40	688	850	9	0	0	752814	692	0	correct_rejection	NA	0
11	Single	41	689	851	5	0	0	753523	691	0	correct_rejection	NA	0
11	Single	42	690	852	9	0	0	754231	692	0	correct_rejection	NA	0
11	Single	43	691	853	4	0	0	754940	692	0	correct_rejection	NA	0
11	Single	44	692	854	8	0	0	755648	692	0	correct_rejection	NA	0
11	Single	45	693	855	4	0	0	756357	692	0	correct_rejection	NA	0
11	Single	46	694	856	9	0	0	757066	691	0	correct_rejection	NA	0
11	Single	47	695	857	7	0	0	757774	692	0	correct_rejection	NA	0
11	Single	48	696	858	8	0	0	758483	691	0	correct_rejection	NA	0
11	Single	49	697	859	9	0	0	759191	692	0	correct_rejection	NA	0
11	Single	50	698	860	6	0	0	759900	692	0	correct_rejection	NA	0
11	Single	51	699	861	8	0	0	760608	692	0	correct_rejection	NA	0
11	Single	52	700	862	8	0	0	761317	692	0	correct_rejection	NA	0
11	Single	53	701	863	5	0	0	762026	691	0	correct_rejection	NA	0
11	Single	54	702	864	8	0	0	762734	692	0	correct_rejection	NA	0
11	Single	55	703	865	7	0	0	763443	691	0	correct_rejection	NA	0
11	Single	56	704	866	7	0	0	764151	692	0	correct_rejection	NA	0
11	Single	57	705	867	4	0	0	764860	691	0	correct_rejection	NA	0
11	Single	58	706	868	0	1	1	765568	692	1	hit	453	0
11	Single	59	707	869	4	0	0	766277	692	0	correct_rejection	NA	0
11	Single	60	708	870	6	0	0	766985	692	0	correct_rejection	NA	0
11	Single	61	709	871	5	0	0	767694	692	0	correct_rejection	NA	0
11	Single	62	710	872	4	0	0	768403	691	0	correct_rejection	NA	0
11	Single	63	711	873	7	0	0	769111	692	0	correct_rejection	NA	0
11	Single	64	712	874	6	0	0	769820	691	0	correct_rejection	NA	0
11	Single	65	713	875	6	0	0	770528	692	0	correct_rejection	NA	0
11	Single	66	714	876	9	0	0	771237	692	0	correct_rejection	NA	0
11	Single	67	715	877	0	1	1	771945	692	1	hit	374	0
11	Single	68	716	878	9	0	0	772654	692	0	correct_rejection	NA	0
11	Single	69	717	879	8	0	0	773363	691	0	correct_rejection	NA	0
11	Single	70	718	880	0	1	1	774071	692	1	hit	563	0
11	Single	71	719	881	6	0	0	774780	691	0	correct_rejection	NA	0
11	Single	72	720	882	4	0	0	775488	692	0	correct_rejection	NA	0
11	Single	73	721	883	5	0	0	776197	692	0	correct_rejection	NA	0
11	Single	74	722	884	5	0	0	776905	692	0	correct_rejection	NA	0
11	Single	75	723	885	0	1	1	777614	692	1	hit	478	0
11	Single	76	724	886	6	0	0	778323	691	0	correct_rejection	NA	0
11	Single	77	725	887	7	0	0	779031	692	0	correct_rejection	NA	0
11	Single	78	726	888	0	1	1	779740	691	1	hit	661	0
11	Single	79	727	889	5	0	0	780448	692	0	correct_rejection	NA	0
11	Single	80	728	890	5	0	0	781157	692	0	correct_rejection	NA	0
11	Single	81	729	891	4	0	0	781865	692	0	correct_rejection	NA	0
11	Single	82	730	892	0	1	1	782574	692	1	hit	354	0
11	Single	83	731	893	9	0	0	783283	691	0	correct_rejection	NA	0
11	Single	84	732	894	5	0	0	783991	692	0	correct_rejection	NA	0
11	Single	85	733	895	6	0	0	784700	691	0	correct_rejection	NA	0
11	Single	86	734	896	4	0	0	785408	692	0	correct_rejection	NA	0
11	Single	87	735	897	0	1	1	786117	691	1	hit	361	0
11	Single	88	736	898	7	0	0	786825	692	0	correct_rejection	NA	0
11	Single	89	737	899	9	0	0	787534	692	0	correct_rejection	NA	0
11	Single	90	738	900	8	0	0	788243	691	0	correct_rejection	NA	0
11	Single	91	739	901	8	0	0	788951	692	0	correct_rejection	NA	0
11	Single	92	740	902	7	0	0	789660	691	0	correct_rejection	NA	0
11	Single	93	741	903	8	0	0	790368	692	0	correct_rejection	NA	0
11	Single	94	742	904	0	1	1	791077	691	1	hit	407	0
11	Single	95	743	905	4	0	0	791785	692	0	correct_rejection	NA	0
11	Single	96	744	906	8	0	0	792494	692	0	correct_rejection	NA	0
11	Single	97	745	907	5	0	0	793202	692	0	correct_rejection	NA	0
11	Single	98	746	908	5	0	0	793911	692	0	correct_rejection	NA	0
11	Single	99	747	909	8	0	0	794620	691	0	correct_rejection	NA	0
11	Single	100	748	910	9	0	0	795328	692	0	correct_rejection	NA	0
11	Single	101	749	911	4	0	0	796037	691	0	correct_rejection	NA	0
11	Single	102	750	912	4	0	0	796745	692	0	correct_rejection	NA	0
11	Single	103	751	913	0	1	1	797454	692	1	hit	379	0
11	Single	104	752	914	5	0	0	798162	692	0	correct_rejection	NA	0
11	Single	105	753	915	9	0	0	798871	692	0	correct_rejection	NA	0
11	Single	106	754	916	9	0	0	799580	691	0	correct_rejection	NA	0
11	Single	107	755	917	7	0	0	800288	692	0	correct_rejection	NA	0
11	Single	108	756	918	6	0	0	800997	691	0	correct_rejection	NA	0
11	Single	109	757	919	7	0	0	801705	692	0	correct_rejection	NA	0
11	Single	110	758	920	7	0	0	802414	692	0	correct_rejection	NA	0
11	Single	111	759	921	5	0	0	803122	692	0	correct_rejection	NA	0
11	Single	112	760	922	0	1	1	803831	692	1	hit	434	0
11	Single	113	761	923	7	0	0	804540	691	0	correct_rejection	NA	0
11	Single	114	762	924	4	0	0	805248	692	0	correct_rejection	NA	0
11	Single	115	763	925	6	0	0	805957	691	0	correct_rejection	NA	0
11	Single	116	764	926	9	0	0	806665	692	0	correct_rejection	NA	0
11	Single	117	765	927	6	0	0	807374	691	0	correct_rejection	NA	0
11	Single	118	766	928	6	0	0	808082	692	0	correct_rejection	NA	0
11	Single	119	767	929	8	0	0	808791	692	0	correct_rejection	NA	0
11	Single	120	768	930	6	0	0	809500	691	0	correct_rejection	NA	0
11	Single	121	769	931	0	1	1	810208	692	1	hit	396	0
11	Single	122	770	932	7	0	0	810917	691	0	correct_rejection	NA	0
11	Single	123	771	933	7	0	0	811625	692	0	correct_rejection	NA	0
11	Single	124	772	934	8	0	0	812334	691	0	correct_rejection	NA	0
11	Single	125	773	935	7	0	0	813042	692	0	correct_rejection	NA	0
11	Single	126	774	936	6	0	0	813751	692	0	correct_rejection	NA	0
11	Single	127	775	937	9	0	0	814459	692	0	correct_rejection	NA	0
11	Single	128	776	938	7	0	0	815168	692	0	correct_rejection	NA	0
11	Single	129	777	939	0	1	1	815877	691	1	hit	571	0
11	Single	130	778	940	4	0	0	816585	692	0	correct_rejection	NA	0
11	Single	131	779	941	9	0	0	817294	691	0	correct_rejection	NA	0
11	Single	132	780	942	6	0	0	818002	692	0	correct_rejection	NA	0
11	Single	133	781	943	5	0	0	818711	692	0	correct_rejection	NA	0
11	Single	134	782	944	6	0	0	819419	692	0	correct_rejection	NA	0
11	Single	135	783	945	0	1	1	820128	692	1	hit	453	0
11	Single	136	784	946	6	0	0	820837	691	0	correct_rejection	NA	0
11	Single	137	785	947	7	0	0	821545	692	0	correct_rejection	NA	0
11	Single	138	786	948	9	0	0	822254	691	0	correct_rejection	NA	0
11	Single	139	787	949	9	0	0	822962	692	0	correct_rejection	NA	0
11	Single	140	788	950	4	0	0	823671	692	0	correct_rejection	NA	0
11	Single	141	789	951	5	0	0	824379	692	0	correct_rejection	NA	0
11	Single	142	790	952	8	0	0	825088	692	0	correct_rejection	NA	0
11	Single	143	791	953	6	0	0	825797	691	0	correct_rejection	NA	0
11	Single	144	792	954	8	0	0	826505	692	0	correct_rejection	NA	0
11	Single	145	793	955	9	0	0	827214	691	0	correct_rejection	NA	0
11	Single	146	794	956	5	0	0	827922	692	0	correct_rejection	NA	0
11	Single	147	795	957	7	0	0	828631	692	0	correct_rejection	NA	0
11	Single	148	796	958	5	0	0	829339	692	0	correct_rejection	NA	0
11	Single	149	797	959	5	0	0	830048	692	0	correct_rejection	NA	0
11	Single	150	798	960	9	0	0	830757	691	0	correct_rejection	NA	0
11	Single	151	799	961	8	0	0	831465	692	0	correct_rejection	NA	0
11	Single	152	800	962	0	1	1	832174	691	1	hit	407	0
11	Single	153	801	963	5	0	0	832882	692	0	correct_rejection	NA	0
11	Single	154	802	964	4	0	0	833591	691	0	correct_rejection	NA	0
11	Single	155	803	965	6	0	0	834299	692	0	correct_rejection	NA	0
11	Single	156	804	966	0	1	1	835008	692	1	hit	426	0
11	Single	157	805	967	4	0	0	835716	692	0	correct_rejection	NA	0
11	Single	158	806	968	4	0	0	836425	692	0	correct_rejection	NA	0
11	Single	159	807	969	8	0	0	837134	691	0	correct_rejection	NA	0
11	Single	160	808	970	0	1	1	837842	692	1	hit	411	0
11	Single	161	809	971	8	0	0	838551	691	0	correct_rejection	NA	0
11	Single	162	810	972	4	0	0	839259	692	0	correct_rejection	NA	0
11	Correct	1	649	973	4	0	0	849788	691	0	correct_rejection	NA	7949
11	Correct	2	650	974	5	0	0	850496	692	0	correct_rejection	NA	0
11	Correct	3	651	975	6	0	0	851205	692	0	correct_rejection	NA	0
11	Correct	4	652	976	4	0	0	851913	692	0	correct_rejection	NA	0
11	Correct	5	653	977	5	0	0	852622	692	0	correct_rejection	NA	0
11	Correct	6	654	978	6	0	0	853331	691	0	correct_rejection	NA	0
11	Correct	7	655	979	4	0	0	854039	692	0	correct_rejection	NA	0
11	Correct	8	656	980	5	0	0	854748	691	0	correct_rejection	NA	0
11	Correct	9	657	981	6	0	0	855456	692	0	correct_rejection	NA	0
11	Correct	10	658	982	6	0	0	856165	692	0	correct_rejection	NA	0
11	Correct	11	659	983	5	0	0	856873	692	0	correct_rejection	NA	0
11	Correct	12	660	984	4	0	0	857582	692	0	correct_rejection	NA	0
11	Correct	13	661	985	6	0	0	858291	691	0	correct_rejection	NA	0
11	Correct	14	662	986	5	0	0	858999	692	0	correct_rejection	NA	0
11	Correct	15	663	987	4	0	0	859708	691	0	correct_rejection	NA	0
11	Correct	16	664	988	6	0	0	860416	692	0	correct_rejection	NA	0
11	Correct	17	665	989	5	0	0	861125	692	0	correct_rejection	NA	0
11	Correct	18	666	990	4	0	0	861833	692	0	correct_rejection	NA	0
11	Correct	19	667	991	9	0	0	862542	692	0	correct_rejection	NA	0
11	Correct	20	668	992	8	0	0	863251	691	0	correct_rejection	NA	0
11	Correct	21	669	993	7	0	0	863959	692	0	correct_rejection	NA	0
11	Correct	22	670	994	0	1	2	864668	691	1	hit	362	0
11	Correct	23	671	995	9	0	0	865376	692	0	correct_rejection	NA	0
11	Correct	24	672	996	8	0	0	866085	692	0	correct_rejection	NA	0
11	Correct	25	673	997	7	0	0	866793	692	0	correct_rejection	NA	0
11	Correct	26	674	998	9	0	0	867502	692	0	correct_rejection	NA	0
11	Correct	27	675	999	8	0	0	868211	691	0	correct_rejection	NA	0
11	Correct	28	676	1000	7	0	0	868919	692	0	correct_rejection	NA	0
11	Correct	29	677	1001	7	0	0	869628	691	0	correct_rejection	NA	0
11	Correct	30	678	1002	8	0	0	870336	692	0	correct_rejection	NA	0
11	Correct	31	679	1003	9	0	0	871045	691	0	correct_rejection	NA	0
11	Correct	32	680	1004	7	0	0	871753	692	0	correct_rejection	NA	0
11	Correct	33	681	1005	8	0	0	872462	692	0	correct_rejection	NA	0
11	Correct	34	682	1006	9	0	0	873170	692	0	correct_rejection	NA	0
11	Correct	35	683	1007	0	1	2	873879	692	1	hit	468	0
11	Correct	36	684	1008	7	0	0	874588	691	0	correct_rejection	NA	0
11	Correct	37	685	1009	8	0	0	875296	692	0	correct_rejection	NA	0
11	Correct	38	686	1010	9	0	0	876005	691	0	correct_rejection	NA	0
11	Correct	39	687	1011	0	1	4	876713	692	1	hit	444	0
11	Correct	40	688	1012	4	0	0	877422	692	0	correct_rejection	NA	0
11	Correct	41	689	1013	5	0	0	878130	692	0	correct_rejection	NA	0
11	Correct	42	690	1014	6	0	0	878839	692	0	correct_rejection	NA	0
11	Correct	43	691	1015	4	0	0	879548	691	0	correct_rejection	NA	0
11	Correct	44	692	1016	0	1	1	880256	692	1	hit	416	0
11	Correct	45	693	1017	5	0	0	880965	691	0	correct_rejection	NA	0
11	Correct	46	694	1018	6	0	0	881673	692	0	correct_rejection	NA	0
11	Correct	47	695	1019	4	0	0	882382	692	0	correct_rejection	NA	0
11	Correct	48	696	1020	5	0	0	883090	692	0	correct_rejection	NA	0
11	Correct	49	697	1021	6	0	0	883799	692	0	correct_rejection	NA	0
11	Correct	50	698	1022	6	0	0	884508	691	0	correct_rejection	NA	0
11	Correct	51	699	1023	5	0	0	885216	692	0	correct_rejection	NA	0
11	Correct	52	700	1024	4	0	0	885925	691	0	correct_rejection	NA	0
11	Correct	53	701	1025	6	0	0	886633	692	0	correct_rejection	NA	0
11	Correct	54	702	1026	5	0	0	887342	692	0	correct_rejection	NA	0
11	Correct	55	703	1027	4	0	0	888050	692	0	correct_rejection	NA	0
11	Correct	56	704	1028	6	0	0	888759	692	0	correct_rejection	NA	0
11	Correct	57	705	1029	5	0	0	889468	691	0	correct_rejection	NA	0
11	Correct	58	706	1030	0	1	1	890176	692	1	hit	395	0
11	Correct	59	707	1031	4	0	0	890885	691	0	correct_rejection	NA	0
11	Correct	60	708	1032	9	0	0	891593	692	0	correct_rejection	NA	0
11	Correct	61	709	1033	8	0	0	892302	691	0	correct_rejection	NA	0
11	Correct	62	710	1034	7	0	0	893010	692	0	correct_rejection	NA	0
11	Correct	63	711	1035	9	0	0	893719	692	0	correct_rejection	NA	0
11	Correct	64	712	1036	0	1	1	894427	692	1	hit	351	0
11	Correct	65	713	1037	8	0	0	895136	692	0	correct_rejection	NA	0
11	Correct	66	714	1038	7	0	0	895845	691	0	correct_rejection	NA	0
11	Correct	67	715	1039	9	0	0	896553	692	0	correct_rejection	NA	0
11	Correct	68	716	1040	8	0	0	897262	691	0	correct_rejection	NA	0
11	Correct	69	717	1041	7	0	0	897970	692	0	correct_rejection	NA	0
11	Correct	70	718	1042	7	0	0	898679	692	0	correct_rejection	NA	0
11	Correct	71	719	1043	8	0	0	899387	692	0	correct_rejection	NA	0
11	Correct	72	720	1044	9	0	0	900096	692	0	correct_rejection	NA	0
11	Correct	73	721	1045	7	0	0	900805	691	0	correct_rejection	NA	0
11	Correct	74	722	1046	8	0	0	901513	692	0	correct_rejection	NA	0
11	Correct	75	723	1047	9	0	0	902222	691	0	correct_rejection	NA	0
11	Correct	76	724	1048	7	0	0	902930	692	0	correct_rejection	NA	0
11	Correct	77	725	1049	0	1	1	903639	692	1	hit	426	0
11	Correct	78	726	1050	8	0	0	904347	692	0	correct_rejection	NA	0
11	Correct	79	727	1051	9	0	0	905056	692	0	correct_rejection	NA	0
11	Correct	80	728	1052	4	0	0	905765	691	0	correct_rejection	NA	0
11	Correct	81	729	1053	5	0	0	906473	692	0	correct_rejection	NA	0
11	Correct	82	730	1054	6	0	0	907182	691	0	correct_rejection	NA	0
11	Correct	83	731	1055	4	0	0	907890	692	0	correct_rejection	NA	0
11	Correct	84	732	1056	5	0	0	908599	692	0	correct_rejection	NA	0
11	Correct	85	733	1057	6	0	0	909307	692	0	correct_rejection	NA	0
11	Correct	86	734	1058	4	0	0	910016	692	0	correct_rejection	NA	0
11	Correct	87	735	1059	5	0	0	910725	691	0	correct_rejection	NA	0
11	Correct	88	736	1060	6	0	0	911433	692	0	correct_rejection	NA	0
11	Correct	89	737	1061	6	0	0	912142	691	0	correct_rejection	NA	0
11	Correct	90	738	1062	5	0	0	912850	692	0	correct_rejection	NA	0
11	Correct	91	739	1063	4	0	0	913559	691	0	correct_rejection	NA	0
11	Correct	92	740	1064	6	0	0	914267	692	0	correct_rejection	NA	0
11	Correct	93	741	1065	0	1	1	914976	692	1	hit	339	0
11	Correct	94	742	1066	5	0	0	915684	692	0	correct_rejection	NA	0
11	Correct	95	743	1067	4	0	0	916393	692	0	correct_rejection	NA	0
11	Correct	96	744	1068	6	0	0	917102	691	0	correct_rejection	NA	0
11	Correct	97	745	1069	5	0	0	917810	692	0	correct_rejection	NA	0
11	Correct	98	746	1070	4	0	0	918519	691	0	correct_rejection	NA	0
11	Correct	99	747	1071	0	1	3	919227	692	1	hit	410	0
11	Correct	100	748	1072	9	0	0	919936	692	0	correct_rejection	NA	0
11	Correct	101	749	1073	8	0	0	920644	692	0	correct_rejection	NA	0
11	Correct	102	750	1074	7	0	0	921353	692	0	correct_rejection	NA	0
11	Correct	103	751	1075	9	0	0	922062	691	0	correct_rejection	NA	0
11	Correct	104	752	1076	8	0	0	922770	692	0	correct_rejection	NA	0
11	Correct	105	753	1077	7	0	0	923479	691	0	correct_rejection	NA	0
11	Correct	106	754	1078	9	0	0	924187	692	0	correct_rejection	NA	0
11	Correct	107	755	1079	8	0	0	924896	692	0	correct_rejection	NA	0
11	Correct	108	756	1080	7	0	0	925604	692	0	correct_rejection	NA	0
11	Correct	109	757	1081	0	1	3	926313	692	1	hit	420	0
11	Correct	110	758	1082	7	0	0	927022	691	0	correct_rejection	NA	0
11	Correct	111	759	1083	8	0	0	927730	692	0	correct_rejection	NA	0
11	Correct	112	760	1084	9	0	0	928439	691	0	correct_rejection	NA	0
11	Correct	113	761	1085	0	1	2	929147	692	1	hit	522	0
11	Correct	114	762	1086	7	0	0	929856	692	0	correct_rejection	NA	0
11	Correct	115	763	1087	8	0	0	930564	692	0	correct_rejection	NA	0
11	Correct	116	764	1088	9	0	0	931273	692	0	correct_rejection	NA	0
11	Correct	117	765	1089	7	0	0	931982	691	0	correct_rejection	NA	0
11	Correct	118	766	1090	8	0	0	932690	692	0	correct_rejection	NA	0
11	Correct	119	767	1091	9	0	0	933399	691	0	correct_rejection	NA	0
11	Correct	120	768	1092	4	0	0	934107	692	0	correct_rejection	NA	0
11	Correct	121	769	1093	0	1	1	934816	691	1	hit	461	0
11	Correct	122	770	1094	5	0	0	935524	692	0	correct_rejection	NA	0
11	Correct	123	771	1095	6	0	0	936233	692	0	correct_rejection	NA	0
11	Correct	124	772	1096	4	0	0	936941	692	0	correct_rejection	NA	0
11	Correct	125	773	1097	5	0	0	937650	692	0	correct_rejection	NA	0
11	Correct	126	774	1098	0	1	1	938359	691	1	hit	410	0
11	Correct	127	775	1099	6	0	0	939067	692	0	correct_rejection	NA	0
11	Correct	128	776	1100	4	0	0	939776	691	0	correct_rejection	NA	0
11	Correct	129	777	1101	5	0	0	940484	692	0	correct_rejection	NA	0
11	Correct	130	778	1102	6	0	0	941193	692	0	correct_rejection	NA	0
11	Correct	131	779	1103	6	0	0	941901	692	0	correct_rejection	NA	0
11	Correct	132	780	1104	5	0	0	942610	692	0	correct_rejection	NA	0
11	Correct	133	781	1105	0	1	1	943319	691	1	hit	363	0
11	Correct	134	782	1106	4	0	0	944027	692	0	correct_rejection	NA	0
11	Correct	135	783	1107	6	0	0	944736	691	0	correct_rejection	NA	0
11	Correct	136	784	1108	0	1	1	945444	692	1	hit	389	0
11	Correct	137	785	1109	5	0	0	946153	692	0	correct_rejection	NA	0
11	Correct	138	786	1110	4	0	0	946861	692	0	correct_rejection	NA	0
11	Correct	139	787	1111	6	0	0	947570	692	0	correct_rejection	NA	0
11	Correct	140	788	1112	5	0	0	948279	691	0	correct_rejection	NA	0
11	Correct	141	789	1113	4	0	0	948987	692	0	correct_rejection	NA	0
11	Correct	142	790	1114	9	0	0	949696	691	0	correct_rejection	NA	0
11	Correct	143	791	1115	8	0	0	950404	692	0	correct_rejection	NA	0
11	Correct	144	792	1116	0	1	1	951113	692	1	hit	350	0
11	Correct	145	793	1117	7	0	0	951821	692	0	correct_rejection	NA	0
11	Correct	146	794	1118	9	0	0	952530	692	0	correct_rejection	NA	0
11	Correct	147	795	1119	8	0	0	953239	691	0	correct_rejection	NA	0
11	Correct	148	796	1120	7	0	0	953947	692	0	correct_rejection	NA	0
11	Correct	149	797	1121	9	0	0	954656	691	0	correct_rejection	NA	0
11	Correct	150	798	1122	8	0	0	955364	692	0	correct_rejection	NA	0
11	Correct	151	799	1123	7	0	0	956073	691	0	correct_rejection	NA	0
11	Correct	152	800	1124	7	0	0	956781	692	0	correct_rejection	NA	0
11	Correct	153	801	1125	8	0	0	957490	692	0	correct_rejection	NA	0
11	Correct	154	802	1126	9	0	0	958198	692	0	correct_rejection	NA	0
11	Correct	155	803	1127	7	0	0	958907	692	0	correct_rejection	NA	0
11	Correct	156	804	1128	8	0	0	959616	691	0	correct_rejection	NA	0
11	Correct	157	805	1129	0	1	1	960324	692	1	hit	419	0
11	Correct	158	806	1130	9	0	0	961033	691	0	correct_rejection	NA	0
11	Correct	159	807	1131	7	0	0	961741	692	0	correct_rejection	NA	0
11	Correct	160	808	1132	8	0	0	962450	692	0	correct_rejection	NA	0
11	Correct	161	809	1133	0	1	1	963158	692	1	hit	427	0
11	Correct	162	810	1134	9	0	0	963867	692	0	correct_rejection	NA	0
11	Triplet	1	163	1135	6	0	0	973737	692	0	correct_rejection	NA	7899
11	Triplet	2	164	1136	5	0	0	974446	691	0	correct_rejection	NA	0
11	Triplet	3	165	1137	4	0	0	975154	692	0	correct_rejection	NA	0
11	Triplet	4	166	1138	0	1	2	975863	691	1	hit	455	0
11	Triplet	5	167	1139	6	0	0	976571	692	0	correct_rejection	NA	0
11	Triplet	6	168	1140	5	0	0	977280	691	0	correct_rejection	NA	0
11	Triplet	7	169	1141	0	1	1	977988	692	1	hit	387	0
11	Triplet	8	170	1142	4	0	0	978697	692	0	correct_rejection	NA	0
11	Triplet	9	171	1143	4	0	0	979405	692	0	correct_rejection	NA	0
11	Triplet	10	172	1144	5	0	0	980114	692	0	correct_rejection	NA	0
11	Triplet	11	173	1145	0	1	1	980823	691	1	hit	397	0
11	Triplet	12	174	1146	6	0	0	981531	692	0	correct_rejection	NA	0
11	Triplet	13	175	1147	9	0	0	982240	691	0	correct_rejection	NA	0
11	Triplet	14	176	1148	8	0	0	982948	692	0	correct_rejection	NA	0
11	Triplet	15	177	1149	7	0	0	983657	692	0	correct_rejection	NA	0
11	Triplet	16	178	1150	6	0	0	984365	692	0	correct_rejection	NA	0
11	Triplet	17	179	1151	0	1	1	985074	692	1	hit	400	0
11	Triplet	18	180	1152	5	0	0	985783	691	0	correct_rejection	NA	0
11	Triplet	19	181	1153	4	0	0	986491	692	0	correct_rejection	NA	0
11	Triplet	20	182	1154	9	0	0	987200	691	0	correct_rejection	NA	0
11	Triplet	21	183	1155	8	0	0	987908	692	0	correct_rejection	NA	0
11	Triplet	22	184	1156	7	0	0	988617	692	0	correct_rejection	NA	0
11	Triplet	23	185	1157	0	1	2	989325	692	1	hit	411	0
11	Triplet	24	186	1158	7	0	0	990034	692	0	correct_rejection	NA	0
11	Triplet	25	187	1159	8	0	0	990743	691	0	correct_rejection	NA	0
11	Triplet	26	188	1160	9	0	0	991451	692	0	correct_rejection	NA	0
11	Triplet	27	189	1161	6	0	0	992160	691	0	correct_rejection	NA	0
11	Triplet	28	190	1162	5	0	0	992868	692	0	correct_rejection	NA	0
11	Triplet	29	191	1163	0	1	1	993577	692	1	hit	449	0
11	Triplet	30	192	1164	4	0	0	994285	692	0	correct_rejection	NA	0
11	Triplet	31	193	1165	7	0	0	994994	692	0	correct_rejection	NA	0
11	Triplet	32	194	1166	8	0	0	995703	691	0	correct_rejection	NA	0
11	Triplet	33	195	1167	9	0	0	996411	692	0	correct_rejection	NA	0
11	Triplet	34	196	1168	7	0	0	997120	691	0	correct_rejection	NA	0
11	Triplet	35	197	1169	8	0	0	997828	692	0	correct_rejection	NA	0
11	Triplet	36	198	1170	9	0	0	998537	691	0	correct_rejection	NA	0
11	Triplet	37	199	1171	9	0	0	999245	692	0	correct_rejection	NA	0
11	Triplet	38	200	1172	8	0	0	999954	692	0	correct_rejection	NA	0
11	Triplet	39	201	1173	7	0	0	1000662	692	0	correct_rejection	NA	0
11	Triplet	40	202	1174	9	0	0	1001371	692	0	correct_rejection	NA	0
11	Triplet	41	203	1175	8	0	0	1002080	691	0	correct_rejection	NA	0
11	Triplet	42	204	1176	0	1	1	1002788	692	1	hit	305	0
11	Triplet	43	205	1177	7	0	0	1003497	691	0	correct_rejection	NA	0
11	Triplet	44	206	1178	4	0	0	1004205	692	0	correct_rejection	NA	0
11	Triplet	45	207	1179	5	0	0	1004914	692	0	correct_rejection	NA	0
11	Triplet	46	208	1180	6	0	0	1005622	692	0	correct_rejection	NA	0
11	Triplet	47	209	1181	4	0	0	1006331	692	0	correct_rejection	NA	0
11	Triplet	48	210	1182	5	0	0	1007040	691	0	correct_rejection	NA	0
11	Triplet	49	211	1183	6	0	0	1007748	692	0	correct_rejection	NA	0
11	Triplet	50	212	1184	7	0	0	1008457	691	0	correct_rejection	NA	0
11	Triplet	51	213	1185	8	0	0	1009165	692	0	correct_rejection	NA	0
11	Triplet	52	214	1186	9	0	0	1009874	692	0	correct_rejection	NA	0
11	Triplet	53	215	1187	4	0	0	1010582	692	0	correct_rejection	NA	0
11	Triplet	54	216	1188	5	0	0	1011291	692	0	correct_rejection	NA	0
11	Triplet	55	217	1189	6	0	0	1012000	691	0	correct_rejection	NA	0
11	Triplet	56	218	1190	7	0	0	1012708	692	0	correct_rejection	NA	0
11	Triplet	57	219	1191	0	1	1	1013417	691	1	hit	387	0
11	Triplet	58	220	1192	8	0	0	1014125	692	0	correct_rejection	NA	0
11	Triplet	59	221	1193	9	0	0	1014834	692	0	correct_rejection	NA	0
11	Triplet	60	222	1194	0	1	2	1015542	692	1	hit	546	0
11	Triplet	61	223	1195	6	0	0	1016251	692	0	correct_rejection	NA	0
11	Triplet	62	224	1196	5	0	0	1016960	691	0	correct_rejection	NA	0
11	Triplet	63	225	1197	4	0	0	1017668	692	0	correct_rejection	NA	0
11	Triplet	64	226	1198	6	0	0	1018377	691	0	correct_rejection	NA	0
11	Triplet	65	227	1199	5	0	0	1019085	692	0	correct_rejection	NA	0
11	Triplet	66	228	1200	4	0	0	1019794	691	0	correct_rejection	NA	0
11	Triplet	67	229	1201	9	0	0	1020502	692	0	correct_rejection	NA	0
11	Triplet	68	230	1202	8	0	0	1021211	692	0	correct_rejection	NA	0
11	Triplet	69	231	1203	7	0	0	1021919	692	0	correct_rejection	NA	0
11	Triplet	70	232	1204	4	0	0	1022628	692	0	correct_rejection	NA	0
11	Triplet	71	233	1205	0	1	1	1023337	691	1	hit	422	0
11	Triplet	72	234	1206	5	0	0	1024045	692	0	correct_rejection	NA	0
11	Triplet	73	235	1207	6	0	0	1024754	691	0	correct_rejection	NA	0
11	Triplet	74	236	1208	7	0	0	1025462	692	0	correct_rejection	NA	0
11	Triplet	75	237	1209	8	0	0	1026171	692	0	correct_rejection	NA	0
11	Triplet	76	238	1210	9	0	0	1026879	692	0	correct_rejection	NA	0
11	Triplet	77	239	1211	7	0	0	1027588	692	0	correct_rejection	NA	0
11	Triplet	78	240	1212	8	0	0	1028297	691	0	correct_rejection	NA	0
11	Triplet	79	241	1213	9	0	0	1029005	692	0	correct_rejection	NA	0
11	Triplet	80	242	1214	4	0	0	1029714	691	0	correct_rejection	NA	0
11	Triplet	81	243	1215	5	0	0	1030422	692	0	correct_rejection	NA	0
11	Triplet	82	244	1216	6	0	0	1031131	692	0	correct_rejection	NA	0
11	Triplet	83	245	1217	6	0	0	1031839	692	0	correct_rejection	NA	0
11	Triplet	84	246	1218	5	0	0	1032548	692	0	correct_rejection	NA	0
11	Triplet	85	247	1219	4	0	0	1033257	691	0	correct_rejection	NA	0
11	Triplet	86	248	1220	7	0	0	1033965	692	0	correct_rejection	NA	0
11	Triplet	87	249	1221	8	0	0	1034674	691	0	correct_rejection	NA	0
11	Triplet	88	250	1222	9	0	0	1035382	692	0	correct_rejection	NA	0
11	Triplet	89	251	1223	9	0	0	1036091	692	0	correct_rejection	NA	0
11	Triplet	90	252	1224	8	0	0	1036799	692	0	correct_rejection	NA	0
11	Triplet	91	253	1225	7	0	0	1037508	692	0	correct_rejection	NA	0
11	Triplet	92	254	1226	6	0	0	1038217	691	0	correct_rejection	NA	0
11	Triplet	93	255	1227	5	0	0	1038925	692	0	correct_rejection	NA	0
11	Triplet	94	256	1228	4	0	0	1039634	691	0	correct_rejection	NA	0
11	Triplet	95	257	1229	4	0	0	1040342	692	0	correct_rejection	NA	0
11	Triplet	96	258	1230	5	0	0	1041051	691	0	correct_rejection	NA	0
11	Triplet	97	259	1231	6	0	0	1041759	692	0	correct_rejection	NA	0
11	Triplet	98	260	1232	4	0	0	1042468	692	0	correct_rejection	NA	0
11	Triplet	99	261	1233	5	0	0	1043176	692	0	correct_rejection	NA	0
11	Triplet	100	262	1234	6	0	0	1043885	692	0	correct_rejection	NA	0
11	Triplet	101	263	1235	9	0	0	1044594	691	0	correct_rejection	NA	0
11	Triplet	102	264	1236	8	0	0	1045302	692	0	correct_rejection	NA	0
11	Triplet	103	265	1237	7	0	0	1046011	691	0	correct_rejection	NA	0
11	Triplet	104	266	1238	0	1	2	1046719	692	1	hit	503	0
11	Triplet	105	267	1239	9	0	0	1047428	692	0	correct_rejection	NA	0
11	Triplet	106	268	1240	8	0	0	1048136	692	0	correct_rejection	NA	0
11	Triplet	107	269	1241	7	0	0	1048845	692	0	correct_rejection	NA	0
11	Triplet	108	270	1242	4	0	0	1049554	691	0	correct_rejection	NA	0
11	Triplet	109	271	1243	5	0	0	1050262	692	0	correct_rejection	NA	0
11	Triplet	110	272	1244	6	0	0	1050971	691	0	correct_rejection	NA	0
11	Triplet	111	273	1245	4	0	0	1051679	692	0	correct_rejection	NA	0
11	Triplet	112	274	1246	5	0	0	1052388	692	0	correct_rejection	NA	0
11	Triplet	113	275	1247	6	0	0	1053096	692	0	correct_rejection	NA	0
11	Triplet	114	276	1248	6	0	0	1053805	692	0	correct_rejection	NA	0
11	Triplet	115	277	1249	0	1	1	1054514	691	1	hit	535	0
11	Triplet	116	278	1250	5	0	0	1055222	692	0	correct_rejection	NA	0
11	Triplet	117	279	1251	4	0	0	1055931	691	0	correct_rejection	NA	0
11	Triplet	118	280	1252	9	0	0	1056639	692	0	correct_rejection	NA	0
11	Triplet	119	281	1253	8	0	0	1057348	692	0	correct_rejection	NA	0
11	Triplet	120	282	1254	0	1	1	1058056	692	1	hit	356	0
11	Triplet	121	283	1255	7	0	0	1058765	692	0	correct_rejection	NA	0
11	Triplet	122	284	1256	9	0	0	1059474	691	0	correct_rejection	NA	0
11	Triplet	123	285	1257	0	1	1	1060182	692	1	hit	516	0
11	Triplet	124	286	1258	8	0	0	1060891	691	0	correct_rejection	NA	0
11	Triplet	125	287	1259	7	0	0	1061599	692	0	correct_rejection	NA	0
11	Triplet	126	288	1260	6	0	0	1062308	691	0	correct_rejection	NA	0
11	Triplet	127	289	1261	5	0	0	1063016	692	0	correct_rejection	NA	0
11	Triplet	128	290	1262	4	0	0	1063725	692	0	correct_rejection	NA	0
11	Triplet	129	291	1263	6	0	0	1064433	692	0	correct_rejection	NA	0
11	Triplet	130	292	1264	5	0	0	1065142	692	0	correct_rejection	NA	0
11	Triplet	131	293	1265	4	0	0	1065851	691	0	correct_rejection	NA	0
11	Triplet	132	294	1266	7	0	0	1066559	692	0	correct_rejection	NA	0
11	Triplet	133	295	1267	0	1	1	1067268	691	1	hit	389	0
11	Triplet	134	296	1268	8	0	0	1067976	692	0	correct_rejection	NA	0
11	Triplet	135	297	1269	9	0	0	1068685	692	0	correct_rejection	NA	0
11	Triplet	136	298	1270	4	0	0	1069393	692	0	correct_rejection	NA	0
11	Triplet	137	299	1271	5	0	0	1070102	692	0	correct_rejection	NA	0
11	Triplet	138	300	1272	6	0	0	1070811	691	0	correct_rejection	NA	0
11	Triplet	139	301	1273	7	0	0	1071519	692	0	correct_rejection	NA	0
11	Triplet	140	302	1274	8	0	0	1072228	691	0	correct_rejection	NA	0
11	Triplet	141	303	1275	0	1	1	1072936	692	1	hit	484	0
11	Triplet	142	304	1276	9	0	0	1073645	692	0	correct_rejection	NA	0
11	Triplet	143	305	1277	9	0	0	1074353	692	0	correct_rejection	NA	0
11	Triplet	144	306	1278	8	0	0	1075062	692	0	correct_rejection	NA	0
11	Triplet	145	307	1279	7	0	0	1075771	691	0	correct_rejection	NA	0
11	Triplet	146	308	1280	4	0	0	1076479	692	0	correct_rejection	NA	0
11	Triplet	147	309	1281	5	0	0	1077188	691	0	correct_rejection	NA	0
11	Triplet	148	310	1282	6	0	0	1077896	692	0	correct_rejection	NA	0
11	Triplet	149	311	1283	9	0	0	1078605	692	0	correct_rejection	NA	0
11	Triplet	150	312	1284	0	1	1	1079313	692	1	hit	383	0
11	Triplet	151	313	1285	8	0	0	1080022	692	0	correct_rejection	NA	0
11	Triplet	152	314	1286	7	0	0	1080731	691	0	correct_rejection	NA	0
11	Triplet	153	315	1287	7	0	0	1081439	692	0	correct_rejection	NA	0
11	Triplet	154	316	1288	8	0	0	1082148	691	0	correct_rejection	NA	0
11	Triplet	155	317	1289	9	0	0	1082856	692	0	correct_rejection	NA	0
11	Triplet	156	318	1290	7	0	0	1083565	691	0	correct_rejection	NA	0
11	Triplet	157	319	1291	0	1	1	1084273	692	1	hit	479	0
11	Triplet	158	320	1292	8	0	0	1084982	692	0	correct_rejection	NA	0
11	Triplet	159	321	1293	9	0	0	1085690	692	0	correct_rejection	NA	0
11	Triplet	160	322	1294	6	0	0	1086399	692	0	correct_rejection	NA	0
11	Triplet	161	323	1295	5	0	0	1087108	691	0	correct_rejection	NA	0
11	Triplet	162	324	1296	4	0	0	1087816	692	0	correct_rejection	NA	0
11	Nonet	1	163	1297	4	0	0	1097503	691	0	correct_rejection	NA	7659
11	Nonet	2	164	1298	5	0	0	1098211	692	0	correct_rejection	NA	0
11	Nonet	3	165	1299	6	0	0	1098920	692	0	correct_rejection	NA	0
11	Nonet	4	166	1300	4	0	0	1099628	692	0	correct_rejection	NA	0
11	Nonet	5	167	1301	5	0	0	1100337	692	0	correct_rejection	NA	0
11	Nonet	6	168	1302	6	0	0	1101046	691	0	correct_rejection	NA	0
11	Nonet	7	169	1303	4	0	0	1101754	692	0	correct_rejection	NA	0
11	Nonet	8	170	1304	5	0	0	1102463	691	0	correct_rejection	NA	0
11	Nonet	9	171	1305	0	1	1	1103171	692	1	hit	451	0
11	Nonet	10	172	1306	6	0	0	1103880	692	0	correct_rejection	NA	0
11	Nonet	11	173	1307	4	0	0	1104588	692	0	correct_rejection	NA	0
11	Nonet	12	174	1308	5	0	0	1105297	692	0	correct_rejection	NA	0
11	Nonet	13	175	1309	6	0	0	1106006	691	0	correct_rejection	NA	0
11	Nonet	14	176	1310	4	0	0	1106714	692	0	correct_rejection	NA	0
11	Nonet	15	177	1311	5	0	0	1107423	691	0	correct_rejection	NA	0
11	Nonet	16	178	1312	6	0	0	1108131	692	0	correct_rejection	NA	0
11	Nonet	17	179	1313	4	0	0	1108840	691	0	correct_rejection	NA	0
11	Nonet	18	180	1314	5	0	0	1109548	692	0	correct_rejection	NA	0
11	Nonet	19	181	1315	6	0	0	1110257	692	0	correct_rejection	NA	0
11	Nonet	20	182	1316	7	0	0	1110965	692	0	correct_rejection	NA	0
11	Nonet	21	183	1317	8	0	0	1111674	692	0	correct_rejection	NA	0
11	Nonet	22	184	1318	9	0	0	1112383	691	0	correct_rejection	NA	0
11	Nonet	23	185	1319	7	0	0	1113091	692	0	correct_rejection	NA	0
11	Nonet	24	186	1320	8	0	0	1113800	691	0	correct_rejection	NA	0
11	Nonet	25	187	1321	9	0	0	1114508	692	0	correct_rejection	NA	0
11	Nonet	26	188	1322	7	0	0	1115217	692	0	correct_rejection	NA	0
11	Nonet	27	189	1323	0	1	1	1115925	692	1	hit	447	0
11	Nonet	28	190	1324	8	0	0	1116634	692	0	correct_rejection	NA	0
11	Nonet	29	191	1325	9	0	0	1117343	691	0	correct_rejection	NA	0
11	Nonet	30	192	1326	0	1	3	1118051	692	1	hit	406	0
11	Nonet	31	193	1327	7	0	0	1118760	691	0	correct_rejection	NA	0
11	Nonet	32	194	1328	8	0	0	1119468	692	0	correct_rejection	NA	0
11	Nonet	33	195	1329	9	0	0	1120177	692	0	correct_rejection	NA	0
11	Nonet	34	196	1330	7	0	0	1120885	692	0	correct_rejection	NA	0
11	Nonet	35	197	1331	0	1	1	1121594	692	1	hit	396	0
11	Nonet	36	198	1332	8	0	0	1122303	691	0	correct_rejection	NA	0
11	Nonet	37	199	1333	9	0	0	1123011	692	0	correct_rejection	NA	0
11	Nonet	38	200	1334	7	0	0	1123720	691	0	correct_rejection	NA	0
11	Nonet	39	201	1335	8	0	0	1124428	692	0	correct_rejection	NA	0
11	Nonet	40	202	1336	9	0	0	1125137	692	0	correct_rejection	NA	0
11	Nonet	41	203	1337	6	0	0	1125845	692	0	correct_rejection	NA	0
11	Nonet	42	204	1338	5	0	0	1126554	692	0	correct_rejection	NA	0
11	Nonet	43	205	1339	4	0	0	1127263	691	0	correct_rejection	NA	0
11	Nonet	44	206	1340	6	0	0	1127971	692	0	correct_rejection	NA	0
11	Nonet	45	207	1341	5	0	0	1128680	691	0	correct_rejection	NA	0
11	Nonet	46	208	1342	4	0	0	1129388	692	0	correct_rejection	NA	0
11	Nonet	47	209	1343	6	0	0	1130097	691	0	correct_rejection	NA	0
11	Nonet	48	210	1344	5	0	0	1130805	692	0	correct_rejection	NA	0
11	Nonet	49	211	1345	0	1	1	1131514	692	1	hit	351	0
11	Nonet	50	212	1346	4	0	0	1132222	692	0	correct_rejection	NA	0
11	Nonet	51	213	1347	6	0	0	1132931	692	0	correct_rejection	NA	0
11	Nonet	52	214	1348	5	0	0	1133640	691	0	correct_rejection	NA	0
11	Nonet	53	215	1349	4	0	0	1134348	692	0	correct_rejection	NA	0
11	Nonet	54	216	1350	6	0	0	1135057	691	0	correct_rejection	NA	0
11	Nonet	55	217	1351	0	1	1	1135765	692	1	hit	417	0
11	Nonet	56	218	1352	5	0	0	1136474	692	0	correct_rejection	NA	0
11	Nonet	57	219	1353	4	0	0	1137182	692	0	correct_rejection	NA	0
11	Nonet	58	220	1354	6	0	0	1137891	692	0	correct_rejection	NA	0
11	Nonet	59	221	1355	5	0	0	1138600	691	0	correct_rejection	NA	0
11	Nonet	60	222	1356	4	0	0	1139308	692	0	correct_rejection	NA	0
11	Nonet	61	223	1357	4	0	0	1140017	691	0	correct_rejection	NA	0
11	Nonet	62	224	1358	0	1	1	1140725	692	1	hit	457	0
11	Nonet	63	225	1359	5	0	0	1141434	692	0	correct_rejection	NA	0
11	Nonet	64	226	1360	6	0	0	1142142	692	0	correct_rejection	NA	0
11	Nonet	65	227	1361	4	0	0	1142851	692	0	correct_rejection	NA	0
11	Nonet	66	228	1362	5	0	0	1143560	691	0	correct_rejection	NA	0
11	Nonet	67	229	1363	6	0	0	1144268	692	0	correct_rejection	NA	0
11	Nonet	68	230	1364	4	0	0	1144977	691	0	correct_rejection	NA	0
11	Nonet	69	231	1365	5	0	0	1145685	692	0	correct_rejection	NA	0
11	Nonet	70	232	1366	6	0	0	1146394	692	0	correct_rejection	NA	0
11	Nonet	71	233	1367	6	0	0	1147102	692	0	correct_rejection	NA	0
11	Nonet	72	234	1368	5	0	0	1147811	692	0	correct_rejection	NA	0
11	Nonet	73	235	1369	4	0	0	1148520	691	0	correct_rejection	NA	0
11	Nonet	74	236	1370	6	0	0	1149228	692	0	correct_rejection	NA	0
11	Nonet	75	237	1371	0	1	1	1149937	691	1	hit	445	0
11	Nonet	76	238	1372	5	0	0	1150645	692	0	correct_rejection	NA	0
11	Nonet	77	239	1373	4	0	0	1151354	691	0	correct_rejection	NA	0
11	Nonet	78	240	1374	0	1	2	1152062	692	1	hit	501	0
11	Nonet	79	241	1375	6	0	0	1152771	692	0	correct_rejection	NA	0
11	Nonet	80	242	1376	5	0	0	1153480	691	0	correct_rejection	NA	0
11	Nonet	81	243	1377	4	0	0	1154188	692	0	correct_rejection	NA	0
11	Nonet	82	244	1378	9	0	0	1154897	691	0	correct_rejection	NA	0
11	Nonet	83	245	1379	0	1	1	1155605	692	1	hit	560	0
11	Nonet	84	246	1380	8	0	0	1156314	691	0	correct_rejection	NA	0
11	Nonet	85	247	1381	7	0	0	1157022	692	0	correct_rejection	NA	0
11	Nonet	86	248	1382	9	0	0	1157731	692	0	correct_rejection	NA	0
11	Nonet	87	249	1383	8	0	0	1158439	692	0	correct_rejection	NA	0
11	Nonet	88	250	1384	7	0	0	1159148	692	0	correct_rejection	NA	0
11	Nonet	89	251	1385	9	0	0	1159857	691	0	correct_rejection	NA	0
11	Nonet	90	252	1386	8	0	0	1160565	692	0	correct_rejection	NA	0
11	Nonet	91	253	1387	7	0	0	1161274	691	0	correct_rejection	NA	0
11	Nonet	92	254	1388	4	0	0	1161982	692	0	correct_rejection	NA	0
11	Nonet	93	255	1389	5	0	0	1162691	692	0	correct_rejection	NA	0
11	Nonet	94	256	1390	6	0	0	1163399	692	0	correct_rejection	NA	0
11	Nonet	95	257	1391	0	1	2	1164108	692	1	hit	408	0
11	Nonet	96	258	1392	4	0	0	1164817	691	0	correct_rejection	NA	0
11	Nonet	97	259	1393	5	0	0	1165525	692	0	correct_rejection	NA	0
11	Nonet	98	260	1394	6	0	0	1166234	691	0	correct_rejection	NA	0
11	Nonet	99	261	1395	4	0	0	1166942	692	0	correct_rejection	NA	0
11	Nonet	100	262	1396	0	1	1	1167651	692	1	hit	371	0
11	Nonet	101	263	1397	5	0	0	1168359	692	0	correct_rejection	NA	0
11	Nonet	102	264	1398	6	0	0	1169068	692	0	correct_rejection	NA	0
11	Nonet	103	265	1399	9	0	0	1169777	691	0	correct_rejection	NA	0
11	Nonet	104	266	1400	0	1	1	1170485	692	1	hit	416	0
11	Nonet	105	267	1401	8	0	0	1171194	691	0	correct_rejection	NA	0
11	Nonet	106	268	1402	7	0	0	1171902	692	0	correct_rejection	NA	0
11	Nonet	107	269	1403	9	0	0	1172611	691	0	correct_rejection	NA	0
11	Nonet	108	270	1404	0	1	1	1173319	692	1	hit	504	0
11	Nonet	109	271	1405	8	0	0	1174028	692	0	correct_rejection	NA	0
11	Nonet	110	272	1406	7	0	0	1174737	691	0	correct_rejection	NA	0
11	Nonet	111	273	1407	9	0	0	1175445	692	0	correct_rejection	NA	0
11	Nonet	112	274	1408	8	0	0	1176154	691	0	correct_rejection	NA	0
11	Nonet	113	275	1409	7	0	0	1176862	692	0	correct_rejection	NA	0
11	Nonet	114	276	1410	0	1	3	1177571	691	1	hit	402	0
11	Nonet	115	277	1411	7	0	0	1178279	692	0	correct_rejection	NA	0
11	Nonet	116	278	1412	8	0	0	1178988	692	0	correct_rejection	NA	0
11	Nonet	117	279	1413	9	0	0	1179696	692	0	correct_rejection	NA	0
11	Nonet	118	280	1414	7	0	0	1180405	692	0	correct_rejection	NA	0
11	Nonet	119	281	1415	8	0	0	1181114	691	0	correct_rejection	NA	0
11	Nonet	120	282	1416	9	0	0	1181822	692	0	correct_rejection	NA	0
11	Nonet	121	283	1417	7	0	0	1182531	691	0	correct_rejection	NA	0
11	Nonet	122	284	1418	8	0	0	1183239	692	0	correct_rejection	NA	0
11	Nonet	123	285	1419	9	0	0	1183948	692	0	correct_rejection	NA	0
11	Nonet	124	286	1420	9	0	0	1184656	692	0	correct_rejection	NA	0
11	Nonet	125	287	1421	8	0	0	1185365	692	0	correct_rejection	NA	0
11	Nonet	126	288	1422	7	0	0	1186074	691	0	correct_rejection	NA	0
11	Nonet	127	289	1423	9	0	0	1186782	692	0	correct_rejection	NA	0
11	Nonet	128	290	1424	8	0	0	1187491	691	0	correct_rejection	NA	0
11	Nonet	129	291	1425	7	0	0	1188199	692	0	correct_rejection	NA	0
11	Nonet	130	292	1426	9	0	0	1188908	692	0	correct_rejection	NA	0
11	Nonet	131	293	1427	8	0	0	1189616	692	0	correct_rejection	NA	0
11	Nonet	132	294	1428	7	0	0	1190325	692	0	correct_rejection	NA	0
11	Nonet	133	295	1429	0	1	3	1191034	691	1	hit	357	0
11	Nonet	134	296	1430	9	0	0	1191742	692	0	correct_rejection	NA	0
11	Nonet	135	297	1431	8	0	0	1192451	691	0	correct_rejection	NA	0
11	Nonet	136	298	1432	7	0	0	1193159	692	0	correct_rejection	NA	0
11	Nonet	137	299	1433	9	0	0	1193868	691	0	correct_rejection	NA	0
11	Nonet	138	300	1434	8	0	0	1194576	692	0	correct_rejection	NA	0
11	Nonet	139	301	1435	7	0	0	1195285	692	0	correct_rejection	NA	0
11	Nonet	140	302	1436	9	0	0	1195994	691	0	correct_rejection	NA	0
11	Nonet	141	303	1437	8	0	0	1196702	692	0	correct_rejection	NA	0
11	Nonet	142	304	1438	7	0	0	1197411	691	0	correct_rejection	NA	0
11	Nonet	143	305	1439	6	0	0	1198119	692	0	correct_rejection	NA	0
11	Nonet	144	306	1440	5	0	0	1198828	691	0	correct_rejection	NA	0
11	Nonet	145	307	1441	4	0	0	1199536	692	0	correct_rejection	NA	0
11	Nonet	146	308	1442	0	1	2	1200245	692	1	hit	419	0
11	Nonet	147	309	1443	6	0	0	1200953	692	0	correct_rejection	NA	0
11	Nonet	148	310	1444	5	0	0	1201662	692	0	correct_rejection	NA	0
11	Nonet	149	311	1445	4	0	0	1202371	691	0	correct_rejection	NA	0
11	Nonet	150	312	1446	6	0	0	1203079	692	0	correct_rejection	NA	0
11	Nonet	151	313	1447	5	0	0	1203788	691	0	correct_rejection	NA	0
11	Nonet	152	314	1448	4	0	0	1204496	692	0	correct_rejection	NA	0
11	Nonet	153	315	1449	7	0	0	1205205	692	0	correct_rejection	NA	0
11	Nonet	154	316	1450	8	0	0	1205913	692	0	correct_rejection	NA	0
11	Nonet	155	317	1451	0	1	1	1206622	692	1	hit	355	0
11	Nonet	156	318	1452	9	0	0	1207331	691	0	correct_rejection	NA	0
11	Nonet	157	319	1453	7	0	0	1208039	692	0	correct_rejection	NA	0
11	Nonet	158	320	1454	8	0	0	1208748	691	0	correct_rejection	NA	0
11	Nonet	159	321	1455	9	0	0	1209456	692	0	correct_rejection	NA	0
11	Nonet	160	322	1456	7	0	0	1210165	692	0	correct_rejection	NA	0
11	Nonet	161	323	1457	8	0	0	1210873	692	0	correct_rejection	NA	0
11	Nonet	162	324	1458	9	0	0	1211582	692	0	correct_rejection	NA	0
11	Triplet	1	649	1459	4	0	0	1221560	692	0	correct_rejection	NA	7718
11	Triplet	2	650	1460	5	0	0	1222269	692	0	correct_rejection	NA	0
11	Triplet	3	651	1461	6	0	0	1222977	692	0	correct_rejection	NA	0
11	Triplet	4	652	1462	6	0	0	1223686	692	0	correct_rejection	NA	0
11	Triplet	5	653	1463	5	0	0	1224395	691	0	correct_rejection	NA	0
11	Triplet	6	654	1464	4	0	0	1225103	692	0	correct_rejection	NA	0
11	Triplet	7	655	1465	4	0	0	1225812	691	0	correct_rejection	NA	0
11	Triplet	8	656	1466	5	0	0	1226520	692	0	correct_rejection	NA	0
11	Triplet	9	657	1467	6	0	0	1227229	691	0	correct_rejection	NA	0
11	Triplet	10	658	1468	9	0	0	1227937	692	0	correct_rejection	NA	0
11	Triplet	11	659	1469	0	1	1	1228646	692	1	hit	468	0
11	Triplet	12	660	1470	8	0	0	1229354	692	0	correct_rejection	NA	0
11	Triplet	13	661	1471	7	0	0	1230063	692	0	correct_rejection	NA	0
11	Triplet	14	662	1472	6	0	0	1230772	691	0	correct_rejection	NA	0
11	Triplet	15	663	1473	0	1	1	1231480	692	1	hit	463	0
11	Triplet	16	664	1474	5	0	0	1232189	691	0	correct_rejection	NA	0
11	Triplet	17	665	1475	4	0	0	1232897	692	0	correct_rejection	NA	0
11	Triplet	18	666	1476	6	0	0	1233606	692	0	correct_rejection	NA	0
11	Triplet	19	667	1477	5	0	0	1234314	692	0	correct_rejection	NA	0
11	Triplet	20	668	1478	4	0	0	1235023	692	0	correct_rejection	NA	0
11	Triplet	21	669	1479	7	0	0	1235732	691	0	correct_rejection	NA	0
11	Triplet	22	670	1480	8	0	0	1236440	692	0	correct_rejection	NA	0
11	Triplet	23	671	1481	9	0	0	1237149	691	0	correct_rejection	NA	0
11	Triplet	24	672	1482	6	0	0	1237857	692	0	correct_rejection	NA	0
11	Triplet	25	673	1483	0	1	1	1238566	692	1	hit	446	0
11	Triplet	26	674	1484	5	0	0	1239274	692	0	correct_rejection	NA	0
11	Triplet	27	675	1485	4	0	0	1239983	692	0	correct_rejection	NA	0
11	Triplet	28	676	1486	9	0	0	1240692	691	0	correct_rejection	NA	0
11	Triplet	29	677	1487	8	0	0	1241400	692	0	correct_rejection	NA	0
11	Triplet	30	678	1488	7	0	0	1242109	691	0	correct_rejection	NA	0
11	Triplet	31	679	1489	7	0	0	1242817	692	0	correct_rejection	NA	0
11	Triplet	32	680	1490	8	0	0	1243526	692	0	correct_rejection	NA	0
11	Triplet	33	681	1491	9	0	0	1244234	692	0	correct_rejection	NA	0
11	Triplet	34	682	1492	4	0	0	1244943	692	0	correct_rejection	NA	0
11	Triplet	35	683	1493	5	0	0	1245652	691	0	correct_rejection	NA	0
11	Triplet	36	684	1494	6	0	0	1246360	692	0	correct_rejection	NA	0
11	Triplet	37	685	1495	4	0	0	1247069	691	0	correct_rejection	NA	0
11	Triplet	38	686	1496	5	0	0	1247777	692	0	correct_rejection	NA	0
11	Triplet	39	687	1497	0	1	1	1248486	691	1	hit	374	0
11	Triplet	40	688	1498	6	0	0	1249194	692	0	correct_rejection	NA	0
11	Triplet	41	689	1499	7	0	0	1249903	692	0	correct_rejection	NA	0
11	Triplet	42	690	1500	8	0	0	1250612	691	0	correct_rejection	NA	0
11	Triplet	43	691	1501	9	0	0	1251320	692	0	correct_rejection	NA	0
11	Triplet	44	692	1502	7	0	0	1252029	691	0	correct_rejection	NA	0
11	Triplet	45	693	1503	8	0	0	1252737	692	0	correct_rejection	NA	0
11	Triplet	46	694	1504	9	0	0	1253446	691	0	correct_rejection	NA	0
11	Triplet	47	695	1505	9	0	0	1254154	692	0	correct_rejection	NA	0
11	Triplet	48	696	1506	8	0	0	1254863	692	0	correct_rejection	NA	0
11	Triplet	49	697	1507	0	1	1	1255571	692	1	hit	383	0
11	Triplet	50	698	1508	7	0	0	1256280	692	0	correct_rejection	NA	0
11	Triplet	51	699	1509	9	0	0	1256989	691	0	correct_rejection	NA	0
11	Triplet	52	700	1510	8	0	0	1257697	692	0	correct_rejection	NA	0
11	Triplet	53	701	1511	7	0	0	1258406	691	0	correct_rejection	NA	0
11	Triplet	54	702	1512	7	0	0	1259114	692	0	correct_rejection	NA	0
11	Triplet	55	703	1513	0	1	1	1259823	692	1	hit	460	0
11	Triplet	56	704	1514	8	0	0	1260531	692	0	correct_rejection	NA	0
11	Triplet	57	705	1515	9	0	0	1261240	692	0	correct_rejection	NA	0
11	Triplet	58	706	1516	7	0	0	1261949	691	0	correct_rejection	NA	0
11	Triplet	59	707	1517	8	0	0	1262657	692	0	correct_rejection	NA	0
11	Triplet	60	708	1518	0	1	1	1263366	691	1	hit	464	0
11	Triplet	61	709	1519	9	0	0	1264074	692	0	correct_rejection	NA	0
11	Triplet	62	710	1520	6	0	0	1264783	692	0	correct_rejection	NA	0
11	Triplet	63	711	1521	5	0	0	1265491	692	0	correct_rejection	NA	0
11	Triplet	64	712	1522	4	0	0	1266200	692	0	correct_rejection	NA	0
11	Triplet	65	713	1523	6	0	0	1266909	691	0	correct_rejection	NA	0
11	Triplet	66	714	1524	5	0	0	1267617	692	0	correct_rejection	NA	0
11	Triplet	67	715	1525	4	0	0	1268326	691	0	correct_rejection	NA	0
11	Triplet	68	716	1526	0	1	2	1269034	692	1	hit	341	0
11	Triplet	69	717	1527	4	0	0	1269743	692	0	correct_rejection	NA	0
11	Triplet	70	718	1528	5	0	0	1270451	692	0	correct_rejection	NA	0
11	Triplet	71	719	1529	6	0	0	1271160	692	0	correct_rejection	NA	0
11	Triplet	72	720	1530	4	0	0	1271869	691	0	correct_rejection	NA	0
11	Triplet	73	721	1531	5	0	0	1272577	692	0	correct_rejection	NA	0
11	Triplet	74	722	1532	6	0	0	1273286	691	0	correct_rejection	NA	0
11	Triplet	75	723	1533	6	0	0	1273994	692	0	correct_rejection	NA	0
11	Triplet	76	724	1534	5	0	0	1274703	691	0	correct_rejection	NA	0
11	Triplet	77	725	1535	0	1	1	1275411	692	1	hit	443	0
11	Triplet	78	726	1536	4	0	0	1276120	692	0	correct_rejection	NA	0
11	Triplet	79	727	1537	7	0	0	1276828	692	0	correct_rejection	NA	0
11	Triplet	80	728	1538	8	0	0	1277537	692	0	correct_rejection	NA	0
11	Triplet	81	729	1539	9	0	0	1278246	691	0	correct_rejection	NA	0
11	Triplet	82	730	1540	4	0	0	1278954	692	0	correct_rejection	NA	0
11	Triplet	83	731	1541	5	0	0	1279663	691	0	correct_rejection	NA	0
11	Triplet	84	732	1542	6	0	0	1280371	692	0	correct_rejection	NA	0
11	Triplet	85	733	1543	9	0	0	1281080	692	0	correct_rejection	NA	0
11	Triplet	86	734	1544	8	0	0	1281788	692	0	correct_rejection	NA	0
11	Triplet	87	735	1545	7	0	0	1282497	692	0	correct_rejection	NA	0
11	Triplet	88	736	1546	9	0	0	1283206	691	0	correct_rejection	NA	0
11	Triplet	89	737	1547	8	0	0	1283914	692	0	correct_rejection	NA	0
11	Triplet	90	738	1548	7	0	0	1284623	691	0	correct_rejection	NA	0
11	Triplet	91	739	1549	7	0	0	1285331	692	0	correct_rejection	NA	0
11	Triplet	92	740	1550	8	0	0	1286040	692	0	correct_rejection	NA	0
11	Triplet	93	741	1551	9	0	0	1286748	692	0	correct_rejection	NA	0
11	Triplet	94	742	1552	9	0	0	1287457	692	0	correct_rejection	NA	0
11	Triplet	95	743	1553	8	0	0	1288166	691	0	correct_rejection	NA	0
11	Triplet	96	744	1554	7	0	0	1288874	692	0	correct_rejection	NA	0
11	Triplet	97	745	1555	6	0	0	1289583	691	0	correct_rejection	NA	0
11	Triplet	98	746	1556	5	0	0	1290291	692	0	correct_rejection	NA	0
11	Triplet	99	747	1557	4	0	0	1291000	692	0	correct_rejection	NA	0
11	Triplet	100	748	1558	9	0	0	1291708	692	0	correct_rejection	NA	0
11	Triplet	101	749	1559	8	0	0	1292417	692	0	correct_rejection	NA	0
11	Triplet	102	750	1560	0	1	1	1293126	691	1	hit	364	0
11	Triplet	103	751	1561	7	0	0	1293834	692	0	correct_rejection	NA	0
11	Triplet	104	752	1562	4	0	0	1294543	691	0	correct_rejection	NA	0
11	Triplet	105	753	1563	5	0	0	1295251	692	0	correct_rejection	NA	0
11	Triplet	106	754	1564	6	0	0	1295960	691	0	correct_rejection	NA	0
11	Triplet	107	755	1565	7	0	0	1296668	692	0	correct_rejection	NA	0
11	Triplet	108	756	1566	8	0	0	1297377	692	0	correct_rejection	NA	0
11	Triplet	109	757	1567	9	0	0	1298085	692	0	correct_rejection	NA	0
11	Triplet	110	758	1568	0	1	2	1298794	692	1	hit	444	0
11	Triplet	111	759	1569	9	0	0	1299503	691	0	correct_rejection	NA	0
11	Triplet	112	760	1570	8	0	0	1300211	692	0	correct_rejection	NA	0
11	Triplet	113	761	1571	7	0	0	1300920	691	0	correct_rejection	NA	0
11	Triplet	114	762	1572	4	0	0	1301628	692	0	correct_rejection	NA	0
11	Triplet	115	763	1573	5	0	0	1302337	692	0	correct_rejection	NA	0
11	Triplet	116	764	1574	6	0	0	1303045	692	0	correct_rejection	NA	0
11	Triplet	117	765	1575	0	1	2	1303754	692	1	hit	428	0
11	Triplet	118	766	1576	4	0	0	1304463	691	0	correct_rejection	NA	0
11	Triplet	119	767	1577	5	0	0	1305171	692	0	correct_rejection	NA	0
11	Triplet	120	768	1578	6	0	0	1305880	691	0	correct_rejection	NA	0
11	Triplet	121	769	1579	9	0	0	1306588	692	0	correct_rejection	NA	0
11	Triplet	122	770	1580	8	0	0	1307297	692	0	correct_rejection	NA	0
11	Triplet	123	771	1581	0	1	1	1308005	692	1	hit	478	0
11	Triplet	124	772	1582	7	0	0	1308714	692	0	correct_rejection	NA	0
11	Triplet	125	773	1583	7	0	0	1309423	691	0	correct_rejection	NA	0
11	Triplet	126	774	1584	8	0	0	1310131	692	0	correct_rejection	NA	0
11	Triplet	127	775	1585	9	0	0	1310840	691	0	correct_rejection	NA	0
11	Triplet	128	776	1586	0	1	2	1311548	692	1	hit	363	0
11	Triplet	129	777	1587	6	0	0	1312257	692	0	correct_rejection	NA	0
11	Triplet	130	778	1588	5	0	0	1312965	692	0	correct_rejection	NA	0
11	Triplet	131	779	1589	4	0	0	1313674	692	0	correct_rejection	NA	0
11	Triplet	132	780	1590	7	0	0	1314383	691	0	correct_rejection	NA	0
11	Triplet	133	781	1591	8	0	0	1315091	692	0	correct_rejection	NA	0
11	Triplet	134	782	1592	9	0	0	1315800	691	0	correct_rejection	NA	0
11	Triplet	135	783	1593	7	0	0	1316508	692	0	correct_rejection	NA	0
11	Triplet	136	784	1594	8	0	0	1317217	691	0	correct_rejection	NA	0
11	Triplet	137	785	1595	9	0	0	1317925	692	0	correct_rejection	NA	0
