ID	block	trial_block	trial_cat	trial_total	number	violation	level_violation	onset	duration	Response	Hit_Miss	RT	pre_trial_fixcross_ISI
first_trigger_at: 11278
trigger nr 3 at 13278
12	Correct	1	487	1	4	0	0	21031	692	0	correct_rejection	NA	7709
12	Correct	2	488	2	5	0	0	21740	692	0	correct_rejection	NA	0
12	Correct	3	489	3	6	0	0	22449	691	0	correct_rejection	NA	0
12	Correct	4	490	4	4	0	0	23157	692	0	correct_rejection	NA	0
12	Correct	5	491	5	0	1	1	23866	691	1	hit	325	0
12	Correct	6	492	6	5	0	0	24574	692	0	correct_rejection	NA	0
12	Correct	7	493	7	6	0	0	25283	692	0	correct_rejection	NA	0
12	Correct	8	494	8	0	1	2	25991	692	1	hit	355	0
12	Correct	9	495	9	4	0	0	26700	692	0	correct_rejection	NA	0
12	Correct	10	496	10	5	0	0	27409	691	0	correct_rejection	NA	0
12	Correct	11	497	11	6	0	0	28117	692	0	correct_rejection	NA	0
12	Correct	12	498	12	6	0	0	28826	691	0	correct_rejection	NA	0
12	Correct	13	499	13	5	0	0	29534	692	0	correct_rejection	NA	0
12	Correct	14	500	14	4	0	0	30243	691	0	correct_rejection	NA	0
12	Correct	15	501	15	0	1	2	30951	692	1	hit	244	0
12	Correct	16	502	16	6	0	0	31660	692	0	correct_rejection	NA	0
12	Correct	17	503	17	5	0	0	32369	691	0	correct_rejection	NA	0
12	Correct	18	504	18	4	0	0	33077	692	0	correct_rejection	NA	0
12	Correct	19	505	19	6	0	0	33786	691	0	correct_rejection	NA	0
12	Correct	20	506	20	0	1	1	34494	692	1	hit	310	0
12	Correct	21	507	21	5	0	0	35203	691	0	correct_rejection	NA	0
12	Correct	22	508	22	4	0	0	35911	692	0	correct_rejection	NA	0
12	Correct	23	509	23	9	0	0	36620	692	0	correct_rejection	NA	0
12	Correct	24	510	24	8	0	0	37328	692	0	correct_rejection	NA	0
12	Correct	25	511	25	7	0	0	38037	692	0	correct_rejection	NA	0
12	Correct	26	512	26	9	0	0	38746	691	0	correct_rejection	NA	0
12	Correct	27	513	27	0	1	1	39454	692	1	hit	262	0
12	Correct	28	514	28	8	0	0	40163	691	0	correct_rejection	NA	0
12	Correct	29	515	29	7	0	0	40871	692	0	correct_rejection	NA	0
12	Correct	30	516	30	9	0	0	41580	692	0	correct_rejection	NA	0
12	Correct	31	517	31	8	0	0	42288	692	0	correct_rejection	NA	0
12	Correct	32	518	32	0	1	1	42997	692	1	hit	316	0
12	Correct	33	519	33	7	0	0	43706	691	0	correct_rejection	NA	0
12	Correct	34	520	34	7	0	0	44414	692	0	correct_rejection	NA	0
12	Correct	35	521	35	8	0	0	45123	691	0	correct_rejection	NA	0
12	Correct	36	522	36	9	0	0	45831	692	0	correct_rejection	NA	0
12	Correct	37	523	37	7	0	0	46540	692	0	correct_rejection	NA	0
12	Correct	38	524	38	8	0	0	47248	692	0	correct_rejection	NA	0
12	Correct	39	525	39	9	0	0	47957	692	0	correct_rejection	NA	0
12	Correct	40	526	40	7	0	0	48666	691	0	correct_rejection	NA	0
12	Correct	41	527	41	8	0	0	49374	692	0	correct_rejection	NA	0
12	Correct	42	528	42	9	0	0	50083	691	0	correct_rejection	NA	0
12	Correct	43	529	43	4	0	0	50791	692	0	correct_rejection	NA	0
12	Correct	44	530	44	5	0	0	51500	692	0	correct_rejection	NA	0
12	Correct	45	531	45	6	0	0	52208	692	0	correct_rejection	NA	0
12	Correct	46	532	46	4	0	0	52917	692	0	correct_rejection	NA	0
12	Correct	47	533	47	5	0	0	53626	691	0	correct_rejection	NA	0
12	Correct	48	534	48	6	0	0	54334	692	0	correct_rejection	NA	0
12	Correct	49	535	49	4	0	0	55043	691	0	correct_rejection	NA	0
12	Correct	50	536	50	5	0	0	55751	692	0	correct_rejection	NA	0
12	Correct	51	537	51	0	1	1	56460	691	1	hit	312	0
12	Correct	52	538	52	6	0	0	57168	692	0	correct_rejection	NA	0
12	Correct	53	539	53	6	0	0	57877	692	0	correct_rejection	NA	0
12	Correct	54	540	54	5	0	0	58586	691	0	correct_rejection	NA	0
12	Correct	55	541	55	4	0	0	59294	692	0	correct_rejection	NA	0
12	Correct	56	542	56	6	0	0	60003	691	0	correct_rejection	NA	0
12	Correct	57	543	57	5	0	0	60711	692	0	correct_rejection	NA	0
12	Correct	58	544	58	4	0	0	61420	691	0	correct_rejection	NA	0
12	Correct	59	545	59	0	1	2	62128	692	1	hit	312	0
12	Correct	60	546	60	6	0	0	62837	692	0	correct_rejection	NA	0
12	Correct	61	547	61	5	0	0	63545	692	0	correct_rejection	NA	0
12	Correct	62	548	62	0	1	1	64254	692	1	hit	390	0
12	Correct	63	549	63	4	0	0	64963	691	0	correct_rejection	NA	0
12	Correct	64	550	64	9	0	0	65671	692	0	correct_rejection	NA	0
12	Correct	65	551	65	0	1	1	66380	691	1	hit	310	0
12	Correct	66	552	66	8	0	0	67088	692	0	correct_rejection	NA	0
12	Correct	67	553	67	7	0	0	67797	692	0	correct_rejection	NA	0
12	Correct	68	554	68	9	0	0	68505	692	0	correct_rejection	NA	0
12	Correct	69	555	69	8	0	0	69214	692	0	correct_rejection	NA	0
12	Correct	70	556	70	0	1	1	69923	691	1	hit	305	0
12	Correct	71	557	71	7	0	0	70631	692	0	correct_rejection	NA	0
12	Correct	72	558	72	9	0	0	71340	691	0	correct_rejection	NA	0
12	Correct	73	559	73	8	0	0	72048	692	0	correct_rejection	NA	0
12	Correct	74	560	74	7	0	0	72757	692	0	correct_rejection	NA	0
12	Correct	75	561	75	7	0	0	73465	692	0	correct_rejection	NA	0
12	Correct	76	562	76	8	0	0	74174	692	0	correct_rejection	NA	0
12	Correct	77	563	77	9	0	0	74883	691	0	correct_rejection	NA	0
12	Correct	78	564	78	7	0	0	75591	692	0	correct_rejection	NA	0
12	Correct	79	565	79	8	0	0	76300	691	0	correct_rejection	NA	0
12	Correct	80	566	80	9	0	0	77008	692	0	correct_rejection	NA	0
12	Correct	81	567	81	7	0	0	77717	692	0	correct_rejection	NA	0
12	Correct	82	568	82	8	0	0	78425	692	0	correct_rejection	NA	0
12	Correct	83	569	83	9	0	0	79134	692	0	correct_rejection	NA	0
12	Correct	84	570	84	4	0	0	79843	691	0	correct_rejection	NA	0
12	Correct	85	571	85	5	0	0	80551	692	0	correct_rejection	NA	0
12	Correct	86	572	86	6	0	0	81260	691	0	correct_rejection	NA	0
12	Correct	87	573	87	4	0	0	81968	692	0	correct_rejection	NA	0
12	Correct	88	574	88	5	0	0	82677	691	0	correct_rejection	NA	0
12	Correct	89	575	89	0	1	1	83385	692	1	hit	449	0
12	Correct	90	576	90	6	0	0	84094	692	0	correct_rejection	NA	0
12	Correct	91	577	91	4	0	0	84803	691	0	correct_rejection	NA	0
12	Correct	92	578	92	5	0	0	85511	692	0	correct_rejection	NA	0
12	Correct	93	579	93	6	0	0	86220	691	0	correct_rejection	NA	0
12	Correct	94	580	94	6	0	0	86928	692	0	correct_rejection	NA	0
12	Correct	95	581	95	0	1	1	87637	691	1	hit	306	0
12	Correct	96	582	96	5	0	0	88345	692	0	correct_rejection	NA	0
12	Correct	97	583	97	4	0	0	89054	692	0	correct_rejection	NA	0
12	Correct	98	584	98	6	0	0	89762	692	0	correct_rejection	NA	0
12	Correct	99	585	99	5	0	0	90471	692	0	correct_rejection	NA	0
12	Correct	100	586	100	4	0	0	91180	691	0	correct_rejection	NA	0
12	Correct	101	587	101	6	0	0	91888	692	0	correct_rejection	NA	0
12	Correct	102	588	102	5	0	0	92597	691	0	correct_rejection	NA	0
12	Correct	103	589	103	4	0	0	93305	692	0	correct_rejection	NA	0
12	Correct	104	590	104	9	0	0	94014	692	0	correct_rejection	NA	0
12	Correct	105	591	105	8	0	0	94722	692	0	correct_rejection	NA	0
12	Correct	106	592	106	7	0	0	95431	692	0	correct_rejection	NA	0
12	Correct	107	593	107	9	0	0	96140	691	0	correct_rejection	NA	0
12	Correct	108	594	108	8	0	0	96848	692	0	correct_rejection	NA	0
12	Correct	109	595	109	7	0	0	97557	691	0	correct_rejection	NA	0
12	Correct	110	596	110	9	0	0	98265	692	0	correct_rejection	NA	0
12	Correct	111	597	111	8	0	0	98974	692	0	correct_rejection	NA	0
12	Correct	112	598	112	7	0	0	99682	692	0	correct_rejection	NA	0
12	Correct	113	599	113	7	0	0	100391	692	0	correct_rejection	NA	0
12	Correct	114	600	114	8	0	0	101100	691	0	correct_rejection	NA	0
12	Correct	115	601	115	0	1	1	101808	692	1	hit	379	0
12	Correct	116	602	116	9	0	0	102517	691	0	correct_rejection	NA	0
12	Correct	117	603	117	7	0	0	103225	692	0	correct_rejection	NA	0
12	Correct	118	604	118	8	0	0	103934	692	0	correct_rejection	NA	0
12	Correct	119	605	119	9	0	0	104642	692	0	correct_rejection	NA	0
12	Correct	120	606	120	7	0	0	105351	692	0	correct_rejection	NA	0
12	Correct	121	607	121	8	0	0	106060	691	0	correct_rejection	NA	0
12	Correct	122	608	122	9	0	0	106768	692	0	correct_rejection	NA	0
12	Correct	123	609	123	0	1	4	107477	691	1	hit	290	0
12	Correct	124	610	124	4	0	0	108185	692	0	correct_rejection	NA	0
12	Correct	125	611	125	5	0	0	108894	692	0	correct_rejection	NA	0
12	Correct	126	612	126	6	0	0	109602	692	0	correct_rejection	NA	0
12	Correct	127	613	127	4	0	0	110311	692	0	correct_rejection	NA	0
12	Correct	128	614	128	5	0	0	111020	691	0	correct_rejection	NA	0
12	Correct	129	615	129	6	0	0	111728	692	0	correct_rejection	NA	0
12	Correct	130	616	130	0	1	2	112437	691	1	hit	300	0
12	Correct	131	617	131	4	0	0	113145	692	0	correct_rejection	NA	0
12	Correct	132	618	132	5	0	0	113854	691	0	correct_rejection	NA	0
12	Correct	133	619	133	6	0	0	114562	692	0	correct_rejection	NA	0
12	Correct	134	620	134	6	0	0	115271	692	0	correct_rejection	NA	0
12	Correct	135	621	135	5	0	0	115979	692	0	correct_rejection	NA	0
12	Correct	136	622	136	4	0	0	116688	692	0	correct_rejection	NA	0
12	Correct	137	623	137	6	0	0	117397	691	0	correct_rejection	NA	0
12	Correct	138	624	138	5	0	0	118105	692	0	correct_rejection	NA	0
12	Correct	139	625	139	0	1	1	118814	691	1	hit	277	0
12	Correct	140	626	140	4	0	0	119522	692	0	correct_rejection	NA	0
12	Correct	141	627	141	6	0	0	120231	692	0	correct_rejection	NA	0
12	Correct	142	628	142	5	0	0	120939	692	0	correct_rejection	NA	0
12	Correct	143	629	143	4	0	0	121648	692	0	correct_rejection	NA	0
12	Correct	144	630	144	0	1	3	122357	691	1	hit	294	0
12	Correct	145	631	145	9	0	0	123065	692	0	correct_rejection	NA	0
12	Correct	146	632	146	8	0	0	123774	691	0	correct_rejection	NA	0
12	Correct	147	633	147	7	0	0	124482	692	0	correct_rejection	NA	0
12	Correct	148	634	148	9	0	0	125191	692	0	correct_rejection	NA	0
12	Correct	149	635	149	8	0	0	125899	692	0	correct_rejection	NA	0
12	Correct	150	636	150	7	0	0	126608	692	0	correct_rejection	NA	0
12	Correct	151	637	151	9	0	0	127317	691	0	correct_rejection	NA	0
12	Correct	152	638	152	8	0	0	128025	692	0	correct_rejection	NA	0
12	Correct	153	639	153	7	0	0	128734	691	0	correct_rejection	NA	0
12	Correct	154	640	154	7	0	0	129442	692	0	correct_rejection	NA	0
12	Correct	155	641	155	8	0	0	130151	692	0	correct_rejection	NA	0
12	Correct	156	642	156	9	0	0	130859	692	0	correct_rejection	NA	0
12	Correct	157	643	157	7	0	0	131568	692	0	correct_rejection	NA	0
12	Correct	158	644	158	8	0	0	132277	691	0	correct_rejection	NA	0
12	Correct	159	645	159	9	0	0	132985	692	0	correct_rejection	NA	0
12	Correct	160	646	160	7	0	0	133694	691	0	correct_rejection	NA	0
12	Correct	161	647	161	8	0	0	134402	692	0	correct_rejection	NA	0
12	Correct	162	648	162	9	0	0	135111	692	0	correct_rejection	NA	0
12	Triplet	1	649	163	4	0	0	145031	691	0	correct_rejection	NA	7719
12	Triplet	2	650	164	5	0	0	145739	692	0	correct_rejection	NA	0
12	Triplet	3	651	165	6	0	0	146448	692	0	correct_rejection	NA	0
12	Triplet	4	652	166	6	0	0	147156	692	0	correct_rejection	NA	0
12	Triplet	5	653	167	5	0	0	147865	692	0	correct_rejection	NA	0
12	Triplet	6	654	168	4	0	0	148574	691	0	correct_rejection	NA	0
12	Triplet	7	655	169	4	0	0	149282	692	0	correct_rejection	NA	0
12	Triplet	8	656	170	5	0	0	149991	691	0	correct_rejection	NA	0
12	Triplet	9	657	171	6	0	0	150699	692	0	correct_rejection	NA	0
12	Triplet	10	658	172	9	0	0	151408	692	0	correct_rejection	NA	0
12	Triplet	11	659	173	0	1	1	152116	692	1	hit	287	0
12	Triplet	12	660	174	8	0	0	152825	692	0	correct_rejection	NA	0
12	Triplet	13	661	175	7	0	0	153534	691	0	correct_rejection	NA	0
12	Triplet	14	662	176	6	0	0	154242	692	0	correct_rejection	NA	0
12	Triplet	15	663	177	0	1	1	154951	691	1	hit	368	0
12	Triplet	16	664	178	5	0	0	155659	692	0	correct_rejection	NA	0
12	Triplet	17	665	179	4	0	0	156368	692	0	correct_rejection	NA	0
12	Triplet	18	666	180	6	0	0	157076	692	0	correct_rejection	NA	0
12	Triplet	19	667	181	5	0	0	157785	692	0	correct_rejection	NA	0
12	Triplet	20	668	182	4	0	0	158494	691	0	correct_rejection	NA	0
12	Triplet	21	669	183	7	0	0	159202	692	0	correct_rejection	NA	0
12	Triplet	22	670	184	8	0	0	159911	691	0	correct_rejection	NA	0
12	Triplet	23	671	185	9	0	0	160619	692	0	correct_rejection	NA	0
12	Triplet	24	672	186	6	0	0	161328	692	0	correct_rejection	NA	0
12	Triplet	25	673	187	0	1	1	162036	692	1	hit	382	0
12	Triplet	26	674	188	5	0	0	162745	692	0	correct_rejection	NA	0
12	Triplet	27	675	189	4	0	0	163454	691	0	correct_rejection	NA	0
12	Triplet	28	676	190	9	0	0	164162	692	0	correct_rejection	NA	0
12	Triplet	29	677	191	8	0	0	164871	691	0	correct_rejection	NA	0
12	Triplet	30	678	192	7	0	0	165579	692	0	correct_rejection	NA	0
12	Triplet	31	679	193	7	0	0	166288	691	0	correct_rejection	NA	0
12	Triplet	32	680	194	8	0	0	166996	692	0	correct_rejection	NA	0
12	Triplet	33	681	195	9	0	0	167705	692	0	correct_rejection	NA	0
12	Triplet	34	682	196	4	0	0	168413	692	0	correct_rejection	NA	0
12	Triplet	35	683	197	5	0	0	169122	692	0	correct_rejection	NA	0
12	Triplet	36	684	198	6	0	0	169831	691	0	correct_rejection	NA	0
12	Triplet	37	685	199	4	0	0	170539	692	0	correct_rejection	NA	0
12	Triplet	38	686	200	5	0	0	171248	691	0	correct_rejection	NA	0
12	Triplet	39	687	201	0	1	1	171956	692	1	hit	290	0
12	Triplet	40	688	202	6	0	0	172665	692	0	correct_rejection	NA	0
12	Triplet	41	689	203	7	0	0	173373	692	0	correct_rejection	NA	0
12	Triplet	42	690	204	8	0	0	174082	692	0	correct_rejection	NA	0
12	Triplet	43	691	205	9	0	0	174791	691	0	correct_rejection	NA	0
12	Triplet	44	692	206	7	0	0	175499	692	0	correct_rejection	NA	0
12	Triplet	45	693	207	8	0	0	176208	691	0	correct_rejection	NA	0
12	Triplet	46	694	208	9	0	0	176916	692	0	correct_rejection	NA	0
12	Triplet	47	695	209	9	0	0	177625	692	0	correct_rejection	NA	0
12	Triplet	48	696	210	8	0	0	178333	692	0	correct_rejection	NA	0
12	Triplet	49	697	211	0	1	1	179042	692	1	hit	294	0
12	Triplet	50	698	212	7	0	0	179751	691	0	correct_rejection	NA	0
12	Triplet	51	699	213	9	0	0	180459	692	0	correct_rejection	NA	0
12	Triplet	52	700	214	8	0	0	181168	691	0	correct_rejection	NA	0
12	Triplet	53	701	215	7	0	0	181876	692	0	correct_rejection	NA	0
12	Triplet	54	702	216	7	0	0	182585	692	0	correct_rejection	NA	0
12	Triplet	55	703	217	0	1	1	183293	692	1	hit	297	0
12	Triplet	56	704	218	8	0	0	184002	692	0	correct_rejection	NA	0
12	Triplet	57	705	219	9	0	0	184711	691	0	correct_rejection	NA	0
12	Triplet	58	706	220	7	0	0	185419	692	0	correct_rejection	NA	0
12	Triplet	59	707	221	8	0	0	186128	691	0	correct_rejection	NA	0
12	Triplet	60	708	222	0	1	1	186836	692	1	hit	275	0
12	Triplet	61	709	223	9	0	0	187545	692	0	correct_rejection	NA	0
12	Triplet	62	710	224	6	0	0	188253	692	0	correct_rejection	NA	0
12	Triplet	63	711	225	5	0	0	188962	692	0	correct_rejection	NA	0
12	Triplet	64	712	226	4	0	0	189671	691	0	correct_rejection	NA	0
12	Triplet	65	713	227	6	0	0	190379	692	0	correct_rejection	NA	0
12	Triplet	66	714	228	5	0	0	191088	691	0	correct_rejection	NA	0
12	Triplet	67	715	229	4	0	0	191796	692	0	correct_rejection	NA	0
12	Triplet	68	716	230	0	1	2	192505	691	0	miss	NA	0
12	Triplet	69	717	231	4	0	0	193213	692	0	correct_rejection	NA	0
12	Triplet	70	718	232	5	0	0	193922	692	0	correct_rejection	NA	0
12	Triplet	71	719	233	6	0	0	194630	692	0	correct_rejection	NA	0
12	Triplet	72	720	234	4	0	0	195339	692	0	correct_rejection	NA	0
12	Triplet	73	721	235	5	0	0	196048	691	0	correct_rejection	NA	0
12	Triplet	74	722	236	6	0	0	196756	692	0	correct_rejection	NA	0
12	Triplet	75	723	237	6	0	0	197465	691	0	correct_rejection	NA	0
12	Triplet	76	724	238	5	0	0	198173	692	0	correct_rejection	NA	0
12	Triplet	77	725	239	0	1	1	198882	692	1	hit	270	0
12	Triplet	78	726	240	4	0	0	199590	692	0	correct_rejection	NA	0
12	Triplet	79	727	241	7	0	0	200299	692	0	correct_rejection	NA	0
12	Triplet	80	728	242	8	0	0	201008	691	0	correct_rejection	NA	0
12	Triplet	81	729	243	9	0	0	201716	692	0	correct_rejection	NA	0
12	Triplet	82	730	244	4	0	0	202425	691	0	correct_rejection	NA	0
12	Triplet	83	731	245	5	0	0	203133	692	0	correct_rejection	NA	0
12	Triplet	84	732	246	6	0	0	203842	692	0	correct_rejection	NA	0
12	Triplet	85	733	247	9	0	0	204550	692	0	correct_rejection	NA	0
12	Triplet	86	734	248	8	0	0	205259	692	0	correct_rejection	NA	0
12	Triplet	87	735	249	7	0	0	205968	691	0	correct_rejection	NA	0
12	Triplet	88	736	250	9	0	0	206676	692	0	correct_rejection	NA	0
12	Triplet	89	737	251	8	0	0	207385	691	0	correct_rejection	NA	0
12	Triplet	90	738	252	7	0	0	208093	692	0	correct_rejection	NA	0
12	Triplet	91	739	253	7	0	0	208802	692	0	correct_rejection	NA	0
12	Triplet	92	740	254	8	0	0	209510	692	0	correct_rejection	NA	0
12	Triplet	93	741	255	9	0	0	210219	692	0	correct_rejection	NA	0
12	Triplet	94	742	256	9	0	0	210928	691	0	correct_rejection	NA	0
12	Triplet	95	743	257	8	0	0	211636	692	0	correct_rejection	NA	0
12	Triplet	96	744	258	7	0	0	212345	691	0	correct_rejection	NA	0
12	Triplet	97	745	259	6	0	0	213053	692	0	correct_rejection	NA	0
12	Triplet	98	746	260	5	0	0	213762	691	0	correct_rejection	NA	0
12	Triplet	99	747	261	4	0	0	214470	692	0	correct_rejection	NA	0
12	Triplet	100	748	262	9	0	0	215179	692	0	correct_rejection	NA	0
12	Triplet	101	749	263	8	0	0	215888	691	0	correct_rejection	NA	0
12	Triplet	102	750	264	0	1	1	216596	692	1	hit	272	0
12	Triplet	103	751	265	7	0	0	217305	691	0	correct_rejection	NA	0
12	Triplet	104	752	266	4	0	0	218013	692	0	correct_rejection	NA	0
12	Triplet	105	753	267	5	0	0	218722	691	0	correct_rejection	NA	0
12	Triplet	106	754	268	6	0	0	219430	692	0	correct_rejection	NA	0
12	Triplet	107	755	269	7	0	0	220139	692	0	correct_rejection	NA	0
12	Triplet	108	756	270	8	0	0	220847	692	0	correct_rejection	NA	0
12	Triplet	109	757	271	9	0	0	221556	692	0	correct_rejection	NA	0
12	Triplet	110	758	272	0	1	2	222265	691	1	hit	305	0
12	Triplet	111	759	273	9	0	0	222973	692	0	correct_rejection	NA	0
12	Triplet	112	760	274	8	0	0	223682	691	0	correct_rejection	NA	0
12	Triplet	113	761	275	7	0	0	224390	692	0	correct_rejection	NA	0
12	Triplet	114	762	276	4	0	0	225099	692	0	correct_rejection	NA	0
12	Triplet	115	763	277	5	0	0	225807	692	0	correct_rejection	NA	0
12	Triplet	116	764	278	6	0	0	226516	692	0	correct_rejection	NA	0
12	Triplet	117	765	279	0	1	2	227225	691	1	hit	281	0
12	Triplet	118	766	280	4	0	0	227933	692	0	correct_rejection	NA	0
12	Triplet	119	767	281	5	0	0	228642	691	0	correct_rejection	NA	0
12	Triplet	120	768	282	6	0	0	229350	692	0	correct_rejection	NA	0
12	Triplet	121	769	283	9	0	0	230059	692	0	correct_rejection	NA	0
12	Triplet	122	770	284	8	0	0	230767	692	0	correct_rejection	NA	0
12	Triplet	123	771	285	0	1	1	231476	692	1	hit	283	0
12	Triplet	124	772	286	7	0	0	232185	691	0	correct_rejection	NA	0
12	Triplet	125	773	287	7	0	0	232893	692	0	correct_rejection	NA	0
12	Triplet	126	774	288	8	0	0	233602	691	0	correct_rejection	NA	0
12	Triplet	127	775	289	9	0	0	234310	692	0	correct_rejection	NA	0
12	Triplet	128	776	290	0	1	2	235019	692	1	hit	311	0
12	Triplet	129	777	291	6	0	0	235727	692	0	correct_rejection	NA	0
12	Triplet	130	778	292	5	0	0	236436	692	0	correct_rejection	NA	0
12	Triplet	131	779	293	4	0	0	237145	691	0	correct_rejection	NA	0
12	Triplet	132	780	294	7	0	0	237853	692	0	correct_rejection	NA	0
12	Triplet	133	781	295	8	0	0	238562	691	0	correct_rejection	NA	0
12	Triplet	134	782	296	9	0	0	239270	692	0	correct_rejection	NA	0
12	Triplet	135	783	297	7	0	0	239979	692	0	correct_rejection	NA	0
12	Triplet	136	784	298	8	0	0	240687	692	0	correct_rejection	NA	0
12	Triplet	137	785	299	9	0	0	241396	692	0	correct_rejection	NA	0
12	Triplet	138	786	300	4	0	0	242105	691	0	correct_rejection	NA	0
12	Triplet	139	787	301	0	1	1	242813	692	1	hit	333	0
12	Triplet	140	788	302	5	0	0	243522	691	0	correct_rejection	NA	0
12	Triplet	141	789	303	6	0	0	244230	692	0	correct_rejection	NA	0
12	Triplet	142	790	304	0	1	2	244939	691	1	hit	332	0
12	Triplet	143	791	305	6	0	0	245647	692	0	correct_rejection	NA	0
12	Triplet	144	792	306	5	0	0	246356	692	0	correct_rejection	NA	0
12	Triplet	145	793	307	4	0	0	247064	692	0	correct_rejection	NA	0
12	Triplet	146	794	308	6	0	0	247773	692	0	correct_rejection	NA	0
12	Triplet	147	795	309	5	0	0	248482	691	0	correct_rejection	NA	0
12	Triplet	148	796	310	4	0	0	249190	692	0	correct_rejection	NA	0
12	Triplet	149	797	311	0	1	2	249899	691	1	hit	273	0
12	Triplet	150	798	312	9	0	0	250607	692	0	correct_rejection	NA	0
12	Triplet	151	799	313	8	0	0	251316	692	0	correct_rejection	NA	0
12	Triplet	152	800	314	7	0	0	252024	692	0	correct_rejection	NA	0
12	Triplet	153	801	315	0	1	2	252733	692	1	hit	304	0
12	Triplet	154	802	316	9	0	0	253442	691	0	correct_rejection	NA	0
12	Triplet	155	803	317	8	0	0	254150	692	0	correct_rejection	NA	0
12	Triplet	156	804	318	7	0	0	254859	691	0	correct_rejection	NA	0
12	Triplet	157	805	319	6	0	0	255567	692	0	correct_rejection	NA	0
12	Triplet	158	806	320	5	0	0	256276	692	0	correct_rejection	NA	0
12	Triplet	159	807	321	4	0	0	256984	692	0	correct_rejection	NA	0
12	Triplet	160	808	322	4	0	0	257693	692	0	correct_rejection	NA	0
12	Triplet	161	809	323	5	0	0	258402	691	0	correct_rejection	NA	0
12	Triplet	162	810	324	6	0	0	259110	692	0	correct_rejection	NA	0
12	Correct	1	1	325	4	0	0	268405	692	0	correct_rejection	NA	7099
12	Correct	2	2	326	5	0	0	269113	692	0	correct_rejection	NA	0
12	Correct	3	3	327	6	0	0	269822	692	0	correct_rejection	NA	0
12	Correct	4	4	328	0	1	2	270531	691	1	hit	308	0
12	Correct	5	5	329	4	0	0	271239	692	0	correct_rejection	NA	0
12	Correct	6	6	330	5	0	0	271948	691	0	correct_rejection	NA	0
12	Correct	7	7	331	6	0	0	272656	692	0	correct_rejection	NA	0
12	Correct	8	8	332	4	0	0	273365	692	0	correct_rejection	NA	0
12	Correct	9	9	333	5	0	0	274073	692	0	correct_rejection	NA	0
12	Correct	10	10	334	6	0	0	274782	692	0	correct_rejection	NA	0
12	Correct	11	11	335	0	1	3	275491	691	1	hit	301	0
12	Correct	12	12	336	6	0	0	276199	692	0	correct_rejection	NA	0
12	Correct	13	13	337	5	0	0	276908	691	0	correct_rejection	NA	0
12	Correct	14	14	338	4	0	0	277616	692	0	correct_rejection	NA	0
12	Correct	15	15	339	6	0	0	278325	692	0	correct_rejection	NA	0
12	Correct	16	16	340	0	1	1	279033	692	1	hit	335	0
12	Correct	17	17	341	5	0	0	279742	692	0	correct_rejection	NA	0
12	Correct	18	18	342	4	0	0	280451	691	0	correct_rejection	NA	0
12	Correct	19	19	343	6	0	0	281159	692	0	correct_rejection	NA	0
12	Correct	20	20	344	5	0	0	281868	691	0	correct_rejection	NA	0
12	Correct	21	21	345	4	0	0	282576	692	0	correct_rejection	NA	0
12	Correct	22	22	346	9	0	0	283285	691	0	correct_rejection	NA	0
12	Correct	23	23	347	8	0	0	283993	692	0	correct_rejection	NA	0
12	Correct	24	24	348	7	0	0	284702	692	0	correct_rejection	NA	0
12	Correct	25	25	349	9	0	0	285410	692	0	correct_rejection	NA	0
12	Correct	26	26	350	8	0	0	286119	692	0	correct_rejection	NA	0
12	Correct	27	27	351	7	0	0	286828	691	0	correct_rejection	NA	0
12	Correct	28	28	352	0	1	2	287536	692	1	hit	277	0
12	Correct	29	29	353	9	0	0	288245	691	0	correct_rejection	NA	0
12	Correct	30	30	354	8	0	0	288953	692	0	correct_rejection	NA	0
12	Correct	31	31	355	7	0	0	289662	692	0	correct_rejection	NA	0
12	Correct	32	32	356	7	0	0	290370	692	0	correct_rejection	NA	0
12	Correct	33	33	357	8	0	0	291079	692	0	correct_rejection	NA	0
12	Correct	34	34	358	9	0	0	291788	691	0	correct_rejection	NA	0
12	Correct	35	35	359	7	0	0	292496	692	0	correct_rejection	NA	0
12	Correct	36	36	360	8	0	0	293205	691	0	correct_rejection	NA	0
12	Correct	37	37	361	9	0	0	293913	692	0	correct_rejection	NA	0
12	Correct	38	38	362	7	0	0	294622	692	0	correct_rejection	NA	0
12	Correct	39	39	363	8	0	0	295330	692	0	correct_rejection	NA	0
12	Correct	40	40	364	9	0	0	296039	692	0	correct_rejection	NA	0
12	Correct	41	41	365	0	1	4	296748	691	1	hit	296	0
12	Correct	42	42	366	4	0	0	297456	692	0	correct_rejection	NA	0
12	Correct	43	43	367	5	0	0	298165	691	0	correct_rejection	NA	0
12	Correct	44	44	368	0	1	1	298873	692	1	hit	345	0
12	Correct	45	45	369	6	0	0	299582	692	0	correct_rejection	NA	0
12	Correct	46	46	370	4	0	0	300290	692	0	correct_rejection	NA	0
12	Correct	47	47	371	5	0	0	300999	692	0	correct_rejection	NA	0
12	Correct	48	48	372	6	0	0	301708	691	0	correct_rejection	NA	0
12	Correct	49	49	373	4	0	0	302416	692	0	correct_rejection	NA	0
12	Correct	50	50	374	5	0	0	303125	691	0	correct_rejection	NA	0
12	Correct	51	51	375	6	0	0	303833	692	0	correct_rejection	NA	0
12	Correct	52	52	376	6	0	0	304542	692	0	correct_rejection	NA	0
12	Correct	53	53	377	5	0	0	305250	692	0	correct_rejection	NA	0
12	Correct	54	54	378	4	0	0	305959	692	0	correct_rejection	NA	0
12	Correct	55	55	379	6	0	0	306668	691	0	correct_rejection	NA	0
12	Correct	56	56	380	5	0	0	307376	692	0	correct_rejection	NA	0
12	Correct	57	57	381	4	0	0	308085	691	0	correct_rejection	NA	0
12	Correct	58	58	382	6	0	0	308793	692	0	correct_rejection	NA	0
12	Correct	59	59	383	5	0	0	309502	691	0	correct_rejection	NA	0
12	Correct	60	60	384	4	0	0	310210	692	0	correct_rejection	NA	0
12	Correct	61	61	385	9	0	0	310919	692	0	correct_rejection	NA	0
12	Correct	62	62	386	8	0	0	311628	691	0	correct_rejection	NA	0
12	Correct	63	63	387	7	0	0	312336	692	0	correct_rejection	NA	0
12	Correct	64	64	388	9	0	0	313045	691	0	correct_rejection	NA	0
12	Correct	65	65	389	8	0	0	313753	692	0	correct_rejection	NA	0
12	Correct	66	66	390	7	0	0	314462	691	0	correct_rejection	NA	0
12	Correct	67	67	391	9	0	0	315170	692	0	correct_rejection	NA	0
12	Correct	68	68	392	8	0	0	315879	692	0	correct_rejection	NA	0
12	Correct	69	69	393	7	0	0	316587	692	0	correct_rejection	NA	0
12	Correct	70	70	394	7	0	0	317296	692	0	correct_rejection	NA	0
12	Correct	71	71	395	8	0	0	318005	691	0	correct_rejection	NA	0
12	Correct	72	72	396	9	0	0	318713	692	0	correct_rejection	NA	0
12	Correct	73	73	397	7	0	0	319422	691	0	correct_rejection	NA	0
12	Correct	74	74	398	8	0	0	320130	692	0	correct_rejection	NA	0
12	Correct	75	75	399	9	0	0	320839	692	0	correct_rejection	NA	0
12	Correct	76	76	400	7	0	0	321547	692	0	correct_rejection	NA	0
12	Correct	77	77	401	8	0	0	322256	692	0	correct_rejection	NA	0
12	Correct	78	78	402	9	0	0	322965	691	0	correct_rejection	NA	0
12	Correct	79	79	403	4	0	0	323673	692	0	correct_rejection	NA	0
12	Correct	80	80	404	0	1	1	324382	691	1	hit	296	0
12	Correct	81	81	405	5	0	0	325090	692	0	correct_rejection	NA	0
12	Correct	82	82	406	6	0	0	325799	692	0	correct_rejection	NA	0
12	Correct	83	83	407	4	0	0	326507	692	0	correct_rejection	NA	0
12	Correct	84	84	408	5	0	0	327216	692	0	correct_rejection	NA	0
12	Correct	85	85	409	6	0	0	327925	691	0	correct_rejection	NA	0
12	Correct	86	86	410	4	0	0	328633	692	0	correct_rejection	NA	0
12	Correct	87	87	411	0	1	1	329342	691	1	hit	287	0
12	Correct	88	88	412	5	0	0	330050	692	0	correct_rejection	NA	0
12	Correct	89	89	413	6	0	0	330759	692	0	correct_rejection	NA	0
12	Correct	90	90	414	6	0	0	331467	692	0	correct_rejection	NA	0
12	Correct	91	91	415	5	0	0	332176	692	0	correct_rejection	NA	0
12	Correct	92	92	416	0	1	1	332885	691	1	hit	307	0
12	Correct	93	93	417	4	0	0	333593	692	0	correct_rejection	NA	0
12	Correct	94	94	418	6	0	0	334302	691	0	correct_rejection	NA	0
12	Correct	95	95	419	5	0	0	335010	692	0	correct_rejection	NA	0
12	Correct	96	96	420	0	1	1	335719	691	1	hit	334	0
12	Correct	97	97	421	4	0	0	336427	692	0	correct_rejection	NA	0
12	Correct	98	98	422	6	0	0	337136	692	0	correct_rejection	NA	0
12	Correct	99	99	423	5	0	0	337845	691	0	correct_rejection	NA	0
12	Correct	100	100	424	4	0	0	338553	692	0	correct_rejection	NA	0
12	Correct	101	101	425	9	0	0	339262	691	0	correct_rejection	NA	0
12	Correct	102	102	426	0	1	1	339970	692	1	hit	335	0
12	Correct	103	103	427	8	0	0	340679	691	0	correct_rejection	NA	0
12	Correct	104	104	428	7	0	0	341387	692	0	correct_rejection	NA	0
12	Correct	105	105	429	9	0	0	342096	692	0	correct_rejection	NA	0
12	Correct	106	106	430	8	0	0	342804	692	0	correct_rejection	NA	0
12	Correct	107	107	431	7	0	0	343513	692	0	correct_rejection	NA	0
12	Correct	108	108	432	9	0	0	344222	691	0	correct_rejection	NA	0
12	Correct	109	109	433	8	0	0	344930	692	0	correct_rejection	NA	0
12	Correct	110	110	434	0	1	1	345639	691	1	hit	317	0
12	Correct	111	111	435	7	0	0	346347	692	0	correct_rejection	NA	0
12	Correct	112	112	436	7	0	0	347056	692	0	correct_rejection	NA	0
12	Correct	113	113	437	8	0	0	347764	692	0	correct_rejection	NA	0
12	Correct	114	114	438	9	0	0	348473	692	0	correct_rejection	NA	0
12	Correct	115	115	439	7	0	0	349182	691	0	correct_rejection	NA	0
12	Correct	116	116	440	8	0	0	349890	692	0	correct_rejection	NA	0
12	Correct	117	117	441	9	0	0	350599	691	0	correct_rejection	NA	0
12	Correct	118	118	442	7	0	0	351307	692	0	correct_rejection	NA	0
12	Correct	119	119	443	8	0	0	352016	692	0	correct_rejection	NA	0
12	Correct	120	120	444	0	1	1	352724	692	1	hit	321	0
12	Correct	121	121	445	9	0	0	353433	692	0	correct_rejection	NA	0
12	Correct	122	122	446	4	0	0	354142	691	0	correct_rejection	NA	0
12	Correct	123	123	447	5	0	0	354850	692	0	correct_rejection	NA	0
12	Correct	124	124	448	6	0	0	355559	691	0	correct_rejection	NA	0
12	Correct	125	125	449	4	0	0	356267	692	0	correct_rejection	NA	0
12	Correct	126	126	450	5	0	0	356976	692	0	correct_rejection	NA	0
12	Correct	127	127	451	6	0	0	357684	692	0	correct_rejection	NA	0
12	Correct	128	128	452	4	0	0	358393	692	0	correct_rejection	NA	0
12	Correct	129	129	453	5	0	0	359102	691	0	correct_rejection	NA	0
12	Correct	130	130	454	0	1	1	359810	692	1	hit	345	0
12	Correct	131	131	455	6	0	0	360519	691	0	correct_rejection	NA	0
12	Correct	132	132	456	6	0	0	361227	692	0	correct_rejection	NA	0
12	Correct	133	133	457	0	1	1	361936	691	1	hit	331	0
12	Correct	134	134	458	5	0	0	362644	692	0	correct_rejection	NA	0
12	Correct	135	135	459	4	0	0	363353	692	0	correct_rejection	NA	0
12	Correct	136	136	460	6	0	0	364062	691	0	correct_rejection	NA	0
12	Correct	137	137	461	5	0	0	364770	692	0	correct_rejection	NA	0
12	Correct	138	138	462	4	0	0	365479	691	0	correct_rejection	NA	0
12	Correct	139	139	463	0	1	2	366187	692	1	hit	311	0
12	Correct	140	140	464	6	0	0	366896	691	0	correct_rejection	NA	0
12	Correct	141	141	465	5	0	0	367604	692	0	correct_rejection	NA	0
12	Correct	142	142	466	4	0	0	368313	692	0	correct_rejection	NA	0
12	Correct	143	143	467	9	0	0	369021	692	0	correct_rejection	NA	0
12	Correct	144	144	468	8	0	0	369730	692	0	correct_rejection	NA	0
12	Correct	145	145	469	7	0	0	370439	691	0	correct_rejection	NA	0
12	Correct	146	146	470	9	0	0	371147	692	0	correct_rejection	NA	0
12	Correct	147	147	471	8	0	0	371856	691	0	correct_rejection	NA	0
12	Correct	148	148	472	7	0	0	372564	692	0	correct_rejection	NA	0
12	Correct	149	149	473	9	0	0	373273	692	0	correct_rejection	NA	0
12	Correct	150	150	474	0	1	1	373981	692	1	hit	315	0
12	Correct	151	151	475	8	0	0	374690	692	0	correct_rejection	NA	0
12	Correct	152	152	476	7	0	0	375399	691	0	correct_rejection	NA	0
12	Correct	153	153	477	7	0	0	376107	692	0	correct_rejection	NA	0
12	Correct	154	154	478	8	0	0	376816	691	0	correct_rejection	NA	0
12	Correct	155	155	479	9	0	0	377524	692	0	correct_rejection	NA	0
12	Correct	156	156	480	0	1	2	378233	692	1	hit	321	0
12	Correct	157	157	481	7	0	0	378941	692	0	correct_rejection	NA	0
12	Correct	158	158	482	8	0	0	379650	692	0	correct_rejection	NA	0
12	Correct	159	159	483	9	0	0	380359	691	0	correct_rejection	NA	0
12	Correct	160	160	484	7	0	0	381067	692	0	correct_rejection	NA	0
12	Correct	161	161	485	8	0	0	381776	691	0	correct_rejection	NA	0
12	Correct	162	162	486	9	0	0	382484	692	0	correct_rejection	NA	0
12	Nonet	1	325	487	4	0	0	391837	692	0	correct_rejection	NA	7528
12	Nonet	2	326	488	5	0	0	392546	692	0	correct_rejection	NA	0
12	Nonet	3	327	489	6	0	0	393254	692	0	correct_rejection	NA	0
12	Nonet	4	328	490	4	0	0	393963	692	0	correct_rejection	NA	0
12	Nonet	5	329	491	5	0	0	394672	691	0	correct_rejection	NA	0
12	Nonet	6	330	492	6	0	0	395380	692	0	correct_rejection	NA	0
12	Nonet	7	331	493	0	1	2	396089	691	1	hit	291	0
12	Nonet	8	332	494	4	0	0	396797	692	0	correct_rejection	NA	0
12	Nonet	9	333	495	5	0	0	397506	692	0	correct_rejection	NA	0
12	Nonet	10	334	496	6	0	0	398214	692	0	correct_rejection	NA	0
12	Nonet	11	335	497	6	0	0	398923	692	0	correct_rejection	NA	0
12	Nonet	12	336	498	0	1	1	399632	691	1	hit	308	0
12	Nonet	13	337	499	5	0	0	400340	692	0	correct_rejection	NA	0
12	Nonet	14	338	500	4	0	0	401049	691	0	correct_rejection	NA	0
12	Nonet	15	339	501	6	0	0	401757	692	0	correct_rejection	NA	0
12	Nonet	16	340	502	5	0	0	402466	692	0	correct_rejection	NA	0
12	Nonet	17	341	503	4	0	0	403174	692	0	correct_rejection	NA	0
12	Nonet	18	342	504	6	0	0	403883	692	0	correct_rejection	NA	0
12	Nonet	19	343	505	5	0	0	404592	691	0	correct_rejection	NA	0
12	Nonet	20	344	506	4	0	0	405300	692	0	correct_rejection	NA	0
12	Nonet	21	345	507	4	0	0	406009	691	0	correct_rejection	NA	0
12	Nonet	22	346	508	5	0	0	406717	692	0	correct_rejection	NA	0
12	Nonet	23	347	509	6	0	0	407426	692	0	correct_rejection	NA	0
12	Nonet	24	348	510	4	0	0	408134	692	0	correct_rejection	NA	0
12	Nonet	25	349	511	0	1	1	408843	692	1	hit	297	0
12	Nonet	26	350	512	5	0	0	409552	691	0	correct_rejection	NA	0
12	Nonet	27	351	513	6	0	0	410260	692	0	correct_rejection	NA	0
12	Nonet	28	352	514	4	0	0	410969	691	0	correct_rejection	NA	0
12	Nonet	29	353	515	5	0	0	411677	692	0	correct_rejection	NA	0
12	Nonet	30	354	516	6	0	0	412386	692	0	correct_rejection	NA	0
12	Nonet	31	355	517	9	0	0	413094	692	0	correct_rejection	NA	0
12	Nonet	32	356	518	8	0	0	413803	692	1	false_alarm	338	0
12	Nonet	33	357	519	7	0	0	414512	691	0	correct_rejection	NA	0
12	Nonet	34	358	520	9	0	0	415220	692	0	correct_rejection	NA	0
12	Nonet	35	359	521	8	0	0	415929	691	0	correct_rejection	NA	0
12	Nonet	36	360	522	7	0	0	416637	692	0	correct_rejection	NA	0
12	Nonet	37	361	523	9	0	0	417346	691	0	correct_rejection	NA	0
12	Nonet	38	362	524	8	0	0	418054	692	0	correct_rejection	NA	0
12	Nonet	39	363	525	7	0	0	418763	692	0	correct_rejection	NA	0
12	Nonet	40	364	526	4	0	0	419471	692	0	correct_rejection	NA	0
12	Nonet	41	365	527	5	0	0	420180	692	0	correct_rejection	NA	0
12	Nonet	42	366	528	6	0	0	420889	691	0	correct_rejection	NA	0
12	Nonet	43	367	529	4	0	0	421597	692	0	correct_rejection	NA	0
12	Nonet	44	368	530	5	0	0	422306	691	0	correct_rejection	NA	0
12	Nonet	45	369	531	0	1	1	423014	692	1	hit	342	0
12	Nonet	46	370	532	6	0	0	423723	692	0	correct_rejection	NA	0
12	Nonet	47	371	533	4	0	0	424431	692	0	correct_rejection	NA	0
12	Nonet	48	372	534	5	0	0	425140	692	0	correct_rejection	NA	0
12	Nonet	49	373	535	6	0	0	425849	691	0	correct_rejection	NA	0
12	Nonet	50	374	536	7	0	0	426557	692	0	correct_rejection	NA	0
12	Nonet	51	375	537	0	1	1	427266	691	1	hit	320	0
12	Nonet	52	376	538	8	0	0	427974	692	0	correct_rejection	NA	0
12	Nonet	53	377	539	9	0	0	428683	692	0	correct_rejection	NA	0
12	Nonet	54	378	540	7	0	0	429391	692	0	correct_rejection	NA	0
12	Nonet	55	379	541	8	0	0	430100	692	0	correct_rejection	NA	0
12	Nonet	56	380	542	9	0	0	430809	691	0	correct_rejection	NA	0
12	Nonet	57	381	543	7	0	0	431517	692	0	correct_rejection	NA	0
12	Nonet	58	382	544	8	0	0	432226	691	0	correct_rejection	NA	0
12	Nonet	59	383	545	9	0	0	432934	692	0	correct_rejection	NA	0
12	Nonet	60	384	546	9	0	0	433643	692	0	correct_rejection	NA	0
12	Nonet	61	385	547	8	0	0	434351	692	0	correct_rejection	NA	0
12	Nonet	62	386	548	7	0	0	435060	692	0	correct_rejection	NA	0
12	Nonet	63	387	549	9	0	0	435769	691	0	correct_rejection	NA	0
12	Nonet	64	388	550	8	0	0	436477	692	0	correct_rejection	NA	0
12	Nonet	65	389	551	0	1	1	437186	691	1	hit	310	0
12	Nonet	66	390	552	7	0	0	437894	692	0	correct_rejection	NA	0
12	Nonet	67	391	553	9	0	0	438603	692	0	correct_rejection	NA	0
12	Nonet	68	392	554	8	0	0	439311	692	0	correct_rejection	NA	0
12	Nonet	69	393	555	7	0	0	440020	692	0	correct_rejection	NA	0
12	Nonet	70	394	556	0	1	3	440729	691	1	hit	366	0
12	Nonet	71	395	557	9	0	0	441437	692	0	correct_rejection	NA	0
12	Nonet	72	396	558	8	0	0	442146	691	0	correct_rejection	NA	0
12	Nonet	73	397	559	7	0	0	442854	692	0	correct_rejection	NA	0
12	Nonet	74	398	560	9	0	0	443563	691	0	correct_rejection	NA	0
12	Nonet	75	399	561	8	0	0	444271	692	0	correct_rejection	NA	0
12	Nonet	76	400	562	7	0	0	444980	692	0	correct_rejection	NA	0
12	Nonet	77	401	563	9	0	0	445688	692	0	correct_rejection	NA	0
12	Nonet	78	402	564	0	1	1	446397	692	1	hit	309	0
12	Nonet	79	403	565	8	0	0	447106	691	0	correct_rejection	NA	0
12	Nonet	80	404	566	7	0	0	447814	692	0	correct_rejection	NA	0
12	Nonet	81	405	567	6	0	0	448523	691	0	correct_rejection	NA	0
12	Nonet	82	406	568	5	0	0	449231	692	0	correct_rejection	NA	0
12	Nonet	83	407	569	4	0	0	449940	692	0	correct_rejection	NA	0
12	Nonet	84	408	570	0	1	2	450648	692	1	hit	303	0
12	Nonet	85	409	571	6	0	0	451357	692	0	correct_rejection	NA	0
12	Nonet	86	410	572	5	0	0	452066	691	0	correct_rejection	NA	0
12	Nonet	87	411	573	4	0	0	452774	692	0	correct_rejection	NA	0
12	Nonet	88	412	574	6	0	0	453483	691	0	correct_rejection	NA	0
12	Nonet	89	413	575	5	0	0	454191	692	0	correct_rejection	NA	0
12	Nonet	90	414	576	4	0	0	454900	692	0	correct_rejection	NA	0
12	Nonet	91	415	577	7	0	0	455608	692	0	correct_rejection	NA	0
12	Nonet	92	416	578	8	0	0	456317	692	0	correct_rejection	NA	0
12	Nonet	93	417	579	9	0	0	457026	691	0	correct_rejection	NA	0
12	Nonet	94	418	580	7	0	0	457734	692	0	correct_rejection	NA	0
12	Nonet	95	419	581	8	0	0	458443	691	0	correct_rejection	NA	0
12	Nonet	96	420	582	9	0	0	459151	692	0	correct_rejection	NA	0
12	Nonet	97	421	583	7	0	0	459860	692	0	correct_rejection	NA	0
12	Nonet	98	422	584	8	0	0	460568	692	0	correct_rejection	NA	0
12	Nonet	99	423	585	9	0	0	461277	692	0	correct_rejection	NA	0
12	Nonet	100	424	586	6	0	0	461986	691	0	correct_rejection	NA	0
12	Nonet	101	425	587	0	1	1	462694	692	1	hit	501	0
12	Nonet	102	426	588	5	0	0	463403	691	0	correct_rejection	NA	0
12	Nonet	103	427	589	4	0	0	464111	692	0	correct_rejection	NA	0
12	Nonet	104	428	590	6	0	0	464820	692	0	correct_rejection	NA	0
12	Nonet	105	429	591	5	0	0	465528	692	0	correct_rejection	NA	0
12	Nonet	106	430	592	4	0	0	466237	692	0	correct_rejection	NA	0
12	Nonet	107	431	593	6	0	0	466946	691	0	correct_rejection	NA	0
12	Nonet	108	432	594	5	0	0	467654	692	0	correct_rejection	NA	0
12	Nonet	109	433	595	4	0	0	468363	691	0	correct_rejection	NA	0
12	Nonet	110	434	596	0	1	3	469071	692	1	hit	345	0
12	Nonet	111	435	597	6	0	0	469780	691	0	correct_rejection	NA	0
12	Nonet	112	436	598	5	0	0	470488	692	0	correct_rejection	NA	0
12	Nonet	113	437	599	0	1	1	471197	692	1	hit	329	0
12	Nonet	114	438	600	4	0	0	471905	692	0	correct_rejection	NA	0
12	Nonet	115	439	601	6	0	0	472614	692	0	correct_rejection	NA	0
12	Nonet	116	440	602	5	0	0	473323	691	0	correct_rejection	NA	0
12	Nonet	117	441	603	4	0	0	474031	692	0	correct_rejection	NA	0
12	Nonet	118	442	604	6	0	0	474740	691	0	correct_rejection	NA	0
12	Nonet	119	443	605	5	0	0	475448	692	0	correct_rejection	NA	0
12	Nonet	120	444	606	4	0	0	476157	692	0	correct_rejection	NA	0
12	Nonet	121	445	607	9	0	0	476865	692	0	correct_rejection	NA	0
12	Nonet	122	446	608	8	0	0	477574	692	0	correct_rejection	NA	0
12	Nonet	123	447	609	0	1	1	478283	691	1	hit	464	0
12	Nonet	124	448	610	7	0	0	478991	692	0	correct_rejection	NA	0
12	Nonet	125	449	611	9	0	0	479700	691	0	correct_rejection	NA	0
12	Nonet	126	450	612	8	0	0	480408	692	0	correct_rejection	NA	0
12	Nonet	127	451	613	7	0	0	481117	692	0	correct_rejection	NA	0
12	Nonet	128	452	614	9	0	0	481825	692	0	correct_rejection	NA	0
12	Nonet	129	453	615	8	0	0	482534	692	0	correct_rejection	NA	0
12	Nonet	130	454	616	7	0	0	483243	691	0	correct_rejection	NA	0
12	Nonet	131	455	617	0	1	3	483951	692	1	hit	328	0
12	Nonet	132	456	618	7	0	0	484660	691	0	correct_rejection	NA	0
12	Nonet	133	457	619	8	0	0	485368	692	0	correct_rejection	NA	0
12	Nonet	134	458	620	9	0	0	486077	692	0	correct_rejection	NA	0
12	Nonet	135	459	621	7	0	0	486785	692	0	correct_rejection	NA	0
12	Nonet	136	460	622	8	0	0	487494	692	0	correct_rejection	NA	0
12	Nonet	137	461	623	0	1	1	488203	691	1	hit	601	0
12	Nonet	138	462	624	9	0	0	488911	692	0	correct_rejection	NA	0
12	Nonet	139	463	625	7	0	0	489620	691	0	correct_rejection	NA	0
12	Nonet	140	464	626	8	0	0	490328	692	0	correct_rejection	NA	0
12	Nonet	141	465	627	9	0	0	491037	692	0	correct_rejection	NA	0
12	Nonet	142	466	628	0	1	3	491745	692	1	hit	335	0
12	Nonet	143	467	629	7	0	0	492454	692	0	correct_rejection	NA	0
12	Nonet	144	468	630	8	0	0	493163	691	0	correct_rejection	NA	0
12	Nonet	145	469	631	9	0	0	493871	692	0	correct_rejection	NA	0
12	Nonet	146	470	632	7	0	0	494580	691	0	correct_rejection	NA	0
12	Nonet	147	471	633	8	0	0	495288	692	0	correct_rejection	NA	0
12	Nonet	148	472	634	9	0	0	495997	691	0	correct_rejection	NA	0
12	Nonet	149	473	635	7	0	0	496705	692	0	correct_rejection	NA	0
12	Nonet	150	474	636	8	0	0	497414	692	0	correct_rejection	NA	0
12	Nonet	151	475	637	9	0	0	498122	692	0	correct_rejection	NA	0
12	Nonet	152	476	638	4	0	0	498831	692	0	correct_rejection	NA	0
12	Nonet	153	477	639	5	0	0	499540	691	0	correct_rejection	NA	0
12	Nonet	154	478	640	0	1	1	500248	692	1	hit	375	0
12	Nonet	155	479	641	6	0	0	500957	691	0	correct_rejection	NA	0
12	Nonet	156	480	642	4	0	0	501665	692	0	correct_rejection	NA	0
12	Nonet	157	481	643	0	1	1	502374	692	1	hit	330	0
12	Nonet	158	482	644	5	0	0	503082	692	0	correct_rejection	NA	0
12	Nonet	159	483	645	6	0	0	503791	692	0	correct_rejection	NA	0
12	Nonet	160	484	646	4	0	0	504500	691	0	correct_rejection	NA	0
12	Nonet	161	485	647	5	0	0	505208	692	0	correct_rejection	NA	0
12	Nonet	162	486	648	6	0	0	505917	691	0	correct_rejection	NA	0
12	Single	1	487	649	7	0	0	515453	692	0	correct_rejection	NA	7148
12	Single	2	488	650	4	0	0	516162	691	0	correct_rejection	NA	0
12	Single	3	489	651	5	0	0	516870	692	0	correct_rejection	NA	0
12	Single	4	490	652	0	1	1	517579	692	1	hit	282	0
12	Single	5	491	653	5	0	0	518287	692	0	correct_rejection	NA	0
12	Single	6	492	654	7	0	0	518996	692	0	correct_rejection	NA	0
12	Single	7	493	655	6	0	0	519705	691	0	correct_rejection	NA	0
12	Single	8	494	656	4	0	0	520413	692	0	correct_rejection	NA	0
12	Single	9	495	657	9	0	0	521122	691	0	correct_rejection	NA	0
12	Single	10	496	658	0	1	1	521830	692	1	hit	297	0
12	Single	11	497	659	5	0	0	522539	692	0	correct_rejection	NA	0
12	Single	12	498	660	9	0	0	523247	692	0	correct_rejection	NA	0
12	Single	13	499	661	0	1	1	523956	692	1	hit	351	0
12	Single	14	500	662	4	0	0	524665	691	0	correct_rejection	NA	0
12	Single	15	501	663	8	0	0	525373	692	0	correct_rejection	NA	0
12	Single	16	502	664	5	0	0	526082	691	0	correct_rejection	NA	0
12	Single	17	503	665	8	0	0	526790	692	0	correct_rejection	NA	0
12	Single	18	504	666	4	0	0	527499	692	0	correct_rejection	NA	0
12	Single	19	505	667	7	0	0	528207	692	0	correct_rejection	NA	0
12	Single	20	506	668	8	0	0	528916	692	0	correct_rejection	NA	0
12	Single	21	507	669	6	0	0	529625	691	0	correct_rejection	NA	0
12	Single	22	508	670	8	0	0	530333	692	0	correct_rejection	NA	0
12	Single	23	509	671	9	0	0	531042	691	0	correct_rejection	NA	0
12	Single	24	510	672	7	0	0	531750	692	0	correct_rejection	NA	0
12	Single	25	511	673	0	1	1	532459	692	1	hit	308	0
12	Single	26	512	674	5	0	0	533167	692	0	correct_rejection	NA	0
12	Single	27	513	675	6	0	0	533876	692	0	correct_rejection	NA	0
12	Single	28	514	676	9	0	0	534585	691	0	correct_rejection	NA	0
12	Single	29	515	677	6	0	0	535293	692	0	correct_rejection	NA	0
12	Single	30	516	678	6	0	0	536002	691	0	correct_rejection	NA	0
12	Single	31	517	679	5	0	0	536710	692	0	correct_rejection	NA	0
12	Single	32	518	680	4	0	0	537419	692	0	correct_rejection	NA	0
12	Single	33	519	681	4	0	0	538127	692	0	correct_rejection	NA	0
12	Single	34	520	682	0	1	1	538836	692	1	hit	323	0
12	Single	35	521	683	6	0	0	539545	691	0	correct_rejection	NA	0
12	Single	36	522	684	7	0	0	540253	692	0	correct_rejection	NA	0
12	Single	37	523	685	7	0	0	540962	691	0	correct_rejection	NA	0
12	Single	38	524	686	9	0	0	541670	692	0	correct_rejection	NA	0
12	Single	39	525	687	9	0	0	542379	691	0	correct_rejection	NA	0
12	Single	40	526	688	8	0	0	543087	692	0	correct_rejection	NA	0
12	Single	41	527	689	8	0	0	543796	692	0	correct_rejection	NA	0
12	Single	42	528	690	5	0	0	544504	692	0	correct_rejection	NA	0
12	Single	43	529	691	9	0	0	545213	692	0	correct_rejection	NA	0
12	Single	44	530	692	9	0	0	545922	691	0	correct_rejection	NA	0
12	Single	45	531	693	7	0	0	546630	692	0	correct_rejection	NA	0
12	Single	46	532	694	0	1	1	547339	691	1	hit	296	0
12	Single	47	533	695	9	0	0	548047	692	0	correct_rejection	NA	0
12	Single	48	534	696	5	0	0	548756	692	0	correct_rejection	NA	0
12	Single	49	535	697	5	0	0	549464	692	0	correct_rejection	NA	0
12	Single	50	536	698	0	1	1	550173	692	1	hit	452	0
12	Single	51	537	699	8	0	0	550882	691	0	correct_rejection	NA	0
12	Single	52	538	700	7	0	0	551590	692	0	correct_rejection	NA	0
12	Single	53	539	701	5	0	0	552299	691	0	correct_rejection	NA	0
12	Single	54	540	702	4	0	0	553007	692	0	correct_rejection	NA	0
12	Single	55	541	703	5	0	0	553716	692	0	correct_rejection	NA	0
12	Single	56	542	704	7	0	0	554424	692	0	correct_rejection	NA	0
12	Single	57	543	705	7	0	0	555133	692	0	correct_rejection	NA	0
12	Single	58	544	706	4	0	0	555842	691	0	correct_rejection	NA	0
12	Single	59	545	707	9	0	0	556550	692	0	correct_rejection	NA	0
12	Single	60	546	708	6	0	0	557259	691	0	correct_rejection	NA	0
12	Single	61	547	709	7	0	0	557967	692	0	correct_rejection	NA	0
12	Single	62	548	710	8	0	0	558676	692	0	correct_rejection	NA	0
12	Single	63	549	711	4	0	0	559384	692	0	correct_rejection	NA	0
12	Single	64	550	712	6	0	0	560093	692	0	correct_rejection	NA	0
12	Single	65	551	713	5	0	0	560802	691	0	correct_rejection	NA	0
12	Single	66	552	714	6	0	0	561510	692	0	correct_rejection	NA	0
12	Single	67	553	715	6	0	0	562219	691	0	correct_rejection	NA	0
12	Single	68	554	716	9	0	0	562927	692	0	correct_rejection	NA	0
12	Single	69	555	717	8	0	0	563636	692	0	correct_rejection	NA	0
12	Single	70	556	718	9	0	0	564344	692	0	correct_rejection	NA	0
12	Single	71	557	719	4	0	0	565053	692	0	correct_rejection	NA	0
12	Single	72	558	720	4	0	0	565762	691	0	correct_rejection	NA	0
12	Single	73	559	721	8	0	0	566470	692	0	correct_rejection	NA	0
12	Single	74	560	722	6	0	0	567179	691	0	correct_rejection	NA	0
12	Single	75	561	723	4	0	0	567887	692	0	correct_rejection	NA	0
12	Single	76	562	724	7	0	0	568596	691	0	correct_rejection	NA	0
12	Single	77	563	725	6	0	0	569304	692	0	correct_rejection	NA	0
12	Single	78	564	726	8	0	0	570013	692	0	correct_rejection	NA	0
12	Single	79	565	727	8	0	0	570721	692	0	correct_rejection	NA	0
12	Single	80	566	728	4	0	0	571430	692	0	correct_rejection	NA	0
12	Single	81	567	729	7	0	0	572139	691	0	correct_rejection	NA	0
12	Single	82	568	730	5	0	0	572847	692	0	correct_rejection	NA	0
12	Single	83	569	731	5	0	0	573556	691	0	correct_rejection	NA	0
12	Single	84	570	732	4	0	0	574264	692	0	correct_rejection	NA	0
12	Single	85	571	733	0	1	1	574973	692	1	hit	308	0
12	Single	86	572	734	8	0	0	575681	692	0	correct_rejection	NA	0
12	Single	87	573	735	9	0	0	576390	692	0	correct_rejection	NA	0
12	Single	88	574	736	0	1	1	577099	691	1	hit	466	0
12	Single	89	575	737	6	0	0	577807	692	0	correct_rejection	NA	0
12	Single	90	576	738	9	0	0	578516	691	0	correct_rejection	NA	0
12	Single	91	577	739	9	0	0	579224	692	0	correct_rejection	NA	0
12	Single	92	578	740	5	0	0	579933	692	0	correct_rejection	NA	0
12	Single	93	579	741	8	0	0	580641	692	0	correct_rejection	NA	0
12	Single	94	580	742	5	0	0	581350	692	0	correct_rejection	NA	0
12	Single	95	581	743	6	0	0	582059	691	0	correct_rejection	NA	0
12	Single	96	582	744	7	0	0	582767	692	0	correct_rejection	NA	0
12	Single	97	583	745	9	0	0	583476	691	0	correct_rejection	NA	0
12	Single	98	584	746	4	0	0	584184	692	0	correct_rejection	NA	0
12	Single	99	585	747	6	0	0	584893	692	0	correct_rejection	NA	0
12	Single	100	586	748	8	0	0	585601	692	1	false_alarm	362	0
12	Single	101	587	749	0	1	1	586310	692	1	hit	323	0
12	Single	102	588	750	4	0	0	587019	691	0	correct_rejection	NA	0
12	Single	103	589	751	5	0	0	587727	692	0	correct_rejection	NA	0
12	Single	104	590	752	9	0	0	588436	691	0	correct_rejection	NA	0
12	Single	105	591	753	8	0	0	589144	692	0	correct_rejection	NA	0
12	Single	106	592	754	7	0	0	589853	692	0	correct_rejection	NA	0
12	Single	107	593	755	0	1	1	590561	692	1	hit	340	0
12	Single	108	594	756	6	0	0	591270	692	0	correct_rejection	NA	0
12	Single	109	595	757	6	0	0	591979	691	0	correct_rejection	NA	0
12	Single	110	596	758	4	0	0	592687	692	0	correct_rejection	NA	0
12	Single	111	597	759	0	1	1	593396	691	1	hit	344	0
12	Single	112	598	760	4	0	0	594104	692	0	correct_rejection	NA	0
12	Single	113	599	761	9	0	0	594813	691	0	correct_rejection	NA	0
12	Single	114	600	762	7	0	0	595521	692	0	correct_rejection	NA	0
12	Single	115	601	763	7	0	0	596230	692	0	correct_rejection	NA	0
12	Single	116	602	764	0	1	1	596938	692	1	hit	365	0
12	Single	117	603	765	8	0	0	597647	692	0	correct_rejection	NA	0
12	Single	118	604	766	8	0	0	598356	691	0	correct_rejection	NA	0
12	Single	119	605	767	6	0	0	599064	692	0	correct_rejection	NA	0
12	Single	120	606	768	5	0	0	599773	691	0	correct_rejection	NA	0
12	Single	121	607	769	7	0	0	600481	692	0	correct_rejection	NA	0
12	Single	122	608	770	0	1	1	601190	692	1	hit	430	0
12	Single	123	609	771	7	0	0	601898	692	0	correct_rejection	NA	0
12	Single	124	610	772	8	0	0	602607	692	0	correct_rejection	NA	0
12	Single	125	611	773	5	0	0	603316	691	0	correct_rejection	NA	0
12	Single	126	612	774	0	1	1	604024	692	1	hit	338	0
12	Single	127	613	775	7	0	0	604733	691	0	correct_rejection	NA	0
12	Single	128	614	776	6	0	0	605441	692	0	correct_rejection	NA	0
12	Single	129	615	777	4	0	0	606150	692	0	correct_rejection	NA	0
12	Single	130	616	778	5	0	0	606858	692	0	correct_rejection	NA	0
12	Single	131	617	779	5	0	0	607567	692	0	correct_rejection	NA	0
12	Single	132	618	780	6	0	0	608276	691	0	correct_rejection	NA	0
12	Single	133	619	781	8	0	0	608984	692	0	correct_rejection	NA	0
12	Single	134	620	782	0	1	1	609693	691	1	hit	310	0
12	Single	135	621	783	6	0	0	610401	692	0	correct_rejection	NA	0
12	Single	136	622	784	9	0	0	611110	692	0	correct_rejection	NA	0
12	Single	137	623	785	4	0	0	611818	692	0	correct_rejection	NA	0
12	Single	138	624	786	8	0	0	612527	692	0	correct_rejection	NA	0
12	Single	139	625	787	7	0	0	613236	691	0	correct_rejection	NA	0
12	Single	140	626	788	0	1	1	613944	692	1	hit	362	0
12	Single	141	627	789	4	0	0	614653	691	0	correct_rejection	NA	0
12	Single	142	628	790	6	0	0	615361	692	0	correct_rejection	NA	0
12	Single	143	629	791	6	0	0	616070	692	0	correct_rejection	NA	0
12	Single	144	630	792	7	0	0	616778	692	0	correct_rejection	NA	0
12	Single	145	631	793	5	0	0	617487	692	0	correct_rejection	NA	0
12	Single	146	632	794	8	0	0	618196	691	0	correct_rejection	NA	0
12	Single	147	633	795	9	0	0	618904	692	0	correct_rejection	NA	0
12	Single	148	634	796	8	0	0	619613	691	0	correct_rejection	NA	0
12	Single	149	635	797	8	0	0	620321	692	0	correct_rejection	NA	0
12	Single	150	636	798	4	0	0	621030	691	0	correct_rejection	NA	0
12	Single	151	637	799	9	0	0	621738	692	0	correct_rejection	NA	0
12	Single	152	638	800	5	0	0	622447	692	0	correct_rejection	NA	0
12	Single	153	639	801	4	0	0	623155	692	0	correct_rejection	NA	0
12	Single	154	640	802	4	0	0	623864	692	0	correct_rejection	NA	0
12	Single	155	641	803	7	0	0	624573	691	0	correct_rejection	NA	0
12	Single	156	642	804	9	0	0	625281	692	0	correct_rejection	NA	0
12	Single	157	643	805	9	0	0	625990	691	0	correct_rejection	NA	0
12	Single	158	644	806	6	0	0	626698	692	0	correct_rejection	NA	0
12	Single	159	645	807	5	0	0	627407	692	0	correct_rejection	NA	0
12	Single	160	646	808	0	1	1	628115	692	1	hit	324	0
12	Single	161	647	809	9	0	0	628824	692	0	correct_rejection	NA	0
12	Single	162	648	810	7	0	0	629533	691	0	correct_rejection	NA	0
trigger nr 621 at 631264
trigger nr 624 at 705573
12	Nonet	1	1	811	9	0	0	712043	692	0	correct_rejection	NA	6428
12	Nonet	2	2	812	8	0	0	712752	691	0	correct_rejection	NA	0
12	Nonet	3	3	813	7	0	0	713460	692	0	correct_rejection	NA	0
12	Nonet	4	4	814	9	0	0	714169	692	0	correct_rejection	NA	0
12	Nonet	5	5	815	8	0	0	714877	692	0	correct_rejection	NA	0
12	Nonet	6	6	816	7	0	0	715586	692	0	correct_rejection	NA	0
12	Nonet	7	7	817	9	0	0	716295	691	0	correct_rejection	NA	0
12	Nonet	8	8	818	8	0	0	717003	692	0	correct_rejection	NA	0
12	Nonet	9	9	819	7	0	0	717712	691	0	correct_rejection	NA	0
12	Nonet	10	10	820	6	0	0	718420	692	0	correct_rejection	NA	0
12	Nonet	11	11	821	5	0	0	719129	692	0	correct_rejection	NA	0
12	Nonet	12	12	822	4	0	0	719837	692	0	correct_rejection	NA	0
12	Nonet	13	13	823	6	0	0	720546	692	0	correct_rejection	NA	0
12	Nonet	14	14	824	5	0	0	721255	691	0	correct_rejection	NA	0
12	Nonet	15	15	825	4	0	0	721963	692	0	correct_rejection	NA	0
12	Nonet	16	16	826	6	0	0	722672	691	0	correct_rejection	NA	0
12	Nonet	17	17	827	0	1	1	723380	692	1	hit	346	0
12	Nonet	18	18	828	5	0	0	724089	692	0	correct_rejection	NA	0
12	Nonet	19	19	829	4	0	0	724797	692	0	correct_rejection	NA	0
12	Nonet	20	20	830	6	0	0	725506	692	0	correct_rejection	NA	0
12	Nonet	21	21	831	5	0	0	726215	691	0	correct_rejection	NA	0
12	Nonet	22	22	832	0	1	1	726923	692	1	hit	331	0
12	Nonet	23	23	833	4	0	0	727632	691	0	correct_rejection	NA	0
12	Nonet	24	24	834	6	0	0	728340	692	0	correct_rejection	NA	0
12	Nonet	25	25	835	5	0	0	729049	692	0	correct_rejection	NA	0
12	Nonet	26	26	836	4	0	0	729757	692	0	correct_rejection	NA	0
12	Nonet	27	27	837	6	0	0	730466	692	0	correct_rejection	NA	0
12	Nonet	28	28	838	5	0	0	731175	691	0	correct_rejection	NA	0
12	Nonet	29	29	839	4	0	0	731883	692	0	correct_rejection	NA	0
12	Nonet	30	30	840	9	0	0	732592	691	0	correct_rejection	NA	0
12	Nonet	31	31	841	8	0	0	733300	692	0	correct_rejection	NA	0
12	Nonet	32	32	842	0	1	1	734009	692	1	hit	293	0
12	Nonet	33	33	843	7	0	0	734717	692	0	correct_rejection	NA	0
12	Nonet	34	34	844	9	0	0	735426	692	0	correct_rejection	NA	0
12	Nonet	35	35	845	8	0	0	736135	691	0	correct_rejection	NA	0
12	Nonet	36	36	846	7	0	0	736843	692	0	correct_rejection	NA	0
12	Nonet	37	37	847	9	0	0	737552	691	0	correct_rejection	NA	0
12	Nonet	38	38	848	8	0	0	738260	692	0	correct_rejection	NA	0
12	Nonet	39	39	849	7	0	0	738969	691	0	correct_rejection	NA	0
12	Nonet	40	40	850	4	0	0	739677	692	0	correct_rejection	NA	0
12	Nonet	41	41	851	5	0	0	740386	692	0	correct_rejection	NA	0
12	Nonet	42	42	852	6	0	0	741094	692	0	correct_rejection	NA	0
12	Nonet	43	43	853	0	1	2	741803	692	1	hit	314	0
12	Nonet	44	44	854	4	0	0	742512	691	0	correct_rejection	NA	0
12	Nonet	45	45	855	5	0	0	743220	692	0	correct_rejection	NA	0
12	Nonet	46	46	856	6	0	0	743929	691	0	correct_rejection	NA	0
12	Nonet	47	47	857	0	1	2	744637	692	1	hit	423	0
12	Nonet	48	48	858	4	0	0	745346	692	0	correct_rejection	NA	0
12	Nonet	49	49	859	5	0	0	746054	692	0	correct_rejection	NA	0
12	Nonet	50	50	860	6	0	0	746763	692	0	correct_rejection	NA	0
12	Nonet	51	51	861	4	0	0	747472	691	0	correct_rejection	NA	0
12	Nonet	52	52	862	5	0	0	748180	692	0	correct_rejection	NA	0
12	Nonet	53	53	863	0	1	1	748889	691	1	hit	370	0
12	Nonet	54	54	864	6	0	0	749597	692	0	correct_rejection	NA	0
12	Nonet	55	55	865	4	0	0	750306	692	0	correct_rejection	NA	0
12	Nonet	56	56	866	5	0	0	751014	692	0	correct_rejection	NA	0
12	Nonet	57	57	867	6	0	0	751723	692	0	correct_rejection	NA	0
12	Nonet	58	58	868	4	0	0	752432	691	0	correct_rejection	NA	0
12	Nonet	59	59	869	5	0	0	753140	692	0	correct_rejection	NA	0
12	Nonet	60	60	870	6	0	0	753849	691	0	correct_rejection	NA	0
12	Nonet	61	61	871	7	0	0	754557	692	0	correct_rejection	NA	0
12	Nonet	62	62	872	8	0	0	755266	692	0	correct_rejection	NA	0
12	Nonet	63	63	873	9	0	0	755974	692	0	correct_rejection	NA	0
12	Nonet	64	64	874	7	0	0	756683	692	0	correct_rejection	NA	0
12	Nonet	65	65	875	8	0	0	757392	691	0	correct_rejection	NA	0
12	Nonet	66	66	876	0	1	1	758100	692	1	hit	318	0
12	Nonet	67	67	877	9	0	0	758809	691	0	correct_rejection	NA	0
12	Nonet	68	68	878	7	0	0	759517	692	0	correct_rejection	NA	0
12	Nonet	69	69	879	8	0	0	760226	692	0	correct_rejection	NA	0
12	Nonet	70	70	880	9	0	0	760934	692	0	correct_rejection	NA	0
12	Nonet	71	71	881	4	0	0	761643	692	0	correct_rejection	NA	0
12	Nonet	72	72	882	5	0	0	762352	691	0	correct_rejection	NA	0
12	Nonet	73	73	883	6	0	0	763060	692	0	correct_rejection	NA	0
12	Nonet	74	74	884	4	0	0	763769	691	0	correct_rejection	NA	0
12	Nonet	75	75	885	5	0	0	764477	692	0	correct_rejection	NA	0
12	Nonet	76	76	886	6	0	0	765186	692	0	correct_rejection	NA	0
12	Nonet	77	77	887	4	0	0	765894	692	0	correct_rejection	NA	0
12	Nonet	78	78	888	5	0	0	766603	692	0	correct_rejection	NA	0
12	Nonet	79	79	889	6	0	0	767311	692	0	correct_rejection	NA	0
12	Nonet	80	80	890	9	0	0	768020	692	0	correct_rejection	NA	0
12	Nonet	81	81	891	8	0	0	768729	691	0	correct_rejection	NA	0
12	Nonet	82	82	892	0	1	1	769437	692	1	hit	375	0
12	Nonet	83	83	893	7	0	0	770146	691	0	correct_rejection	NA	0
12	Nonet	84	84	894	9	0	0	770854	692	0	correct_rejection	NA	0
12	Nonet	85	85	895	8	0	0	771563	692	0	correct_rejection	NA	0
12	Nonet	86	86	896	0	1	1	772271	692	1	hit	405	0
12	Nonet	87	87	897	7	0	0	772980	692	0	correct_rejection	NA	0
12	Nonet	88	88	898	9	0	0	773689	691	0	correct_rejection	NA	0
12	Nonet	89	89	899	8	0	0	774397	692	0	correct_rejection	NA	0
12	Nonet	90	90	900	7	0	0	775106	691	0	correct_rejection	NA	0
12	Nonet	91	91	901	0	1	3	775814	692	1	hit	314	0
12	Nonet	92	92	902	9	0	0	776523	692	0	correct_rejection	NA	0
12	Nonet	93	93	903	8	0	0	777231	692	0	correct_rejection	NA	0
12	Nonet	94	94	904	7	0	0	777940	692	0	correct_rejection	NA	0
12	Nonet	95	95	905	9	0	0	778649	691	0	correct_rejection	NA	0
12	Nonet	96	96	906	8	0	0	779357	692	0	correct_rejection	NA	0
12	Nonet	97	97	907	7	0	0	780066	691	0	correct_rejection	NA	0
12	Nonet	98	98	908	9	0	0	780774	692	0	correct_rejection	NA	0
12	Nonet	99	99	909	8	0	0	781483	692	0	correct_rejection	NA	0
12	Nonet	100	100	910	7	0	0	782191	692	0	correct_rejection	NA	0
12	Nonet	101	101	911	7	0	0	782900	692	0	correct_rejection	NA	0
12	Nonet	102	102	912	0	1	1	783609	691	1	hit	356	0
12	Nonet	103	103	913	8	0	0	784317	692	0	correct_rejection	NA	0
12	Nonet	104	104	914	9	0	0	785026	691	0	correct_rejection	NA	0
12	Nonet	105	105	915	7	0	0	785734	692	0	correct_rejection	NA	0
12	Nonet	106	106	916	8	0	0	786443	692	0	correct_rejection	NA	0
12	Nonet	107	107	917	9	0	0	787151	692	0	correct_rejection	NA	0
12	Nonet	108	108	918	7	0	0	787860	692	0	correct_rejection	NA	0
12	Nonet	109	109	919	8	0	0	788569	691	0	correct_rejection	NA	0
12	Nonet	110	110	920	9	0	0	789277	692	0	correct_rejection	NA	0
12	Nonet	111	111	921	6	0	0	789986	691	0	correct_rejection	NA	0
12	Nonet	112	112	922	5	0	0	790694	692	0	correct_rejection	NA	0
12	Nonet	113	113	923	0	1	1	791403	691	1	hit	342	0
12	Nonet	114	114	924	4	0	0	792111	692	0	correct_rejection	NA	0
12	Nonet	115	115	925	6	0	0	792820	692	0	correct_rejection	NA	0
12	Nonet	116	116	926	5	0	0	793528	692	0	correct_rejection	NA	0
12	Nonet	117	117	927	4	0	0	794237	692	0	correct_rejection	NA	0
12	Nonet	118	118	928	0	1	2	794946	691	1	hit	361	0
12	Nonet	119	119	929	6	0	0	795654	692	0	correct_rejection	NA	0
12	Nonet	120	120	930	5	0	0	796363	691	0	correct_rejection	NA	0
12	Nonet	121	121	931	4	0	0	797071	692	0	correct_rejection	NA	0
12	Nonet	122	122	932	4	0	0	797780	692	0	correct_rejection	NA	0
12	Nonet	123	123	933	5	0	0	798488	692	0	correct_rejection	NA	0
12	Nonet	124	124	934	6	0	0	799197	692	0	correct_rejection	NA	0
12	Nonet	125	125	935	4	0	0	799906	691	0	correct_rejection	NA	0
12	Nonet	126	126	936	5	0	0	800614	692	0	correct_rejection	NA	0
12	Nonet	127	127	937	0	1	1	801323	691	1	hit	346	0
12	Nonet	128	128	938	6	0	0	802031	692	0	correct_rejection	NA	0
12	Nonet	129	129	939	4	0	0	802740	692	0	correct_rejection	NA	0
12	Nonet	130	130	940	0	1	1	803448	692	1	hit	377	0
12	Nonet	131	131	941	5	0	0	804157	692	0	correct_rejection	NA	0
12	Nonet	132	132	942	6	0	0	804866	691	0	correct_rejection	NA	0
12	Nonet	133	133	943	6	0	0	805574	692	0	correct_rejection	NA	0
12	Nonet	134	134	944	5	0	0	806283	691	0	correct_rejection	NA	0
12	Nonet	135	135	945	4	0	0	806991	692	0	correct_rejection	NA	0
12	Nonet	136	136	946	6	0	0	807700	692	0	correct_rejection	NA	0
12	Nonet	137	137	947	5	0	0	808408	692	0	correct_rejection	NA	0
12	Nonet	138	138	948	4	0	0	809117	692	0	correct_rejection	NA	0
12	Nonet	139	139	949	6	0	0	809826	691	0	correct_rejection	NA	0
12	Nonet	140	140	950	5	0	0	810534	692	0	correct_rejection	NA	0
12	Nonet	141	141	951	4	0	0	811243	691	0	correct_rejection	NA	0
12	Nonet	142	142	952	7	0	0	811951	692	0	correct_rejection	NA	0
12	Nonet	143	143	953	8	0	0	812660	692	0	correct_rejection	NA	0
12	Nonet	144	144	954	0	1	1	813368	692	1	hit	343	0
12	Nonet	145	145	955	9	0	0	814077	692	0	correct_rejection	NA	0
12	Nonet	146	146	956	7	0	0	814786	691	0	correct_rejection	NA	0
12	Nonet	147	147	957	8	0	0	815494	692	0	correct_rejection	NA	0
12	Nonet	148	148	958	9	0	0	816203	691	0	correct_rejection	NA	0
12	Nonet	149	149	959	0	1	2	816911	692	1	hit	372	0
12	Nonet	150	150	960	7	0	0	817620	691	0	correct_rejection	NA	0
12	Nonet	151	151	961	8	0	0	818328	692	0	correct_rejection	NA	0
12	Nonet	152	152	962	9	0	0	819037	692	0	correct_rejection	NA	0
12	Nonet	153	153	963	7	0	0	819745	692	0	correct_rejection	NA	0
12	Nonet	154	154	964	8	0	0	820454	692	0	correct_rejection	NA	0
12	Nonet	155	155	965	9	0	0	821163	691	0	correct_rejection	NA	0
12	Nonet	156	156	966	7	0	0	821871	692	0	correct_rejection	NA	0
12	Nonet	157	157	967	8	0	0	822580	691	0	correct_rejection	NA	0
12	Nonet	158	158	968	9	0	0	823288	692	0	correct_rejection	NA	0
12	Nonet	159	159	969	0	1	2	823997	692	1	hit	329	0
12	Nonet	160	160	970	7	0	0	824705	692	0	correct_rejection	NA	0
12	Nonet	161	161	971	8	0	0	825414	692	0	correct_rejection	NA	0
12	Nonet	162	162	972	9	0	0	826123	691	0	correct_rejection	NA	0
12	Triplet	1	487	973	6	0	0	835826	692	0	correct_rejection	NA	7219
12	Triplet	2	488	974	5	0	0	836534	692	0	correct_rejection	NA	0
12	Triplet	3	489	975	4	0	0	837243	692	0	correct_rejection	NA	0
12	Triplet	4	490	976	4	0	0	837952	691	0	correct_rejection	NA	0
12	Triplet	5	491	977	5	0	0	838660	692	0	correct_rejection	NA	0
12	Triplet	6	492	978	6	0	0	839369	691	0	correct_rejection	NA	0
12	Triplet	7	493	979	9	0	0	840077	692	0	correct_rejection	NA	0
12	Triplet	8	494	980	8	0	0	840786	691	0	correct_rejection	NA	0
12	Triplet	9	495	981	7	0	0	841494	692	0	correct_rejection	NA	0
12	Triplet	10	496	982	0	1	2	842203	692	1	hit	302	0
12	Triplet	11	497	983	4	0	0	842911	692	0	correct_rejection	NA	0
12	Triplet	12	498	984	5	0	0	843620	692	0	correct_rejection	NA	0
12	Triplet	13	499	985	0	1	1	844329	691	1	hit	325	0
12	Triplet	14	500	986	6	0	0	845037	692	0	correct_rejection	NA	0
12	Triplet	15	501	987	6	0	0	845746	691	0	correct_rejection	NA	0
12	Triplet	16	502	988	5	0	0	846454	692	0	correct_rejection	NA	0
12	Triplet	17	503	989	0	1	1	847163	692	1	hit	357	0
12	Triplet	18	504	990	4	0	0	847871	692	0	correct_rejection	NA	0
12	Triplet	19	505	991	6	0	0	848580	692	0	correct_rejection	NA	0
12	Triplet	20	506	992	5	0	0	849289	691	0	correct_rejection	NA	0
12	Triplet	21	507	993	4	0	0	849997	692	0	correct_rejection	NA	0
12	Triplet	22	508	994	7	0	0	850706	691	0	correct_rejection	NA	0
12	Triplet	23	509	995	0	1	1	851414	692	1	hit	281	0
12	Triplet	24	510	996	8	0	0	852123	692	0	correct_rejection	NA	0
12	Triplet	25	511	997	9	0	0	852831	692	0	correct_rejection	NA	0
12	Triplet	26	512	998	6	0	0	853540	692	0	correct_rejection	NA	0
12	Triplet	27	513	999	0	1	1	854249	691	1	hit	307	0
12	Triplet	28	514	1000	5	0	0	854957	692	0	correct_rejection	NA	0
12	Triplet	29	515	1001	4	0	0	855666	691	0	correct_rejection	NA	0
12	Triplet	30	516	1002	9	0	0	856374	692	0	correct_rejection	NA	0
12	Triplet	31	517	1003	0	1	1	857083	692	1	hit	315	0
12	Triplet	32	518	1004	8	0	0	857791	692	0	correct_rejection	NA	0
12	Triplet	33	519	1005	7	0	0	858500	692	0	correct_rejection	NA	0
12	Triplet	34	520	1006	9	0	0	859209	691	0	correct_rejection	NA	0
12	Triplet	35	521	1007	8	0	0	859917	692	0	correct_rejection	NA	0
12	Triplet	36	522	1008	0	1	1	860626	691	1	hit	297	0
12	Triplet	37	523	1009	7	0	0	861334	692	0	correct_rejection	NA	0
12	Triplet	38	524	1010	7	0	0	862043	692	0	correct_rejection	NA	0
12	Triplet	39	525	1011	8	0	0	862751	692	0	correct_rejection	NA	0
12	Triplet	40	526	1012	9	0	0	863460	692	0	correct_rejection	NA	0
12	Triplet	41	527	1013	0	1	2	864169	691	1	hit	289	0
12	Triplet	42	528	1014	4	0	0	864877	692	0	correct_rejection	NA	0
12	Triplet	43	529	1015	5	0	0	865586	691	0	correct_rejection	NA	0
12	Triplet	44	530	1016	6	0	0	866294	692	0	correct_rejection	NA	0
12	Triplet	45	531	1017	4	0	0	867003	691	0	correct_rejection	NA	0
12	Triplet	46	532	1018	5	0	0	867711	692	0	correct_rejection	NA	0
12	Triplet	47	533	1019	6	0	0	868420	692	0	correct_rejection	NA	0
12	Triplet	48	534	1020	7	0	0	869128	692	0	correct_rejection	NA	0
12	Triplet	49	535	1021	8	0	0	869837	692	0	correct_rejection	NA	0
12	Triplet	50	536	1022	9	0	0	870546	691	0	correct_rejection	NA	0
12	Triplet	51	537	1023	7	0	0	871254	692	0	correct_rejection	NA	0
12	Triplet	52	538	1024	8	0	0	871963	691	0	correct_rejection	NA	0
12	Triplet	53	539	1025	0	1	1	872671	692	1	hit	363	0
12	Triplet	54	540	1026	9	0	0	873380	692	0	correct_rejection	NA	0
12	Triplet	55	541	1027	9	0	0	874088	692	0	correct_rejection	NA	0
12	Triplet	56	542	1028	8	0	0	874797	692	0	correct_rejection	NA	0
12	Triplet	57	543	1029	7	0	0	875506	691	0	correct_rejection	NA	0
12	Triplet	58	544	1030	4	0	0	876214	692	0	correct_rejection	NA	0
12	Triplet	59	545	1031	5	0	0	876923	691	0	correct_rejection	NA	0
12	Triplet	60	546	1032	0	1	1	877631	692	1	hit	294	0
12	Triplet	61	547	1033	6	0	0	878340	692	0	correct_rejection	NA	0
12	Triplet	62	548	1034	7	0	0	879048	692	0	correct_rejection	NA	0
12	Triplet	63	549	1035	8	0	0	879757	692	0	correct_rejection	NA	0
12	Triplet	64	550	1036	9	0	0	880466	691	0	correct_rejection	NA	0
12	Triplet	65	551	1037	6	0	0	881174	692	0	correct_rejection	NA	0
12	Triplet	66	552	1038	0	1	1	881883	691	1	hit	335	0
12	Triplet	67	553	1039	5	0	0	882591	692	0	correct_rejection	NA	0
12	Triplet	68	554	1040	4	0	0	883300	692	0	correct_rejection	NA	0
12	Triplet	69	555	1041	6	0	0	884008	692	0	correct_rejection	NA	0
12	Triplet	70	556	1042	5	0	0	884717	692	0	correct_rejection	NA	0
12	Triplet	71	557	1043	4	0	0	885426	691	0	correct_rejection	NA	0
12	Triplet	72	558	1044	4	0	0	886134	692	0	correct_rejection	NA	0
12	Triplet	73	559	1045	5	0	0	886843	691	0	correct_rejection	NA	0
12	Triplet	74	560	1046	6	0	0	887551	692	0	correct_rejection	NA	0
12	Triplet	75	561	1047	4	0	0	888260	692	0	correct_rejection	NA	0
12	Triplet	76	562	1048	5	0	0	888968	692	0	correct_rejection	NA	0
12	Triplet	77	563	1049	6	0	0	889677	692	0	correct_rejection	NA	0
12	Triplet	78	564	1050	0	1	2	890386	691	1	hit	314	0
12	Triplet	79	565	1051	6	0	0	891094	692	0	correct_rejection	NA	0
12	Triplet	80	566	1052	5	0	0	891803	691	0	correct_rejection	NA	0
12	Triplet	81	567	1053	4	0	0	892511	692	0	correct_rejection	NA	0
12	Triplet	82	568	1054	7	0	0	893220	691	0	correct_rejection	NA	0
12	Triplet	83	569	1055	0	1	1	893928	692	1	hit	320	0
12	Triplet	84	570	1056	8	0	0	894637	692	0	correct_rejection	NA	0
12	Triplet	85	571	1057	9	0	0	895345	692	0	correct_rejection	NA	0
12	Triplet	86	572	1058	0	1	2	896054	692	1	hit	284	0
12	Triplet	87	573	1059	9	0	0	896763	691	0	correct_rejection	NA	0
12	Triplet	88	574	1060	8	0	0	897471	692	0	correct_rejection	NA	0
12	Triplet	89	575	1061	0	1	1	898180	691	1	hit	348	0
12	Triplet	90	576	1062	7	0	0	898888	692	0	correct_rejection	NA	0
12	Triplet	91	577	1063	4	0	0	899597	692	0	correct_rejection	NA	0
12	Triplet	92	578	1064	5	0	0	900305	692	0	correct_rejection	NA	0
12	Triplet	93	579	1065	6	0	0	901014	692	0	correct_rejection	NA	0
12	Triplet	94	580	1066	9	0	0	901723	691	0	correct_rejection	NA	0
12	Triplet	95	581	1067	8	0	0	902431	692	0	correct_rejection	NA	0
12	Triplet	96	582	1068	7	0	0	903140	691	0	correct_rejection	NA	0
12	Triplet	97	583	1069	9	0	0	903848	692	0	correct_rejection	NA	0
12	Triplet	98	584	1070	8	0	0	904557	692	0	correct_rejection	NA	0
12	Triplet	99	585	1071	0	1	1	905265	692	1	hit	325	0
12	Triplet	100	586	1072	7	0	0	905974	692	0	correct_rejection	NA	0
12	Triplet	101	587	1073	6	0	0	906683	691	0	correct_rejection	NA	0
12	Triplet	102	588	1074	5	0	0	907391	692	0	correct_rejection	NA	0
12	Triplet	103	589	1075	4	0	0	908100	691	0	correct_rejection	NA	0
12	Triplet	104	590	1076	9	0	0	908808	692	0	correct_rejection	NA	0
12	Triplet	105	591	1077	8	0	0	909517	692	0	correct_rejection	NA	0
12	Triplet	106	592	1078	7	0	0	910225	692	0	correct_rejection	NA	0
12	Triplet	107	593	1079	7	0	0	910934	692	0	correct_rejection	NA	0
12	Triplet	108	594	1080	8	0	0	911643	691	0	correct_rejection	NA	0
12	Triplet	109	595	1081	9	0	0	912351	692	0	correct_rejection	NA	0
12	Triplet	110	596	1082	7	0	0	913060	691	0	correct_rejection	NA	0
12	Triplet	111	597	1083	8	0	0	913768	692	0	correct_rejection	NA	0
12	Triplet	112	598	1084	9	0	0	914477	692	0	correct_rejection	NA	0
12	Triplet	113	599	1085	6	0	0	915185	692	0	correct_rejection	NA	0
12	Triplet	114	600	1086	5	0	0	915894	692	0	correct_rejection	NA	0
12	Triplet	115	601	1087	4	0	0	916603	691	0	correct_rejection	NA	0
12	Triplet	116	602	1088	0	1	2	917311	692	1	hit	392	0
12	Triplet	117	603	1089	9	0	0	918020	691	0	correct_rejection	NA	0
12	Triplet	118	604	1090	8	0	0	918728	692	0	correct_rejection	NA	0
12	Triplet	119	605	1091	7	0	0	919437	691	0	correct_rejection	NA	0
12	Triplet	120	606	1092	6	0	0	920145	692	0	correct_rejection	NA	0
12	Triplet	121	607	1093	5	0	0	920854	692	0	correct_rejection	NA	0
12	Triplet	122	608	1094	4	0	0	921562	692	0	correct_rejection	NA	0
12	Triplet	123	609	1095	7	0	0	922271	692	0	correct_rejection	NA	0
12	Triplet	124	610	1096	8	0	0	922980	691	0	correct_rejection	NA	0
12	Triplet	125	611	1097	9	0	0	923688	692	0	correct_rejection	NA	0
12	Triplet	126	612	1098	7	0	0	924397	691	0	correct_rejection	NA	0
12	Triplet	127	613	1099	8	0	0	925105	692	0	correct_rejection	NA	0
12	Triplet	128	614	1100	9	0	0	925814	692	0	correct_rejection	NA	0
12	Triplet	129	615	1101	4	0	0	926522	692	0	correct_rejection	NA	0
12	Triplet	130	616	1102	5	0	0	927231	692	0	correct_rejection	NA	0
12	Triplet	131	617	1103	6	0	0	927940	691	0	correct_rejection	NA	0
12	Triplet	132	618	1104	6	0	0	928648	692	0	correct_rejection	NA	0
12	Triplet	133	619	1105	5	0	0	929357	691	0	correct_rejection	NA	0
12	Triplet	134	620	1106	4	0	0	930065	692	0	correct_rejection	NA	0
12	Triplet	135	621	1107	4	0	0	930774	692	0	correct_rejection	NA	0
12	Triplet	136	622	1108	5	0	0	931482	692	0	correct_rejection	NA	0
12	Triplet	137	623	1109	6	0	0	932191	692	0	correct_rejection	NA	0
12	Triplet	138	624	1110	7	0	0	932900	691	0	correct_rejection	NA	0
12	Triplet	139	625	1111	8	0	0	933608	692	0	correct_rejection	NA	0
12	Triplet	140	626	1112	9	0	0	934317	691	0	correct_rejection	NA	0
12	Triplet	141	627	1113	9	0	0	935025	692	0	correct_rejection	NA	0
12	Triplet	142	628	1114	8	0	0	935734	692	0	correct_rejection	NA	0
12	Triplet	143	629	1115	7	0	0	936442	692	0	correct_rejection	NA	0
12	Triplet	144	630	1116	0	1	2	937151	692	1	hit	421	0
12	Triplet	145	631	1117	9	0	0	937860	691	0	correct_rejection	NA	0
12	Triplet	146	632	1118	8	0	0	938568	692	0	correct_rejection	NA	0
12	Triplet	147	633	1119	7	0	0	939277	691	0	correct_rejection	NA	0
12	Triplet	148	634	1120	4	0	0	939985	692	0	correct_rejection	NA	0
12	Triplet	149	635	1121	5	0	0	940694	692	0	correct_rejection	NA	0
12	Triplet	150	636	1122	6	0	0	941402	692	0	correct_rejection	NA	0
12	Triplet	151	637	1123	4	0	0	942111	692	0	correct_rejection	NA	0
12	Triplet	152	638	1124	5	0	0	942820	691	0	correct_rejection	NA	0
12	Triplet	153	639	1125	6	0	0	943528	692	0	correct_rejection	NA	0
12	Triplet	154	640	1126	9	0	0	944237	691	0	correct_rejection	NA	0
12	Triplet	155	641	1127	8	0	0	944945	692	0	correct_rejection	NA	0
12	Triplet	156	642	1128	7	0	0	945654	691	0	correct_rejection	NA	0
12	Triplet	157	643	1129	7	0	0	946362	692	0	correct_rejection	NA	0
12	Triplet	158	644	1130	8	0	0	947071	692	0	correct_rejection	NA	0
12	Triplet	159	645	1131	9	0	0	947779	692	0	correct_rejection	NA	0
12	Triplet	160	646	1132	6	0	0	948488	692	0	correct_rejection	NA	0
12	Triplet	161	647	1133	5	0	0	949197	691	0	correct_rejection	NA	0
12	Triplet	162	648	1134	4	0	0	949905	692	0	correct_rejection	NA	0
12	Single	1	325	1135	9	0	0	960217	692	0	correct_rejection	NA	7609
12	Single	2	326	1136	5	0	0	960926	691	0	correct_rejection	NA	0
12	Single	3	327	1137	7	0	0	961634	692	0	correct_rejection	NA	0
12	Single	4	328	1138	6	0	0	962343	691	0	correct_rejection	NA	0
12	Single	5	329	1139	0	1	1	963051	692	1	hit	318	0
12	Single	6	330	1140	9	0	0	963760	691	0	correct_rejection	NA	0
12	Single	7	331	1141	4	0	0	964468	692	0	correct_rejection	NA	0
12	Single	8	332	1142	4	0	0	965177	692	0	correct_rejection	NA	0
12	Single	9	333	1143	7	0	0	965885	692	0	correct_rejection	NA	0
12	Single	10	334	1144	8	0	0	966594	692	0	correct_rejection	NA	0
12	Single	11	335	1145	5	0	0	967303	691	0	correct_rejection	NA	0
12	Single	12	336	1146	9	0	0	968011	692	0	correct_rejection	NA	0
12	Single	13	337	1147	0	1	1	968720	691	1	hit	378	0
12	Single	14	338	1148	8	0	0	969428	692	0	correct_rejection	NA	0
12	Single	15	339	1149	6	0	0	970137	692	0	correct_rejection	NA	0
12	Single	16	340	1150	7	0	0	970845	692	0	correct_rejection	NA	0
12	Single	17	341	1151	4	0	0	971554	692	0	correct_rejection	NA	0
12	Single	18	342	1152	0	1	1	972263	691	1	hit	317	0
12	Single	19	343	1153	5	0	0	972971	692	0	correct_rejection	NA	0
12	Single	20	344	1154	8	0	0	973680	691	0	correct_rejection	NA	0
12	Single	21	345	1155	8	0	0	974388	692	0	correct_rejection	NA	0
12	Single	22	346	1156	9	0	0	975097	692	0	correct_rejection	NA	0
12	Single	23	347	1157	7	0	0	975805	692	0	correct_rejection	NA	0
12	Single	24	348	1158	5	0	0	976514	692	0	correct_rejection	NA	0
12	Single	25	349	1159	5	0	0	977223	691	0	correct_rejection	NA	0
12	Single	26	350	1160	4	0	0	977931	692	0	correct_rejection	NA	0
12	Single	27	351	1161	9	0	0	978640	691	0	correct_rejection	NA	0
12	Single	28	352	1162	9	0	0	979348	692	0	correct_rejection	NA	0
12	Single	29	353	1163	6	0	0	980057	692	0	correct_rejection	NA	0
12	Single	30	354	1164	8	0	0	980765	692	0	correct_rejection	NA	0
12	Single	31	355	1165	4	0	0	981474	692	0	correct_rejection	NA	0
12	Single	32	356	1166	6	0	0	982183	691	0	correct_rejection	NA	0
12	Single	33	357	1167	0	1	1	982891	692	1	hit	360	0
12	Single	34	358	1168	6	0	0	983600	691	0	correct_rejection	NA	0
12	Single	35	359	1169	5	0	0	984308	692	0	correct_rejection	NA	0
12	Single	36	360	1170	6	0	0	985017	691	0	correct_rejection	NA	0
12	Single	37	361	1171	4	0	0	985725	692	0	correct_rejection	NA	0
12	Single	38	362	1172	8	0	0	986434	692	0	correct_rejection	NA	0
12	Single	39	363	1173	7	0	0	987143	691	0	correct_rejection	NA	0
12	Single	40	364	1174	7	0	0	987851	692	0	correct_rejection	NA	0
12	Single	41	365	1175	5	0	0	988560	691	0	correct_rejection	NA	0
12	Single	42	366	1176	8	0	0	989268	692	0	correct_rejection	NA	0
12	Single	43	367	1177	4	0	0	989977	691	0	correct_rejection	NA	0
12	Single	44	368	1178	5	0	0	990685	692	0	correct_rejection	NA	0
12	Single	45	369	1179	6	0	0	991394	692	0	correct_rejection	NA	0
12	Single	46	370	1180	8	0	0	992102	692	0	correct_rejection	NA	0
12	Single	47	371	1181	6	0	0	992811	692	0	correct_rejection	NA	0
12	Single	48	372	1182	6	0	0	993520	691	0	correct_rejection	NA	0
12	Single	49	373	1183	0	1	1	994228	692	1	hit	322	0
12	Single	50	374	1184	4	0	0	994937	691	0	correct_rejection	NA	0
12	Single	51	375	1185	7	0	0	995645	692	0	correct_rejection	NA	0
12	Single	52	376	1186	9	0	0	996354	692	0	correct_rejection	NA	0
12	Single	53	377	1187	0	1	1	997062	692	1	hit	335	0
12	Single	54	378	1188	7	0	0	997771	692	0	correct_rejection	NA	0
12	Single	55	379	1189	7	0	0	998480	691	0	correct_rejection	NA	0
12	Single	56	380	1190	8	0	0	999188	692	0	correct_rejection	NA	0
12	Single	57	381	1191	0	1	1	999897	691	1	hit	387	0
12	Single	58	382	1192	7	0	0	1000605	692	0	correct_rejection	NA	0
12	Single	59	383	1193	4	0	0	1001314	692	0	correct_rejection	NA	0
12	Single	60	384	1194	0	1	1	1002022	692	1	hit	303	0
12	Single	61	385	1195	9	0	0	1002731	692	0	correct_rejection	NA	0
12	Single	62	386	1196	8	0	0	1003440	691	0	correct_rejection	NA	0
12	Single	63	387	1197	9	0	0	1004148	692	0	correct_rejection	NA	0
12	Single	64	388	1198	5	0	0	1004857	691	0	correct_rejection	NA	0
12	Single	65	389	1199	5	0	0	1005565	692	0	correct_rejection	NA	0
12	Single	66	390	1200	7	0	0	1006274	692	0	correct_rejection	NA	0
12	Single	67	391	1201	5	0	0	1006982	692	0	correct_rejection	NA	0
12	Single	68	392	1202	9	0	0	1007691	692	0	correct_rejection	NA	0
12	Single	69	393	1203	6	0	0	1008400	691	0	correct_rejection	NA	0
12	Single	70	394	1204	9	0	0	1009108	692	0	correct_rejection	NA	0
12	Single	71	395	1205	9	0	0	1009817	691	0	correct_rejection	NA	0
12	Single	72	396	1206	4	0	0	1010525	692	0	correct_rejection	NA	0
12	Single	73	397	1207	6	0	0	1011234	692	0	correct_rejection	NA	0
12	Single	74	398	1208	7	0	0	1011942	692	0	correct_rejection	NA	0
12	Single	75	399	1209	6	0	0	1012651	692	0	correct_rejection	NA	0
12	Single	76	400	1210	5	0	0	1013360	691	0	correct_rejection	NA	0
12	Single	77	401	1211	0	1	1	1014068	692	1	hit	405	0
12	Single	78	402	1212	4	0	0	1014777	691	0	correct_rejection	NA	0
12	Single	79	403	1213	4	0	0	1015485	692	0	correct_rejection	NA	0
12	Single	80	404	1214	8	0	0	1016194	691	0	correct_rejection	NA	0
12	Single	81	405	1215	8	0	0	1016902	692	0	correct_rejection	NA	0
12	Single	82	406	1216	0	1	1	1017611	692	1	hit	343	0
12	Single	83	407	1217	8	0	0	1018319	692	0	correct_rejection	NA	0
12	Single	84	408	1218	4	0	0	1019028	692	0	correct_rejection	NA	0
12	Single	85	409	1219	9	0	0	1019737	691	0	correct_rejection	NA	0
12	Single	86	410	1220	7	0	0	1020445	692	0	correct_rejection	NA	0
12	Single	87	411	1221	4	0	0	1021154	691	0	correct_rejection	NA	0
12	Single	88	412	1222	8	0	0	1021862	692	0	correct_rejection	NA	0
12	Single	89	413	1223	9	0	0	1022571	692	0	correct_rejection	NA	0
12	Single	90	414	1224	4	0	0	1023279	692	0	correct_rejection	NA	0
12	Single	91	415	1225	7	0	0	1023988	692	0	correct_rejection	NA	0
12	Single	92	416	1226	6	0	0	1024697	691	0	correct_rejection	NA	0
12	Single	93	417	1227	6	0	0	1025405	692	0	correct_rejection	NA	0
12	Single	94	418	1228	0	1	1	1026114	691	1	hit	447	0
12	Single	95	419	1229	8	0	0	1026822	692	0	correct_rejection	NA	0
12	Single	96	420	1230	8	0	0	1027531	692	0	correct_rejection	NA	0
12	Single	97	421	1231	5	0	0	1028239	692	0	correct_rejection	NA	0
12	Single	98	422	1232	5	0	0	1028948	692	0	correct_rejection	NA	0
12	Single	99	423	1233	6	0	0	1029657	691	0	correct_rejection	NA	0
12	Single	100	424	1234	0	1	1	1030365	692	1	hit	389	0
12	Single	101	425	1235	7	0	0	1031074	691	0	correct_rejection	NA	0
12	Single	102	426	1236	9	0	0	1031782	692	0	correct_rejection	NA	0
12	Single	103	427	1237	6	0	0	1032491	692	0	correct_rejection	NA	0
12	Single	104	428	1238	4	0	0	1033199	692	0	correct_rejection	NA	0
12	Single	105	429	1239	4	0	0	1033908	692	0	correct_rejection	NA	0
12	Single	106	430	1240	6	0	0	1034617	691	0	correct_rejection	NA	0
12	Single	107	431	1241	9	0	0	1035325	692	0	correct_rejection	NA	0
12	Single	108	432	1242	5	0	0	1036034	691	0	correct_rejection	NA	0
12	Single	109	433	1243	4	0	0	1036742	692	0	correct_rejection	NA	0
12	Single	110	434	1244	5	0	0	1037451	692	0	correct_rejection	NA	0
12	Single	111	435	1245	9	0	0	1038159	692	0	correct_rejection	NA	0
12	Single	112	436	1246	9	0	0	1038868	692	0	correct_rejection	NA	0
12	Single	113	437	1247	8	0	0	1039577	691	0	correct_rejection	NA	0
12	Single	114	438	1248	7	0	0	1040285	692	0	correct_rejection	NA	0
12	Single	115	439	1249	8	0	0	1040994	691	0	correct_rejection	NA	0
12	Single	116	440	1250	6	0	0	1041702	692	0	correct_rejection	NA	0
12	Single	117	441	1251	5	0	0	1042411	691	0	correct_rejection	NA	0
12	Single	118	442	1252	7	0	0	1043119	692	0	correct_rejection	NA	0
12	Single	119	443	1253	7	0	0	1043828	692	0	correct_rejection	NA	0
12	Single	120	444	1254	5	0	0	1044536	692	0	correct_rejection	NA	0
12	Single	121	445	1255	8	0	0	1045245	692	0	correct_rejection	NA	0
12	Single	122	446	1256	7	0	0	1045954	691	0	correct_rejection	NA	0
12	Single	123	447	1257	9	0	0	1046662	692	0	correct_rejection	NA	0
12	Single	124	448	1258	0	1	1	1047371	691	1	hit	322	0
12	Single	125	449	1259	9	0	0	1048079	692	0	correct_rejection	NA	0
12	Single	126	450	1260	6	0	0	1048788	692	0	correct_rejection	NA	0
12	Single	127	451	1261	0	1	1	1049496	692	1	hit	434	0
12	Single	128	452	1262	5	0	0	1050205	692	0	correct_rejection	NA	0
12	Single	129	453	1263	5	0	0	1050914	691	0	correct_rejection	NA	0
12	Single	130	454	1264	9	0	0	1051622	692	0	correct_rejection	NA	0
12	Single	131	455	1265	4	0	0	1052331	691	0	correct_rejection	NA	0
12	Single	132	456	1266	9	0	0	1053039	692	0	correct_rejection	NA	0
12	Single	133	457	1267	5	0	0	1053748	692	0	correct_rejection	NA	0
12	Single	134	458	1268	7	0	0	1054456	692	0	correct_rejection	NA	0
12	Single	135	459	1269	4	0	0	1055165	692	0	correct_rejection	NA	0
12	Single	136	460	1270	4	0	0	1055874	691	0	correct_rejection	NA	0
12	Single	137	461	1271	5	0	0	1056582	692	0	correct_rejection	NA	0
12	Single	138	462	1272	8	0	0	1057291	691	0	correct_rejection	NA	0
12	Single	139	463	1273	8	0	0	1057999	692	0	correct_rejection	NA	0
12	Single	140	464	1274	0	1	1	1058708	692	1	hit	409	0
12	Single	141	465	1275	9	0	0	1059416	692	0	correct_rejection	NA	0
12	Single	142	466	1276	7	0	0	1060125	692	0	correct_rejection	NA	0
12	Single	143	467	1277	8	0	0	1060834	691	0	correct_rejection	NA	0
12	Single	144	468	1278	4	0	0	1061542	692	0	correct_rejection	NA	0
12	Single	145	469	1279	8	0	0	1062251	691	0	correct_rejection	NA	0
12	Single	146	470	1280	6	0	0	1062959	692	0	correct_rejection	NA	0
12	Single	147	471	1281	9	0	0	1063668	692	0	correct_rejection	NA	0
12	Single	148	472	1282	8	0	0	1064376	692	0	correct_rejection	NA	0
12	Single	149	473	1283	0	1	1	1065085	692	1	hit	311	0
12	Single	150	474	1284	5	0	0	1065794	691	0	correct_rejection	NA	0
12	Single	151	475	1285	4	0	0	1066502	692	0	correct_rejection	NA	0
12	Single	152	476	1286	0	1	1	1067211	691	1	hit	400	0
12	Single	153	477	1287	7	0	0	1067919	692	0	correct_rejection	NA	0
12	Single	154	478	1288	5	0	0	1068628	691	0	correct_rejection	NA	0
12	Single	155	479	1289	0	1	1	1069336	692	1	hit	346	0
12	Single	156	480	1290	6	0	0	1070045	692	0	correct_rejection	NA	0
12	Single	157	481	1291	6	0	0	1070753	692	0	correct_rejection	NA	0
12	Single	158	482	1292	7	0	0	1071462	692	0	correct_rejection	NA	0
12	Single	159	483	1293	7	0	0	1072171	691	0	correct_rejection	NA	0
12	Single	160	484	1294	6	0	0	1072879	692	0	correct_rejection	NA	0
12	Single	161	485	1295	4	0	0	1073588	691	0	correct_rejection	NA	0
12	Single	162	486	1296	6	0	0	1074296	692	0	correct_rejection	NA	0
12	Correct	1	163	1297	4	0	0	1083091	692	0	correct_rejection	NA	6489
12	Correct	2	164	1298	5	0	0	1083799	692	0	correct_rejection	NA	0
12	Correct	3	165	1299	6	0	0	1084508	692	0	correct_rejection	NA	0
12	Correct	4	166	1300	4	0	0	1085217	691	0	correct_rejection	NA	0
12	Correct	5	167	1301	5	0	0	1085925	692	0	correct_rejection	NA	0
12	Correct	6	168	1302	6	0	0	1086634	691	0	correct_rejection	NA	0
12	Correct	7	169	1303	4	0	0	1087342	692	0	correct_rejection	NA	0
12	Correct	8	170	1304	0	1	1	1088051	692	1	hit	328	0
12	Correct	9	171	1305	5	0	0	1088759	692	0	correct_rejection	NA	0
12	Correct	10	172	1306	6	0	0	1089468	692	0	correct_rejection	NA	0
12	Correct	11	173	1307	6	0	0	1090177	691	0	correct_rejection	NA	0
12	Correct	12	174	1308	5	0	0	1090885	692	0	correct_rejection	NA	0
12	Correct	13	175	1309	4	0	0	1091594	691	0	correct_rejection	NA	0
12	Correct	14	176	1310	0	1	2	1092302	692	1	hit	301	0
12	Correct	15	177	1311	6	0	0	1093011	692	0	correct_rejection	NA	0
12	Correct	16	178	1312	5	0	0	1093719	692	0	correct_rejection	NA	0
12	Correct	17	179	1313	4	0	0	1094428	692	0	correct_rejection	NA	0
12	Correct	18	180	1314	6	0	0	1095137	691	0	correct_rejection	NA	0
12	Correct	19	181	1315	5	0	0	1095845	692	0	correct_rejection	NA	0
12	Correct	20	182	1316	4	0	0	1096554	691	0	correct_rejection	NA	0
12	Correct	21	183	1317	0	1	3	1097262	692	1	hit	345	0
12	Correct	22	184	1318	9	0	0	1097971	692	0	correct_rejection	NA	0
12	Correct	23	185	1319	8	0	0	1098679	692	0	correct_rejection	NA	0
12	Correct	24	186	1320	7	0	0	1099388	692	0	correct_rejection	NA	0
12	Correct	25	187	1321	0	1	2	1100097	691	1	hit	428	0
12	Correct	26	188	1322	9	0	0	1100805	692	0	correct_rejection	NA	0
12	Correct	27	189	1323	8	0	0	1101514	691	0	correct_rejection	NA	0
12	Correct	28	190	1324	0	1	1	1102222	692	1	hit	412	0
12	Correct	29	191	1325	7	0	0	1102931	691	0	correct_rejection	NA	0
12	Correct	30	192	1326	9	0	0	1103639	692	0	correct_rejection	NA	0
12	Correct	31	193	1327	8	0	0	1104348	692	0	correct_rejection	NA	0
12	Correct	32	194	1328	7	0	0	1105056	692	0	correct_rejection	NA	0
12	Correct	33	195	1329	0	1	3	1105765	692	1	hit	351	0
12	Correct	34	196	1330	7	0	0	1106474	691	0	correct_rejection	NA	0
12	Correct	35	197	1331	8	0	0	1107182	692	0	correct_rejection	NA	0
12	Correct	36	198	1332	9	0	0	1107891	691	0	correct_rejection	NA	0
12	Correct	37	199	1333	7	0	0	1108599	692	0	correct_rejection	NA	0
12	Correct	38	200	1334	8	0	0	1109308	692	0	correct_rejection	NA	0
12	Correct	39	201	1335	9	0	0	1110016	692	0	correct_rejection	NA	0
12	Correct	40	202	1336	7	0	0	1110725	692	0	correct_rejection	NA	0
12	Correct	41	203	1337	8	0	0	1111434	691	0	correct_rejection	NA	0
12	Correct	42	204	1338	9	0	0	1112142	692	0	correct_rejection	NA	0
12	Correct	43	205	1339	4	0	0	1112851	691	0	correct_rejection	NA	0
12	Correct	44	206	1340	5	0	0	1113559	692	0	correct_rejection	NA	0
12	Correct	45	207	1341	6	0	0	1114268	692	0	correct_rejection	NA	0
12	Correct	46	208	1342	4	0	0	1114976	692	0	correct_rejection	NA	0
12	Correct	47	209	1343	5	0	0	1115685	692	0	correct_rejection	NA	0
12	Correct	48	210	1344	6	0	0	1116394	691	0	correct_rejection	NA	0
12	Correct	49	211	1345	4	0	0	1117102	692	0	correct_rejection	NA	0
12	Correct	50	212	1346	5	0	0	1117811	691	0	correct_rejection	NA	0
12	Correct	51	213	1347	6	0	0	1118519	692	0	correct_rejection	NA	0
12	Correct	52	214	1348	6	0	0	1119228	692	0	correct_rejection	NA	0
12	Correct	53	215	1349	5	0	0	1119936	692	0	correct_rejection	NA	0
12	Correct	54	216	1350	4	0	0	1120645	692	0	correct_rejection	NA	0
12	Correct	55	217	1351	6	0	0	1121354	691	0	correct_rejection	NA	0
12	Correct	56	218	1352	5	0	0	1122062	692	0	correct_rejection	NA	0
12	Correct	57	219	1353	4	0	0	1122771	691	0	correct_rejection	NA	0
12	Correct	58	220	1354	6	0	0	1123479	692	0	correct_rejection	NA	0
12	Correct	59	221	1355	5	0	0	1124188	692	0	correct_rejection	NA	0
12	Correct	60	222	1356	0	1	1	1124896	692	1	hit	341	0
12	Correct	61	223	1357	4	0	0	1125605	692	0	correct_rejection	NA	0
12	Correct	62	224	1358	9	0	0	1126314	691	0	correct_rejection	NA	0
12	Correct	63	225	1359	0	1	1	1127022	692	1	hit	382	0
12	Correct	64	226	1360	8	0	0	1127731	691	0	correct_rejection	NA	0
12	Correct	65	227	1361	7	0	0	1128439	692	0	correct_rejection	NA	0
12	Correct	66	228	1362	9	0	0	1129148	692	0	correct_rejection	NA	0
12	Correct	67	229	1363	8	0	0	1129856	692	0	correct_rejection	NA	0
12	Correct	68	230	1364	7	0	0	1130565	692	0	correct_rejection	NA	0
12	Correct	69	231	1365	9	0	0	1131273	692	1	false_alarm	507	0
12	Correct	70	232	1366	8	0	0	1131982	692	0	correct_rejection	NA	0
12	Correct	71	233	1367	7	0	0	1132691	691	0	correct_rejection	NA	0
12	Correct	72	234	1368	7	0	0	1133399	692	0	correct_rejection	NA	0
12	Correct	73	235	1369	8	0	0	1134108	691	0	correct_rejection	NA	0
12	Correct	74	236	1370	0	1	1	1134816	692	1	hit	322	0
12	Correct	75	237	1371	9	0	0	1135525	692	0	correct_rejection	NA	0
12	Correct	76	238	1372	7	0	0	1136233	692	0	correct_rejection	NA	0
12	Correct	77	239	1373	0	1	1	1136942	692	1	hit	443	0
12	Correct	78	240	1374	8	0	0	1137651	691	0	correct_rejection	NA	0
12	Correct	79	241	1375	9	0	0	1138359	692	0	correct_rejection	NA	0
12	Correct	80	242	1376	7	0	0	1139068	691	0	correct_rejection	NA	0
12	Correct	81	243	1377	0	1	1	1139776	692	1	hit	341	0
12	Correct	82	244	1378	8	0	0	1140485	692	0	correct_rejection	NA	0
12	Correct	83	245	1379	9	0	0	1141193	692	0	correct_rejection	NA	0
12	Correct	84	246	1380	4	0	0	1141902	692	0	correct_rejection	NA	0
12	Correct	85	247	1381	5	0	0	1142611	691	0	correct_rejection	NA	0
12	Correct	86	248	1382	6	0	0	1143319	692	0	correct_rejection	NA	0
12	Correct	87	249	1383	0	1	2	1144028	691	1	hit	378	0
12	Correct	88	250	1384	4	0	0	1144736	692	0	correct_rejection	NA	0
12	Correct	89	251	1385	5	0	0	1145445	692	0	correct_rejection	NA	0
12	Correct	90	252	1386	6	0	0	1146153	692	0	correct_rejection	NA	0
12	Correct	91	253	1387	4	0	0	1146862	692	0	correct_rejection	NA	0
12	Correct	92	254	1388	5	0	0	1147571	691	0	correct_rejection	NA	0
12	Correct	93	255	1389	6	0	0	1148279	692	0	correct_rejection	NA	0
12	Correct	94	256	1390	6	0	0	1148988	691	0	correct_rejection	NA	0
12	Correct	95	257	1391	0	1	1	1149696	692	1	hit	403	0
12	Correct	96	258	1392	5	0	0	1150405	692	0	correct_rejection	NA	0
12	Correct	97	259	1393	4	0	0	1151113	692	0	correct_rejection	NA	0
12	Correct	98	260	1394	6	0	0	1151822	692	0	correct_rejection	NA	0
12	Correct	99	261	1395	5	0	0	1152531	691	0	correct_rejection	NA	0
12	Correct	100	262	1396	4	0	0	1153239	692	0	correct_rejection	NA	0
12	Correct	101	263	1397	6	0	0	1153948	691	0	correct_rejection	NA	0
12	Correct	102	264	1398	5	0	0	1154656	692	0	correct_rejection	NA	0
12	Correct	103	265	1399	4	0	0	1155365	691	0	correct_rejection	NA	0
12	Correct	104	266	1400	9	0	0	1156073	692	0	correct_rejection	NA	0
12	Correct	105	267	1401	8	0	0	1156782	692	0	correct_rejection	NA	0
12	Correct	106	268	1402	7	0	0	1157491	691	0	correct_rejection	NA	0
12	Correct	107	269	1403	9	0	0	1158199	692	0	correct_rejection	NA	0
12	Correct	108	270	1404	8	0	0	1158908	691	0	correct_rejection	NA	0
12	Correct	109	271	1405	7	0	0	1159616	692	0	correct_rejection	NA	0
12	Correct	110	272	1406	9	0	0	1160325	691	0	correct_rejection	NA	0
12	Correct	111	273	1407	8	0	0	1161033	692	0	correct_rejection	NA	0
12	Correct	112	274	1408	7	0	0	1161742	692	0	correct_rejection	NA	0
12	Correct	113	275	1409	7	0	0	1162450	692	0	correct_rejection	NA	0
12	Correct	114	276	1410	8	0	0	1163159	692	0	correct_rejection	NA	0
12	Correct	115	277	1411	0	1	1	1163868	691	1	hit	613	0
12	Correct	116	278	1412	9	0	0	1164576	692	0	correct_rejection	NA	0
12	Correct	117	279	1413	7	0	0	1165285	691	0	correct_rejection	NA	0
12	Correct	118	280	1414	8	0	0	1165993	692	0	correct_rejection	NA	0
12	Correct	119	281	1415	9	0	0	1166702	692	0	correct_rejection	NA	0
12	Correct	120	282	1416	0	1	2	1167410	692	1	hit	468	0
12	Correct	121	283	1417	7	0	0	1168119	692	0	correct_rejection	NA	0
12	Correct	122	284	1418	8	0	0	1168828	691	0	correct_rejection	NA	0
12	Correct	123	285	1419	9	0	0	1169536	692	0	correct_rejection	NA	0
12	Correct	124	286	1420	4	0	0	1170245	691	0	correct_rejection	NA	0
12	Correct	125	287	1421	5	0	0	1170953	692	0	correct_rejection	NA	0
12	Correct	126	288	1422	0	1	1	1171662	692	1	hit	340	0
12	Correct	127	289	1423	6	0	0	1172370	692	0	correct_rejection	NA	0
12	Correct	128	290	1424	4	0	0	1173079	692	0	correct_rejection	NA	0
12	Correct	129	291	1425	5	0	0	1173788	691	0	correct_rejection	NA	0
12	Correct	130	292	1426	6	0	0	1174496	692	0	correct_rejection	NA	0
12	Correct	131	293	1427	4	0	0	1175205	691	0	correct_rejection	NA	0
12	Correct	132	294	1428	5	0	0	1175913	692	0	correct_rejection	NA	0
12	Correct	133	295	1429	6	0	0	1176622	692	0	correct_rejection	NA	0
12	Correct	134	296	1430	6	0	0	1177330	692	0	correct_rejection	NA	0
12	Correct	135	297	1431	5	0	0	1178039	692	0	correct_rejection	NA	0
12	Correct	136	298	1432	4	0	0	1178748	691	0	correct_rejection	NA	0
12	Correct	137	299	1433	6	0	0	1179456	692	0	correct_rejection	NA	0
12	Correct	138	300	1434	5	0	0	1180165	691	0	correct_rejection	NA	0
12	Correct	139	301	1435	4	0	0	1180873	692	0	correct_rejection	NA	0
12	Correct	140	302	1436	6	0	0	1181582	691	0	correct_rejection	NA	0
12	Correct	141	303	1437	5	0	0	1182290	692	0	correct_rejection	NA	0
12	Correct	142	304	1438	4	0	0	1182999	692	0	correct_rejection	NA	0
12	Correct	143	305	1439	9	0	0	1183708	691	0	correct_rejection	NA	0
12	Correct	144	306	1440	8	0	0	1184416	692	0	correct_rejection	NA	0
12	Correct	145	307	1441	7	0	0	1185125	691	0	correct_rejection	NA	0
12	Correct	146	308	1442	9	0	0	1185833	692	0	correct_rejection	NA	0
12	Correct	147	309	1443	8	0	0	1186542	691	0	correct_rejection	NA	0
12	Correct	148	310	1444	0	1	1	1187250	692	1	hit	475	0
12	Correct	149	311	1445	7	0	0	1187959	692	0	correct_rejection	NA	0
12	Correct	150	312	1446	9	0	0	1188667	692	0	correct_rejection	NA	0
12	Correct	151	313	1447	8	0	0	1189376	692	0	correct_rejection	NA	0
12	Correct	152	314	1448	7	0	0	1190085	691	0	correct_rejection	NA	0
12	Correct	153	315	1449	7	0	0	1190793	692	0	correct_rejection	NA	0
12	Correct	154	316	1450	0	1	1	1191502	691	1	hit	377	0
12	Correct	155	317	1451	8	0	0	1192210	692	0	correct_rejection	NA	0
12	Correct	156	318	1452	9	0	0	1192919	692	0	correct_rejection	NA	0
12	Correct	157	319	1453	7	0	0	1193627	692	0	correct_rejection	NA	0
12	Correct	158	320	1454	8	0	0	1194336	692	0	correct_rejection	NA	0
12	Correct	159	321	1455	9	0	0	1195045	691	0	correct_rejection	NA	0
12	Correct	160	322	1456	7	0	0	1195753	692	0	correct_rejection	NA	0
12	Correct	161	323	1457	8	0	0	1196462	691	0	correct_rejection	NA	0
12	Correct	162	324	1458	9	0	0	1197170	692	0	correct_rejection	NA	0
12	Triplet	1	325	1459	6	0	0	1205982	691	0	correct_rejection	NA	6379
12	Triplet	2	326	1460	5	0	0	1206690	692	0	correct_rejection	NA	0
12	Triplet	3	327	1461	4	0	0	1207399	691	0	correct_rejection	NA	0
12	Triplet	4	328	1462	6	0	0	1208107	692	0	correct_rejection	NA	0
12	Triplet	5	329	1463	5	0	0	1208816	691	0	correct_rejection	NA	0
12	Triplet	6	330	1464	4	0	0	1209524	692	0	correct_rejection	NA	0
12	Triplet	7	331	1465	9	0	0	1210233	692	0	correct_rejection	NA	0
12	Triplet	8	332	1466	8	0	0	1210942	691	0	correct_rejection	NA	0
12	Triplet	9	333	1467	7	0	0	1211650	692	0	correct_rejection	NA	0
12	Triplet	10	334	1468	9	0	0	1212359	691	0	correct_rejection	NA	0
12	Triplet	11	335	1469	8	0	0	1213067	692	0	correct_rejection	NA	0
12	Triplet	12	336	1470	7	0	0	1213776	691	0	correct_rejection	NA	0
12	Triplet	13	337	1471	7	0	0	1214484	692	0	correct_rejection	NA	0
12	Triplet	14	338	1472	0	1	1	1215193	692	1	hit	390	0
12	Triplet	15	339	1473	8	0	0	1215901	692	0	correct_rejection	NA	0
12	Triplet	16	340	1474	9	0	0	1216610	692	0	correct_rejection	NA	0
12	Triplet	17	341	1475	9	0	0	1217319	691	0	correct_rejection	NA	0
12	Triplet	18	342	1476	8	0	0	1218027	692	0	correct_rejection	NA	0
12	Triplet	19	343	1477	7	0	0	1218736	691	0	correct_rejection	NA	0
12	Triplet	20	344	1478	6	0	0	1219444	692	0	correct_rejection	NA	0
12	Triplet	21	345	1479	5	0	0	1220153	692	0	correct_rejection	NA	0
12	Triplet	22	346	1480	4	0	0	1220861	692	0	correct_rejection	NA	0
12	Triplet	23	347	1481	7	0	0	1221570	692	0	correct_rejection	NA	0
12	Triplet	24	348	1482	8	0	0	1222279	691	0	correct_rejection	NA	0
12	Triplet	25	349	1483	9	0	0	1222987	692	0	correct_rejection	NA	0
12	Triplet	26	350	1484	4	0	0	1223696	691	0	correct_rejection	NA	0
12	Triplet	27	351	1485	5	0	0	1224404	692	0	correct_rejection	NA	0
12	Triplet	28	352	1486	6	0	0	1225113	692	0	correct_rejection	NA	0
12	Triplet	29	353	1487	6	0	0	1225821	692	0	correct_rejection	NA	0
12	Triplet	30	354	1488	0	1	1	1226530	692	1	hit	330	0
12	Triplet	31	355	1489	5	0	0	1227239	691	0	correct_rejection	NA	0
12	Triplet	32	356	1490	4	0	0	1227947	692	0	correct_rejection	NA	0
12	Triplet	33	357	1491	4	0	0	1228656	691	0	correct_rejection	NA	0
12	Triplet	34	358	1492	5	0	0	1229364	692	0	correct_rejection	NA	0
12	Triplet	35	359	1493	6	0	0	1230073	692	0	correct_rejection	NA	0
12	Triplet	36	360	1494	9	0	0	1230781	692	0	correct_rejection	NA	0
12	Triplet	37	361	1495	8	0	0	1231490	692	0	correct_rejection	NA	0
12	Triplet	38	362	1496	7	0	0	1232199	691	0	correct_rejection	NA	0
12	Triplet	39	363	1497	4	0	0	1232907	692	0	correct_rejection	NA	0
12	Triplet	40	364	1498	5	0	0	1233616	691	0	correct_rejection	NA	0
12	Triplet	41	365	1499	6	0	0	1234324	692	0	correct_rejection	NA	0
12	Triplet	42	366	1500	4	0	0	1235033	691	0	correct_rejection	NA	0
12	Triplet	43	367	1501	0	1	1	1235741	692	1	hit	336	0
12	Triplet	44	368	1502	5	0	0	1236450	692	0	correct_rejection	NA	0
12	Triplet	45	369	1503	6	0	0	1237159	691	0	correct_rejection	NA	0
12	Triplet	46	370	1504	7	0	0	1237867	692	0	correct_rejection	NA	0
12	Triplet	47	371	1505	8	0	0	1238576	691	0	correct_rejection	NA	0
12	Triplet	48	372	1506	9	0	0	1239284	692	0	correct_rejection	NA	0
12	Triplet	49	373	1507	7	0	0	1239993	691	0	correct_rejection	NA	0
12	Triplet	50	374	1508	8	0	0	1240701	692	0	correct_rejection	NA	0
12	Triplet	51	375	1509	9	0	0	1241410	692	0	correct_rejection	NA	0
12	Triplet	52	376	1510	0	1	2	1242118	692	1	hit	339	0
12	Triplet	53	377	1511	6	0	0	1242827	692	0	correct_rejection	NA	0
12	Triplet	54	378	1512	5	0	0	1243536	691	0	correct_rejection	NA	0
12	Triplet	55	379	1513	4	0	0	1244244	692	0	correct_rejection	NA	0
12	Triplet	56	380	1514	0	1	2	1244953	691	1	hit	341	0
12	Triplet	57	381	1515	7	0	0	1245661	692	0	correct_rejection	NA	0
12	Triplet	58	382	1516	8	0	0	1246370	692	0	correct_rejection	NA	0
12	Triplet	59	383	1517	9	0	0	1247078	692	0	correct_rejection	NA	0
12	Triplet	60	384	1518	9	0	0	1247787	692	0	correct_rejection	NA	0
12	Triplet	61	385	1519	8	0	0	1248496	691	0	correct_rejection	NA	0
12	Triplet	62	386	1520	7	0	0	1249204	692	0	correct_rejection	NA	0
12	Triplet	63	387	1521	4	0	0	1249913	691	0	correct_rejection	NA	0
12	Triplet	64	388	1522	5	0	0	1250621	692	0	correct_rejection	NA	0
12	Triplet	65	389	1523	6	0	0	1251330	692	0	correct_rejection	NA	0
12	Triplet	66	390	1524	7	0	0	1252038	692	0	correct_rejection	NA	0
12	Triplet	67	391	1525	8	0	0	1252747	692	0	correct_rejection	NA	0
12	Triplet	68	392	1526	0	1	1	1253456	691	1	hit	449	0
12	Triplet	69	393	1527	9	0	0	1254164	692	0	correct_rejection	NA	0
12	Triplet	70	394	1528	4	0	0	1254873	691	0	correct_rejection	NA	0
12	Triplet	71	395	1529	5	0	0	1255581	692	0	correct_rejection	NA	0
12	Triplet	72	396	1530	0	1	1	1256290	692	1	hit	399	0
12	Triplet	73	397	1531	6	0	0	1256998	692	0	correct_rejection	NA	0
12	Triplet	74	398	1532	4	0	0	1257707	692	0	correct_rejection	NA	0
12	Triplet	75	399	1533	0	1	1	1258416	691	1	hit	349	0
12	Triplet	76	400	1534	5	0	0	1259124	692	0	correct_rejection	NA	0
12	Triplet	77	401	1535	6	0	0	1259833	691	0	correct_rejection	NA	0
12	Triplet	78	402	1536	9	0	0	1260541	692	0	correct_rejection	NA	0
12	Triplet	79	403	1537	0	1	1	1261250	692	1	hit	319	0
12	Triplet	80	404	1538	8	0	0	1261958	692	0	correct_rejection	NA	0
12	Triplet	81	405	1539	7	0	0	1262667	692	0	correct_rejection	NA	0
12	Triplet	82	406	1540	9	0	0	1263376	691	0	correct_rejection	NA	0
12	Triplet	83	407	1541	8	0	0	1264084	692	0	correct_rejection	NA	0
12	Triplet	84	408	1542	7	0	0	1264793	691	0	correct_rejection	NA	0
12	Triplet	85	409	1543	6	0	0	1265501	692	0	correct_rejection	NA	0
12	Triplet	86	410	1544	5	0	0	1266210	691	0	correct_rejection	NA	0
12	Triplet	87	411	1545	4	0	0	1266918	692	0	correct_rejection	NA	0
12	Triplet	88	412	1546	4	0	0	1267627	692	0	correct_rejection	NA	0
12	Triplet	89	413	1547	5	0	0	1268335	692	0	correct_rejection	NA	0
12	Triplet	90	414	1548	6	0	0	1269044	692	0	correct_rejection	NA	0
12	Triplet	91	415	1549	6	0	0	1269753	691	0	correct_rejection	NA	0
12	Triplet	92	416	1550	5	0	0	1270461	692	0	correct_rejection	NA	0
12	Triplet	93	417	1551	4	0	0	1271170	691	0	correct_rejection	NA	0
12	Triplet	94	418	1552	9	0	0	1271878	692	0	correct_rejection	NA	0
12	Triplet	95	419	1553	8	0	0	1272587	692	0	correct_rejection	NA	0
12	Triplet	96	420	1554	7	0	0	1273295	692	0	correct_rejection	NA	0
12	Triplet	97	421	1555	0	1	2	1274004	692	1	hit	341	0
12	Triplet	98	422	1556	7	0	0	1274713	691	0	correct_rejection	NA	0
12	Triplet	99	423	1557	8	0	0	1275421	692	0	correct_rejection	NA	0
12	Triplet	100	424	1558	9	0	0	1276130	691	0	correct_rejection	NA	0
12	Triplet	101	425	1559	7	0	0	1276838	692	0	correct_rejection	NA	0
12	Triplet	102	426	1560	8	0	0	1277547	692	0	correct_rejection	NA	0
12	Triplet	103	427	1561	9	0	0	1278255	692	0	correct_rejection	NA	0
12	Triplet	104	428	1562	6	0	0	1278964	692	0	correct_rejection	NA	0
12	Triplet	105	429	1563	5	0	0	1279673	691	0	correct_rejection	NA	0
12	Triplet	106	430	1564	4	0	0	1280381	692	0	correct_rejection	NA	0
12	Triplet	107	431	1565	0	1	2	1281090	691	1	hit	358	0
12	Triplet	108	432	1566	6	0	0	1281798	692	0	correct_rejection	NA	0
12	Triplet	109	433	1567	5	0	0	1282507	692	0	correct_rejection	NA	0
12	Triplet	110	434	1568	0	1	1	1283215	692	1	hit	334	0
12	Triplet	111	435	1569	4	0	0	1283924	692	0	correct_rejection	NA	0
12	Triplet	112	436	1570	9	0	0	1284633	691	0	correct_rejection	NA	0
12	Triplet	113	437	1571	8	0	0	1285341	692	0	correct_rejection	NA	0
12	Triplet	114	438	1572	7	0	0	1286050	691	0	correct_rejection	NA	0
12	Triplet	115	439	1573	4	0	0	1286758	692	0	correct_rejection	NA	0
12	Triplet	116	440	1574	5	0	0	1287467	692	0	correct_rejection	NA	0
12	Triplet	117	441	1575	6	0	0	1288175	692	0	correct_rejection	NA	0
12	Triplet	118	442	1576	9	0	0	1288884	692	0	correct_rejection	NA	0
12	Triplet	119	443	1577	8	0	0	1289593	691	0	correct_rejection	NA	0
12	Triplet	120	444	1578	7	0	0	1290301	692	0	correct_rejection	NA	0
12	Triplet	121	445	1579	7	0	0	1291010	691	0	correct_rejection	NA	0
12	Triplet	122	446	1580	8	0	0	1291718	692	0	correct_rejection	NA	0
12	Triplet	123	447	1581	9	0	0	1292427	691	0	correct_rejection	NA	0
12	Triplet	124	448	1582	6	0	0	1293135	692	0	correct_rejection	NA	0
12	Triplet	125	449	1583	5	0	0	1293844	692	0	correct_rejection	NA	0
12	Triplet	126	450	1584	4	0	0	1294552	692	0	correct_rejection	NA	0
12	Triplet	127	451	1585	4	0	0	1295261	692	0	correct_rejection	NA	0
12	Triplet	128	452	1586	0	1	1	1295970	691	1	hit	341	0
12	Triplet	129	453	1587	5	0	0	1296678	692	0	correct_rejection	NA	0
12	Triplet	130	454	1588	6	0	0	1297387	691	0	correct_rejection	NA	0
12	Triplet	131	455	1589	0	1	2	1298095	692	1	hit	498	0
12	Triplet	132	456	1590	4	0	0	1298804	692	0	correct_rejection	NA	0
12	Triplet	133	457	1591	5	0	0	1299512	692	0	correct_rejection	NA	0
12	Triplet	134	458	1592	6	0	0	1300221	692	0	correct_rejection	NA	0
