ID	block	trial_block	trial_cat	trial_total	number	violation	level_violation	onset	duration	Response	Hit_Miss	RT	pre_trial_fixcross_ISI
first_trigger_at: 11364
trigger nr 5 at 15364
13	Single	1	1	1	9	0	0	23366	691	0	correct_rejection	NA	7959
13	Single	2	2	2	5	0	0	24074	692	0	correct_rejection	NA	0
13	Single	3	3	3	4	0	0	24783	691	0	correct_rejection	NA	0
13	Single	4	4	4	7	0	0	25491	692	0	correct_rejection	NA	0
13	Single	5	5	5	9	0	0	26200	691	0	correct_rejection	NA	0
13	Single	6	6	6	4	0	0	26908	692	0	correct_rejection	NA	0
13	Single	7	7	7	4	0	0	27617	692	0	correct_rejection	NA	0
13	Single	8	8	8	5	0	0	28325	692	0	correct_rejection	NA	0
13	Single	9	9	9	0	1	1	29034	692	1	hit	321	0
13	Single	10	10	10	8	0	0	29743	691	0	correct_rejection	NA	0
13	Single	11	11	11	7	0	0	30451	692	0	correct_rejection	NA	0
13	Single	12	12	12	5	0	0	31160	691	0	correct_rejection	NA	0
13	Single	13	13	13	7	0	0	31868	692	0	correct_rejection	NA	0
13	Single	14	14	14	0	1	1	32577	692	1	hit	318	0
13	Single	15	15	15	7	0	0	33285	692	0	correct_rejection	NA	0
13	Single	16	16	16	8	0	0	33994	692	0	correct_rejection	NA	0
13	Single	17	17	17	9	0	0	34703	691	0	correct_rejection	NA	0
13	Single	18	18	18	8	0	0	35411	692	0	correct_rejection	NA	0
13	Single	19	19	19	6	0	0	36120	691	0	correct_rejection	NA	0
13	Single	20	20	20	4	0	0	36828	692	0	correct_rejection	NA	0
13	Single	21	21	21	0	1	1	37537	692	1	hit	323	0
13	Single	22	22	22	9	0	0	38245	692	0	correct_rejection	NA	0
13	Single	23	23	23	9	0	0	38954	692	0	correct_rejection	NA	0
13	Single	24	24	24	7	0	0	39663	691	0	correct_rejection	NA	0
13	Single	25	25	25	0	1	1	40371	692	1	hit	320	0
13	Single	26	26	26	6	0	0	41080	691	0	correct_rejection	NA	0
13	Single	27	27	27	6	0	0	41788	692	0	correct_rejection	NA	0
13	Single	28	28	28	8	0	0	42497	691	0	correct_rejection	NA	0
13	Single	29	29	29	5	0	0	43205	692	0	correct_rejection	NA	0
13	Single	30	30	30	6	0	0	43914	692	0	correct_rejection	NA	0
13	Single	31	31	31	0	1	1	44623	691	1	hit	315	0
13	Single	32	32	32	7	0	0	45331	692	0	correct_rejection	NA	0
13	Single	33	33	33	4	0	0	46040	691	0	correct_rejection	NA	0
13	Single	34	34	34	8	0	0	46748	692	0	correct_rejection	NA	0
13	Single	35	35	35	8	0	0	47457	691	0	correct_rejection	NA	0
13	Single	36	36	36	4	0	0	48165	692	0	correct_rejection	NA	0
13	Single	37	37	37	6	0	0	48874	692	0	correct_rejection	NA	0
13	Single	38	38	38	5	0	0	49582	692	0	correct_rejection	NA	0
13	Single	39	39	39	5	0	0	50291	692	0	correct_rejection	NA	0
13	Single	40	40	40	9	0	0	51000	691	0	correct_rejection	NA	0
13	Single	41	41	41	6	0	0	51708	692	0	correct_rejection	NA	0
13	Single	42	42	42	4	0	0	52417	691	0	correct_rejection	NA	0
13	Single	43	43	43	9	0	0	53125	692	0	correct_rejection	NA	0
13	Single	44	44	44	8	0	0	53834	692	0	correct_rejection	NA	0
13	Single	45	45	45	8	0	0	54542	692	0	correct_rejection	NA	0
13	Single	46	46	46	6	0	0	55251	692	0	correct_rejection	NA	0
13	Single	47	47	47	9	0	0	55960	691	0	correct_rejection	NA	0
13	Single	48	48	48	6	0	0	56668	692	0	correct_rejection	NA	0
13	Single	49	49	49	6	0	0	57377	691	0	correct_rejection	NA	0
13	Single	50	50	50	7	0	0	58085	692	0	correct_rejection	NA	0
13	Single	51	51	51	5	0	0	58794	692	0	correct_rejection	NA	0
13	Single	52	52	52	6	0	0	59502	692	0	correct_rejection	NA	0
13	Single	53	53	53	5	0	0	60211	692	0	correct_rejection	NA	0
13	Single	54	54	54	8	0	0	60920	691	0	correct_rejection	NA	0
13	Single	55	55	55	4	0	0	61628	692	0	correct_rejection	NA	0
13	Single	56	56	56	5	0	0	62337	691	0	correct_rejection	NA	0
13	Single	57	57	57	4	0	0	63045	692	0	correct_rejection	NA	0
13	Single	58	58	58	8	0	0	63754	692	0	correct_rejection	NA	0
13	Single	59	59	59	7	0	0	64462	692	0	correct_rejection	NA	0
13	Single	60	60	60	7	0	0	65171	692	0	correct_rejection	NA	0
13	Single	61	61	61	6	0	0	65880	691	0	correct_rejection	NA	0
13	Single	62	62	62	8	0	0	66588	692	0	correct_rejection	NA	0
13	Single	63	63	63	9	0	0	67297	691	0	correct_rejection	NA	0
13	Single	64	64	64	7	0	0	68005	692	0	correct_rejection	NA	0
13	Single	65	65	65	9	0	0	68714	691	0	correct_rejection	NA	0
13	Single	66	66	66	5	0	0	69422	692	0	correct_rejection	NA	0
13	Single	67	67	67	5	0	0	70131	692	0	correct_rejection	NA	0
13	Single	68	68	68	7	0	0	70839	692	0	correct_rejection	NA	0
13	Single	69	69	69	4	0	0	71548	692	0	correct_rejection	NA	0
13	Single	70	70	70	6	0	0	72257	691	0	correct_rejection	NA	0
13	Single	71	71	71	4	0	0	72965	692	0	correct_rejection	NA	0
13	Single	72	72	72	0	1	1	73674	691	1	hit	332	0
13	Single	73	73	73	4	0	0	74382	692	0	correct_rejection	NA	0
13	Single	74	74	74	7	0	0	75091	692	0	correct_rejection	NA	0
13	Single	75	75	75	0	1	1	75799	692	1	hit	357	0
13	Single	76	76	76	8	0	0	76508	692	0	correct_rejection	NA	0
13	Single	77	77	77	5	0	0	77217	691	0	correct_rejection	NA	0
13	Single	78	78	78	9	0	0	77925	692	0	correct_rejection	NA	0
13	Single	79	79	79	9	0	0	78634	691	0	correct_rejection	NA	0
13	Single	80	80	80	4	0	0	79342	692	0	correct_rejection	NA	0
13	Single	81	81	81	9	0	0	80051	692	0	correct_rejection	NA	0
13	Single	82	82	82	0	1	1	80759	692	1	hit	318	0
13	Single	83	83	83	6	0	0	81468	692	0	correct_rejection	NA	0
13	Single	84	84	84	4	0	0	82177	691	0	correct_rejection	NA	0
13	Single	85	85	85	6	0	0	82885	692	0	correct_rejection	NA	0
13	Single	86	86	86	8	0	0	83594	691	0	correct_rejection	NA	0
13	Single	87	87	87	0	1	1	84302	692	1	hit	331	0
13	Single	88	88	88	8	0	0	85011	692	0	correct_rejection	NA	0
13	Single	89	89	89	5	0	0	85719	692	0	correct_rejection	NA	0
13	Single	90	90	90	7	0	0	86428	692	0	correct_rejection	NA	0
13	Single	91	91	91	8	0	0	87137	691	0	correct_rejection	NA	0
13	Single	92	92	92	6	0	0	87845	692	0	correct_rejection	NA	0
13	Single	93	93	93	7	0	0	88554	691	0	correct_rejection	NA	0
13	Single	94	94	94	9	0	0	89262	692	0	correct_rejection	NA	0
13	Single	95	95	95	8	0	0	89971	691	0	correct_rejection	NA	0
13	Single	96	96	96	7	0	0	90679	692	0	correct_rejection	NA	0
13	Single	97	97	97	6	0	0	91388	692	0	correct_rejection	NA	0
13	Single	98	98	98	9	0	0	92096	692	0	correct_rejection	NA	0
13	Single	99	99	99	0	1	1	92805	692	1	hit	372	0
13	Single	100	100	100	7	0	0	93514	691	0	correct_rejection	NA	0
13	Single	101	101	101	7	0	0	94222	692	0	correct_rejection	NA	0
13	Single	102	102	102	4	0	0	94931	691	0	correct_rejection	NA	0
13	Single	103	103	103	5	0	0	95639	692	0	correct_rejection	NA	0
13	Single	104	104	104	5	0	0	96348	692	0	correct_rejection	NA	0
13	Single	105	105	105	8	0	0	97056	692	0	correct_rejection	NA	0
13	Single	106	106	106	9	0	0	97765	692	0	correct_rejection	NA	0
13	Single	107	107	107	0	1	1	98474	691	1	hit	334	0
13	Single	108	108	108	9	0	0	99182	692	0	correct_rejection	NA	0
13	Single	109	109	109	4	0	0	99891	691	0	correct_rejection	NA	0
13	Single	110	110	110	0	1	1	100599	692	1	hit	366	0
13	Single	111	111	111	8	0	0	101308	692	0	correct_rejection	NA	0
13	Single	112	112	112	4	0	0	102016	692	0	correct_rejection	NA	0
13	Single	113	113	113	0	1	1	102725	692	1	hit	315	0
13	Single	114	114	114	7	0	0	103434	691	0	correct_rejection	NA	0
13	Single	115	115	115	5	0	0	104142	692	0	correct_rejection	NA	0
13	Single	116	116	116	9	0	0	104851	691	0	correct_rejection	NA	0
13	Single	117	117	117	5	0	0	105559	692	0	correct_rejection	NA	0
13	Single	118	118	118	6	0	0	106268	692	0	correct_rejection	NA	0
13	Single	119	119	119	6	0	0	106976	692	0	correct_rejection	NA	0
13	Single	120	120	120	5	0	0	107685	692	0	correct_rejection	NA	0
13	Single	121	121	121	0	1	1	108394	691	1	hit	341	0
13	Single	122	122	122	4	0	0	109102	692	0	correct_rejection	NA	0
13	Single	123	123	123	9	0	0	109811	691	0	correct_rejection	NA	0
13	Single	124	124	124	7	0	0	110519	692	0	correct_rejection	NA	0
13	Single	125	125	125	6	0	0	111228	691	0	correct_rejection	NA	0
13	Single	126	126	126	4	0	0	111936	692	0	correct_rejection	NA	0
13	Single	127	127	127	9	0	0	112645	692	0	correct_rejection	NA	0
13	Single	128	128	128	4	0	0	113354	691	0	correct_rejection	NA	0
13	Single	129	129	129	4	0	0	114062	692	0	correct_rejection	NA	0
13	Single	130	130	130	8	0	0	114771	691	0	correct_rejection	NA	0
13	Single	131	131	131	5	0	0	115479	692	0	correct_rejection	NA	0
13	Single	132	132	132	8	0	0	116188	691	0	correct_rejection	NA	0
13	Single	133	133	133	6	0	0	116896	692	0	correct_rejection	NA	0
13	Single	134	134	134	8	0	0	117605	692	0	correct_rejection	NA	0
13	Single	135	135	135	4	0	0	118313	692	0	correct_rejection	NA	0
13	Single	136	136	136	6	0	0	119022	692	0	correct_rejection	NA	0
13	Single	137	137	137	0	1	1	119731	691	1	hit	327	0
13	Single	138	138	138	6	0	0	120439	692	0	correct_rejection	NA	0
13	Single	139	139	139	9	0	0	121148	691	0	correct_rejection	NA	0
13	Single	140	140	140	5	0	0	121856	692	0	correct_rejection	NA	0
13	Single	141	141	141	4	0	0	122565	692	0	correct_rejection	NA	0
13	Single	142	142	142	5	0	0	123273	692	0	correct_rejection	NA	0
13	Single	143	143	143	0	1	1	123982	692	1	hit	446	0
13	Single	144	144	144	6	0	0	124691	691	0	correct_rejection	NA	0
13	Single	145	145	145	7	0	0	125399	692	0	correct_rejection	NA	0
13	Single	146	146	146	8	0	0	126108	691	0	correct_rejection	NA	0
13	Single	147	147	147	8	0	0	126816	692	0	correct_rejection	NA	0
13	Single	148	148	148	7	0	0	127525	692	0	correct_rejection	NA	0
13	Single	149	149	149	4	0	0	128233	692	0	correct_rejection	NA	0
13	Single	150	150	150	7	0	0	128942	692	0	correct_rejection	NA	0
13	Single	151	151	151	9	0	0	129651	691	0	correct_rejection	NA	0
13	Single	152	152	152	6	0	0	130359	692	0	correct_rejection	NA	0
13	Single	153	153	153	5	0	0	131068	691	0	correct_rejection	NA	0
13	Single	154	154	154	0	1	1	131776	692	1	hit	300	0
13	Single	155	155	155	7	0	0	132485	692	0	correct_rejection	NA	0
13	Single	156	156	156	7	0	0	133193	692	0	correct_rejection	NA	0
13	Single	157	157	157	0	1	1	133902	692	1	hit	322	0
13	Single	158	158	158	5	0	0	134611	691	0	correct_rejection	NA	0
13	Single	159	159	159	5	0	0	135319	692	0	correct_rejection	NA	0
13	Single	160	160	160	9	0	0	136028	691	0	correct_rejection	NA	0
13	Single	161	161	161	8	0	0	136736	692	0	correct_rejection	NA	0
13	Single	162	162	162	9	0	0	137445	691	0	correct_rejection	NA	0
13	Correct	1	1	163	4	0	0	146498	691	0	correct_rejection	NA	7099
13	Correct	2	2	164	5	0	0	147206	692	0	correct_rejection	NA	0
13	Correct	3	3	165	6	0	0	147915	692	0	correct_rejection	NA	0
13	Correct	4	4	166	0	1	2	148623	692	1	hit	311	0
13	Correct	5	5	167	4	0	0	149332	692	0	correct_rejection	NA	0
13	Correct	6	6	168	5	0	0	150041	691	0	correct_rejection	NA	0
13	Correct	7	7	169	6	0	0	150749	692	0	correct_rejection	NA	0
13	Correct	8	8	170	4	0	0	151458	691	0	correct_rejection	NA	0
13	Correct	9	9	171	5	0	0	152166	692	0	correct_rejection	NA	0
13	Correct	10	10	172	6	0	0	152875	692	0	correct_rejection	NA	0
13	Correct	11	11	173	0	1	3	153583	692	1	hit	295	0
13	Correct	12	12	174	6	0	0	154292	692	0	correct_rejection	NA	0
13	Correct	13	13	175	5	0	0	155001	691	0	correct_rejection	NA	0
13	Correct	14	14	176	4	0	0	155709	692	0	correct_rejection	NA	0
13	Correct	15	15	177	6	0	0	156418	691	0	correct_rejection	NA	0
13	Correct	16	16	178	0	1	1	157126	692	1	hit	332	0
13	Correct	17	17	179	5	0	0	157835	692	0	correct_rejection	NA	0
13	Correct	18	18	180	4	0	0	158543	692	0	correct_rejection	NA	0
13	Correct	19	19	181	6	0	0	159252	692	0	correct_rejection	NA	0
13	Correct	20	20	182	5	0	0	159961	691	0	correct_rejection	NA	0
13	Correct	21	21	183	4	0	0	160669	692	0	correct_rejection	NA	0
13	Correct	22	22	184	9	0	0	161378	691	0	correct_rejection	NA	0
13	Correct	23	23	185	8	0	0	162086	692	0	correct_rejection	NA	0
13	Correct	24	24	186	7	0	0	162795	691	0	correct_rejection	NA	0
13	Correct	25	25	187	9	0	0	163503	692	0	correct_rejection	NA	0
13	Correct	26	26	188	8	0	0	164212	692	0	correct_rejection	NA	0
13	Correct	27	27	189	7	0	0	164920	692	0	correct_rejection	NA	0
13	Correct	28	28	190	0	1	2	165629	692	1	hit	331	0
13	Correct	29	29	191	9	0	0	166338	691	0	correct_rejection	NA	0
13	Correct	30	30	192	8	0	0	167046	692	0	correct_rejection	NA	0
13	Correct	31	31	193	7	0	0	167755	691	0	correct_rejection	NA	0
13	Correct	32	32	194	7	0	0	168463	692	0	correct_rejection	NA	0
13	Correct	33	33	195	8	0	0	169172	692	0	correct_rejection	NA	0
13	Correct	34	34	196	9	0	0	169880	692	0	correct_rejection	NA	0
13	Correct	35	35	197	7	0	0	170589	692	0	correct_rejection	NA	0
13	Correct	36	36	198	8	0	0	171298	691	0	correct_rejection	NA	0
13	Correct	37	37	199	9	0	0	172006	692	0	correct_rejection	NA	0
13	Correct	38	38	200	7	0	0	172715	691	0	correct_rejection	NA	0
13	Correct	39	39	201	8	0	0	173423	692	0	correct_rejection	NA	0
13	Correct	40	40	202	9	0	0	174132	692	0	correct_rejection	NA	0
13	Correct	41	41	203	0	1	4	174840	692	1	hit	299	0
13	Correct	42	42	204	4	0	0	175549	692	0	correct_rejection	NA	0
13	Correct	43	43	205	5	0	0	176258	691	0	correct_rejection	NA	0
13	Correct	44	44	206	0	1	1	176966	692	1	hit	368	0
13	Correct	45	45	207	6	0	0	177675	691	0	correct_rejection	NA	0
13	Correct	46	46	208	4	0	0	178383	692	0	correct_rejection	NA	0
13	Correct	47	47	209	5	0	0	179092	692	0	correct_rejection	NA	0
13	Correct	48	48	210	6	0	0	179800	692	0	correct_rejection	NA	0
13	Correct	49	49	211	4	0	0	180509	692	0	correct_rejection	NA	0
13	Correct	50	50	212	5	0	0	181218	691	0	correct_rejection	NA	0
13	Correct	51	51	213	6	0	0	181926	692	0	correct_rejection	NA	0
13	Correct	52	52	214	6	0	0	182635	691	0	correct_rejection	NA	0
13	Correct	53	53	215	5	0	0	183343	692	0	correct_rejection	NA	0
13	Correct	54	54	216	4	0	0	184052	691	0	correct_rejection	NA	0
13	Correct	55	55	217	6	0	0	184760	692	0	correct_rejection	NA	0
13	Correct	56	56	218	5	0	0	185469	692	0	correct_rejection	NA	0
13	Correct	57	57	219	4	0	0	186178	691	0	correct_rejection	NA	0
13	Correct	58	58	220	6	0	0	186886	692	0	correct_rejection	NA	0
13	Correct	59	59	221	5	0	0	187595	691	0	correct_rejection	NA	0
13	Correct	60	60	222	4	0	0	188303	692	0	correct_rejection	NA	0
13	Correct	61	61	223	9	0	0	189012	691	0	correct_rejection	NA	0
13	Correct	62	62	224	8	0	0	189720	692	0	correct_rejection	NA	0
13	Correct	63	63	225	7	0	0	190429	692	0	correct_rejection	NA	0
13	Correct	64	64	226	9	0	0	191137	692	0	correct_rejection	NA	0
13	Correct	65	65	227	8	0	0	191846	692	0	correct_rejection	NA	0
13	Correct	66	66	228	7	0	0	192555	691	0	correct_rejection	NA	0
13	Correct	67	67	229	9	0	0	193263	692	0	correct_rejection	NA	0
13	Correct	68	68	230	8	0	0	193972	691	0	correct_rejection	NA	0
13	Correct	69	69	231	7	0	0	194680	692	0	correct_rejection	NA	0
13	Correct	70	70	232	7	0	0	195389	692	0	correct_rejection	NA	0
13	Correct	71	71	233	8	0	0	196097	692	0	correct_rejection	NA	0
13	Correct	72	72	234	9	0	0	196806	692	0	correct_rejection	NA	0
13	Correct	73	73	235	7	0	0	197515	691	0	correct_rejection	NA	0
13	Correct	74	74	236	8	0	0	198223	692	0	correct_rejection	NA	0
13	Correct	75	75	237	9	0	0	198932	691	0	correct_rejection	NA	0
13	Correct	76	76	238	7	0	0	199640	692	0	correct_rejection	NA	0
13	Correct	77	77	239	8	0	0	200349	692	0	correct_rejection	NA	0
13	Correct	78	78	240	9	0	0	201057	692	0	correct_rejection	NA	0
13	Correct	79	79	241	4	0	0	201766	692	0	correct_rejection	NA	0
13	Correct	80	80	242	0	1	1	202475	691	1	hit	347	0
13	Correct	81	81	243	5	0	0	203183	692	0	correct_rejection	NA	0
13	Correct	82	82	244	6	0	0	203892	691	0	correct_rejection	NA	0
13	Correct	83	83	245	4	0	0	204600	692	0	correct_rejection	NA	0
13	Correct	84	84	246	5	0	0	205309	692	0	correct_rejection	NA	0
13	Correct	85	85	247	6	0	0	206017	692	0	correct_rejection	NA	0
13	Correct	86	86	248	4	0	0	206726	692	0	correct_rejection	NA	0
13	Correct	87	87	249	0	1	1	207435	691	1	hit	327	0
13	Correct	88	88	250	5	0	0	208143	692	0	correct_rejection	NA	0
13	Correct	89	89	251	6	0	0	208852	691	0	correct_rejection	NA	0
13	Correct	90	90	252	6	0	0	209560	692	0	correct_rejection	NA	0
13	Correct	91	91	253	5	0	0	210269	691	0	correct_rejection	NA	0
13	Correct	92	92	254	0	1	1	210977	692	1	hit	324	0
13	Correct	93	93	255	4	0	0	211686	692	0	correct_rejection	NA	0
13	Correct	94	94	256	6	0	0	212394	692	0	correct_rejection	NA	0
13	Correct	95	95	257	5	0	0	213103	692	0	correct_rejection	NA	0
13	Correct	96	96	258	0	1	1	213812	691	1	hit	344	0
13	Correct	97	97	259	4	0	0	214520	692	0	correct_rejection	NA	0
13	Correct	98	98	260	6	0	0	215229	691	0	correct_rejection	NA	0
13	Correct	99	99	261	5	0	0	215937	692	0	correct_rejection	NA	0
13	Correct	100	100	262	4	0	0	216646	692	0	correct_rejection	NA	0
13	Correct	101	101	263	9	0	0	217354	692	0	correct_rejection	NA	0
13	Correct	102	102	264	0	1	1	218063	692	1	hit	344	0
13	Correct	103	103	265	8	0	0	218772	691	0	correct_rejection	NA	0
13	Correct	104	104	266	7	0	0	219480	692	0	correct_rejection	NA	0
13	Correct	105	105	267	9	0	0	220189	691	0	correct_rejection	NA	0
13	Correct	106	106	268	8	0	0	220897	692	0	correct_rejection	NA	0
13	Correct	107	107	269	7	0	0	221606	692	0	correct_rejection	NA	0
13	Correct	108	108	270	9	0	0	222314	692	0	correct_rejection	NA	0
13	Correct	109	109	271	8	0	0	223023	692	0	correct_rejection	NA	0
13	Correct	110	110	272	0	1	1	223732	691	1	hit	371	0
13	Correct	111	111	273	7	0	0	224440	692	0	correct_rejection	NA	0
13	Correct	112	112	274	7	0	0	225149	691	0	correct_rejection	NA	0
13	Correct	113	113	275	8	0	0	225857	692	0	correct_rejection	NA	0
13	Correct	114	114	276	9	0	0	226566	692	0	correct_rejection	NA	0
13	Correct	115	115	277	7	0	0	227274	692	0	correct_rejection	NA	0
13	Correct	116	116	278	8	0	0	227983	692	0	correct_rejection	NA	0
13	Correct	117	117	279	9	0	0	228692	691	0	correct_rejection	NA	0
13	Correct	118	118	280	7	0	0	229400	692	0	correct_rejection	NA	0
13	Correct	119	119	281	8	0	0	230109	691	0	correct_rejection	NA	0
13	Correct	120	120	282	0	1	1	230817	692	1	hit	299	0
13	Correct	121	121	283	9	0	0	231526	691	0	correct_rejection	NA	0
13	Correct	122	122	284	4	0	0	232234	692	0	correct_rejection	NA	0
13	Correct	123	123	285	5	0	0	232943	692	0	correct_rejection	NA	0
13	Correct	124	124	286	6	0	0	233651	692	0	correct_rejection	NA	0
13	Correct	125	125	287	4	0	0	234360	692	0	correct_rejection	NA	0
13	Correct	126	126	288	5	0	0	235069	691	0	correct_rejection	NA	0
13	Correct	127	127	289	6	0	0	235777	692	0	correct_rejection	NA	0
13	Correct	128	128	290	4	0	0	236486	691	0	correct_rejection	NA	0
13	Correct	129	129	291	5	0	0	237194	692	0	correct_rejection	NA	0
13	Correct	130	130	292	0	1	1	237903	692	1	hit	302	0
13	Correct	131	131	293	6	0	0	238611	692	0	correct_rejection	NA	0
13	Correct	132	132	294	6	0	0	239320	692	0	correct_rejection	NA	0
13	Correct	133	133	295	0	1	1	240029	691	1	hit	460	0
13	Correct	134	134	296	5	0	0	240737	692	0	correct_rejection	NA	0
13	Correct	135	135	297	4	0	0	241446	691	0	correct_rejection	NA	0
13	Correct	136	136	298	6	0	0	242154	692	0	correct_rejection	NA	0
13	Correct	137	137	299	5	0	0	242863	692	0	correct_rejection	NA	0
13	Correct	138	138	300	4	0	0	243571	692	0	correct_rejection	NA	0
13	Correct	139	139	301	0	1	2	244280	692	1	hit	310	0
13	Correct	140	140	302	6	0	0	244989	691	0	correct_rejection	NA	0
13	Correct	141	141	303	5	0	0	245697	692	0	correct_rejection	NA	0
13	Correct	142	142	304	4	0	0	246406	691	0	correct_rejection	NA	0
13	Correct	143	143	305	9	0	0	247114	692	0	correct_rejection	NA	0
13	Correct	144	144	306	8	0	0	247823	692	0	correct_rejection	NA	0
13	Correct	145	145	307	7	0	0	248531	692	0	correct_rejection	NA	0
13	Correct	146	146	308	9	0	0	249240	692	0	correct_rejection	NA	0
13	Correct	147	147	309	8	0	0	249949	691	0	correct_rejection	NA	0
13	Correct	148	148	310	7	0	0	250657	692	0	correct_rejection	NA	0
13	Correct	149	149	311	9	0	0	251366	691	0	correct_rejection	NA	0
13	Correct	150	150	312	0	1	1	252074	692	1	hit	318	0
13	Correct	151	151	313	8	0	0	252783	691	0	correct_rejection	NA	0
13	Correct	152	152	314	7	0	0	253491	692	0	correct_rejection	NA	0
13	Correct	153	153	315	7	0	0	254200	692	0	correct_rejection	NA	0
13	Correct	154	154	316	8	0	0	254908	692	0	correct_rejection	NA	0
13	Correct	155	155	317	9	0	0	255617	692	0	correct_rejection	NA	0
13	Correct	156	156	318	0	1	2	256326	691	1	hit	305	0
13	Correct	157	157	319	7	0	0	257034	692	0	correct_rejection	NA	0
13	Correct	158	158	320	8	0	0	257743	691	0	correct_rejection	NA	0
13	Correct	159	159	321	9	0	0	258451	692	0	correct_rejection	NA	0
13	Correct	160	160	322	7	0	0	259160	692	0	correct_rejection	NA	0
13	Correct	161	161	323	8	0	0	259868	692	0	correct_rejection	NA	0
13	Correct	162	162	324	9	0	0	260577	692	0	correct_rejection	NA	0
13	Single	1	487	325	7	0	0	269538	692	0	correct_rejection	NA	7148
13	Single	2	488	326	4	0	0	270247	692	0	correct_rejection	NA	0
13	Single	3	489	327	5	0	0	270955	692	0	correct_rejection	NA	0
13	Single	4	490	328	0	1	1	271664	692	1	hit	274	0
13	Single	5	491	329	5	0	0	272373	691	0	correct_rejection	NA	0
13	Single	6	492	330	7	0	0	273081	692	0	correct_rejection	NA	0
13	Single	7	493	331	6	0	0	273790	691	0	correct_rejection	NA	0
13	Single	8	494	332	4	0	0	274498	692	0	correct_rejection	NA	0
13	Single	9	495	333	9	0	0	275207	692	0	correct_rejection	NA	0
13	Single	10	496	334	0	1	1	275915	692	1	hit	321	0
13	Single	11	497	335	5	0	0	276624	692	0	correct_rejection	NA	0
13	Single	12	498	336	9	0	0	277333	691	0	correct_rejection	NA	0
13	Single	13	499	337	0	1	1	278041	692	1	hit	290	0
13	Single	14	500	338	4	0	0	278750	691	0	correct_rejection	NA	0
13	Single	15	501	339	8	0	0	279458	692	0	correct_rejection	NA	0
13	Single	16	502	340	5	0	0	280167	692	0	correct_rejection	NA	0
13	Single	17	503	341	8	0	0	280875	692	0	correct_rejection	NA	0
13	Single	18	504	342	4	0	0	281584	692	0	correct_rejection	NA	0
13	Single	19	505	343	7	0	0	282293	691	0	correct_rejection	NA	0
13	Single	20	506	344	8	0	0	283001	692	0	correct_rejection	NA	0
13	Single	21	507	345	6	0	0	283710	691	0	correct_rejection	NA	0
13	Single	22	508	346	8	0	0	284418	692	0	correct_rejection	NA	0
13	Single	23	509	347	9	0	0	285127	691	0	correct_rejection	NA	0
13	Single	24	510	348	7	0	0	285835	692	0	correct_rejection	NA	0
13	Single	25	511	349	0	1	1	286544	692	1	hit	356	0
13	Single	26	512	350	5	0	0	287252	692	0	correct_rejection	NA	0
13	Single	27	513	351	6	0	0	287961	692	0	correct_rejection	NA	0
13	Single	28	514	352	9	0	0	288670	691	0	correct_rejection	NA	0
13	Single	29	515	353	6	0	0	289378	692	0	correct_rejection	NA	0
13	Single	30	516	354	6	0	0	290087	691	0	correct_rejection	NA	0
13	Single	31	517	355	5	0	0	290795	692	0	correct_rejection	NA	0
13	Single	32	518	356	4	0	0	291504	692	0	correct_rejection	NA	0
13	Single	33	519	357	4	0	0	292212	692	0	correct_rejection	NA	0
13	Single	34	520	358	0	1	1	292921	692	1	hit	338	0
13	Single	35	521	359	6	0	0	293630	691	0	correct_rejection	NA	0
13	Single	36	522	360	7	0	0	294338	692	0	correct_rejection	NA	0
13	Single	37	523	361	7	0	0	295047	691	0	correct_rejection	NA	0
13	Single	38	524	362	9	0	0	295755	692	0	correct_rejection	NA	0
13	Single	39	525	363	9	0	0	296464	692	0	correct_rejection	NA	0
13	Single	40	526	364	8	0	0	297172	692	0	correct_rejection	NA	0
13	Single	41	527	365	8	0	0	297881	692	0	correct_rejection	NA	0
13	Single	42	528	366	5	0	0	298590	691	0	correct_rejection	NA	0
13	Single	43	529	367	9	0	0	299298	692	0	correct_rejection	NA	0
13	Single	44	530	368	9	0	0	300007	691	0	correct_rejection	NA	0
13	Single	45	531	369	7	0	0	300715	692	0	correct_rejection	NA	0
13	Single	46	532	370	0	1	1	301424	692	1	hit	339	0
13	Single	47	533	371	9	0	0	302132	692	0	correct_rejection	NA	0
13	Single	48	534	372	5	0	0	302841	692	0	correct_rejection	NA	0
13	Single	49	535	373	5	0	0	303550	691	0	correct_rejection	NA	0
13	Single	50	536	374	0	1	1	304258	692	1	hit	414	0
13	Single	51	537	375	8	0	0	304967	691	0	correct_rejection	NA	0
13	Single	52	538	376	7	0	0	305675	692	0	correct_rejection	NA	0
13	Single	53	539	377	5	0	0	306384	691	0	correct_rejection	NA	0
13	Single	54	540	378	4	0	0	307092	692	0	correct_rejection	NA	0
13	Single	55	541	379	5	0	0	307801	692	0	correct_rejection	NA	0
13	Single	56	542	380	7	0	0	308509	692	0	correct_rejection	NA	0
13	Single	57	543	381	7	0	0	309218	692	0	correct_rejection	NA	0
13	Single	58	544	382	4	0	0	309927	691	0	correct_rejection	NA	0
13	Single	59	545	383	9	0	0	310635	692	0	correct_rejection	NA	0
13	Single	60	546	384	6	0	0	311344	691	0	correct_rejection	NA	0
13	Single	61	547	385	7	0	0	312052	692	0	correct_rejection	NA	0
13	Single	62	548	386	8	0	0	312761	692	0	correct_rejection	NA	0
13	Single	63	549	387	4	0	0	313469	692	0	correct_rejection	NA	0
13	Single	64	550	388	6	0	0	314178	692	0	correct_rejection	NA	0
13	Single	65	551	389	5	0	0	314887	691	0	correct_rejection	NA	0
13	Single	66	552	390	6	0	0	315595	692	0	correct_rejection	NA	0
13	Single	67	553	391	6	0	0	316304	691	0	correct_rejection	NA	0
13	Single	68	554	392	9	0	0	317012	692	0	correct_rejection	NA	0
13	Single	69	555	393	8	0	0	317721	692	0	correct_rejection	NA	0
13	Single	70	556	394	9	0	0	318429	692	0	correct_rejection	NA	0
13	Single	71	557	395	4	0	0	319138	692	0	correct_rejection	NA	0
13	Single	72	558	396	4	0	0	319847	691	0	correct_rejection	NA	0
13	Single	73	559	397	8	0	0	320555	692	0	correct_rejection	NA	0
13	Single	74	560	398	6	0	0	321264	691	0	correct_rejection	NA	0
13	Single	75	561	399	4	0	0	321972	692	0	correct_rejection	NA	0
13	Single	76	562	400	7	0	0	322681	692	0	correct_rejection	NA	0
13	Single	77	563	401	6	0	0	323389	692	0	correct_rejection	NA	0
13	Single	78	564	402	8	0	0	324098	692	0	correct_rejection	NA	0
13	Single	79	565	403	8	0	0	324807	691	0	correct_rejection	NA	0
13	Single	80	566	404	4	0	0	325515	692	0	correct_rejection	NA	0
13	Single	81	567	405	7	0	0	326224	691	0	correct_rejection	NA	0
13	Single	82	568	406	5	0	0	326932	692	0	correct_rejection	NA	0
13	Single	83	569	407	5	0	0	327641	691	0	correct_rejection	NA	0
13	Single	84	570	408	4	0	0	328349	692	0	correct_rejection	NA	0
13	Single	85	571	409	0	1	1	329058	692	1	hit	351	0
13	Single	86	572	410	8	0	0	329766	692	0	correct_rejection	NA	0
13	Single	87	573	411	9	0	0	330475	692	0	correct_rejection	NA	0
13	Single	88	574	412	0	1	1	331184	691	1	hit	418	0
13	Single	89	575	413	6	0	0	331892	692	0	correct_rejection	NA	0
13	Single	90	576	414	9	0	0	332601	691	0	correct_rejection	NA	0
13	Single	91	577	415	9	0	0	333309	692	0	correct_rejection	NA	0
13	Single	92	578	416	5	0	0	334018	692	0	correct_rejection	NA	0
13	Single	93	579	417	8	0	0	334726	692	0	correct_rejection	NA	0
13	Single	94	580	418	5	0	0	335435	692	0	correct_rejection	NA	0
13	Single	95	581	419	6	0	0	336144	691	0	correct_rejection	NA	0
13	Single	96	582	420	7	0	0	336852	692	0	correct_rejection	NA	0
13	Single	97	583	421	9	0	0	337561	691	0	correct_rejection	NA	0
13	Single	98	584	422	4	0	0	338269	692	0	correct_rejection	NA	0
13	Single	99	585	423	6	0	0	338978	692	0	correct_rejection	NA	0
13	Single	100	586	424	8	0	0	339686	692	0	correct_rejection	NA	0
13	Single	101	587	425	0	1	1	340395	692	1	hit	380	0
13	Single	102	588	426	4	0	0	341104	691	0	correct_rejection	NA	0
13	Single	103	589	427	5	0	0	341812	692	0	correct_rejection	NA	0
13	Single	104	590	428	9	0	0	342521	691	0	correct_rejection	NA	0
13	Single	105	591	429	8	0	0	343229	692	0	correct_rejection	NA	0
13	Single	106	592	430	7	0	0	343938	692	0	correct_rejection	NA	0
13	Single	107	593	431	0	1	1	344646	692	1	hit	349	0
13	Single	108	594	432	6	0	0	345355	692	0	correct_rejection	NA	0
13	Single	109	595	433	6	0	0	346064	691	0	correct_rejection	NA	0
13	Single	110	596	434	4	0	0	346772	692	0	correct_rejection	NA	0
13	Single	111	597	435	0	1	1	347481	691	1	hit	338	0
13	Single	112	598	436	4	0	0	348189	692	0	correct_rejection	NA	0
13	Single	113	599	437	9	0	0	348898	691	0	correct_rejection	NA	0
13	Single	114	600	438	7	0	0	349606	692	0	correct_rejection	NA	0
13	Single	115	601	439	7	0	0	350315	692	0	correct_rejection	NA	0
13	Single	116	602	440	0	1	1	351024	691	1	hit	350	0
13	Single	117	603	441	8	0	0	351732	692	0	correct_rejection	NA	0
13	Single	118	604	442	8	0	0	352441	691	0	correct_rejection	NA	0
13	Single	119	605	443	6	0	0	353149	692	0	correct_rejection	NA	0
13	Single	120	606	444	5	0	0	353858	691	0	correct_rejection	NA	0
13	Single	121	607	445	7	0	0	354566	692	0	correct_rejection	NA	0
13	Single	122	608	446	0	1	1	355275	692	1	hit	317	0
13	Single	123	609	447	7	0	0	355983	692	0	correct_rejection	NA	0
13	Single	124	610	448	8	0	0	356692	692	0	correct_rejection	NA	0
13	Single	125	611	449	5	0	0	357401	691	0	correct_rejection	NA	0
13	Single	126	612	450	0	1	1	358109	692	1	hit	326	0
13	Single	127	613	451	7	0	0	358818	691	0	correct_rejection	NA	0
13	Single	128	614	452	6	0	0	359526	692	0	correct_rejection	NA	0
13	Single	129	615	453	4	0	0	360235	692	0	correct_rejection	NA	0
13	Single	130	616	454	5	0	0	360943	692	0	correct_rejection	NA	0
13	Single	131	617	455	5	0	0	361652	692	0	correct_rejection	NA	0
13	Single	132	618	456	6	0	0	362361	691	0	correct_rejection	NA	0
13	Single	133	619	457	8	0	0	363069	692	0	correct_rejection	NA	0
13	Single	134	620	458	0	1	1	363778	691	1	hit	307	0
13	Single	135	621	459	6	0	0	364486	692	0	correct_rejection	NA	0
13	Single	136	622	460	9	0	0	365195	692	0	correct_rejection	NA	0
13	Single	137	623	461	4	0	0	365903	692	0	correct_rejection	NA	0
13	Single	138	624	462	8	0	0	366612	692	0	correct_rejection	NA	0
13	Single	139	625	463	7	0	0	367321	691	0	correct_rejection	NA	0
13	Single	140	626	464	0	1	1	368029	692	1	hit	343	0
13	Single	141	627	465	4	0	0	368738	691	0	correct_rejection	NA	0
13	Single	142	628	466	6	0	0	369446	692	0	correct_rejection	NA	0
13	Single	143	629	467	6	0	0	370155	692	0	correct_rejection	NA	0
13	Single	144	630	468	7	0	0	370863	692	0	correct_rejection	NA	0
13	Single	145	631	469	5	0	0	371572	692	0	correct_rejection	NA	0
13	Single	146	632	470	8	0	0	372281	691	0	correct_rejection	NA	0
13	Single	147	633	471	9	0	0	372989	692	0	correct_rejection	NA	0
13	Single	148	634	472	8	0	0	373698	691	0	correct_rejection	NA	0
13	Single	149	635	473	8	0	0	374406	692	0	correct_rejection	NA	0
13	Single	150	636	474	4	0	0	375115	691	0	correct_rejection	NA	0
13	Single	151	637	475	9	0	0	375823	692	0	correct_rejection	NA	0
13	Single	152	638	476	5	0	0	376532	692	0	correct_rejection	NA	0
13	Single	153	639	477	4	0	0	377240	692	0	correct_rejection	NA	0
13	Single	154	640	478	4	0	0	377949	692	0	correct_rejection	NA	0
13	Single	155	641	479	7	0	0	378658	691	0	correct_rejection	NA	0
13	Single	156	642	480	9	0	0	379366	692	0	correct_rejection	NA	0
13	Single	157	643	481	9	0	0	380075	691	0	correct_rejection	NA	0
13	Single	158	644	482	6	0	0	380783	692	0	correct_rejection	NA	0
13	Single	159	645	483	5	0	0	381492	692	0	correct_rejection	NA	0
13	Single	160	646	484	0	1	1	382200	692	1	hit	343	0
13	Single	161	647	485	9	0	0	382909	692	0	correct_rejection	NA	0
13	Single	162	648	486	7	0	0	383618	691	0	correct_rejection	NA	0
13	Triplet	1	487	487	6	0	0	392612	692	0	correct_rejection	NA	7218
13	Triplet	2	488	488	5	0	0	393321	691	0	correct_rejection	NA	0
13	Triplet	3	489	489	4	0	0	394029	692	0	correct_rejection	NA	0
13	Triplet	4	490	490	4	0	0	394738	692	0	correct_rejection	NA	0
13	Triplet	5	491	491	5	0	0	395446	692	0	correct_rejection	NA	0
13	Triplet	6	492	492	6	0	0	396155	692	0	correct_rejection	NA	0
13	Triplet	7	493	493	9	0	0	396864	691	0	correct_rejection	NA	0
13	Triplet	8	494	494	8	0	0	397572	692	0	correct_rejection	NA	0
13	Triplet	9	495	495	7	0	0	398281	691	0	correct_rejection	NA	0
13	Triplet	10	496	496	0	1	2	398989	692	1	hit	350	0
13	Triplet	11	497	497	4	0	0	399698	692	0	correct_rejection	NA	0
13	Triplet	12	498	498	5	0	0	400406	692	0	correct_rejection	NA	0
13	Triplet	13	499	499	0	1	1	401115	692	1	hit	311	0
13	Triplet	14	500	500	6	0	0	401824	691	0	correct_rejection	NA	0
13	Triplet	15	501	501	6	0	0	402532	692	0	correct_rejection	NA	0
13	Triplet	16	502	502	5	0	0	403241	691	0	correct_rejection	NA	0
13	Triplet	17	503	503	0	1	1	403949	692	1	hit	347	0
13	Triplet	18	504	504	4	0	0	404658	692	0	correct_rejection	NA	0
13	Triplet	19	505	505	6	0	0	405366	692	0	correct_rejection	NA	0
13	Triplet	20	506	506	5	0	0	406075	692	0	correct_rejection	NA	0
13	Triplet	21	507	507	4	0	0	406784	691	0	correct_rejection	NA	0
13	Triplet	22	508	508	7	0	0	407492	692	0	correct_rejection	NA	0
13	Triplet	23	509	509	0	1	1	408201	691	1	hit	333	0
13	Triplet	24	510	510	8	0	0	408909	692	0	correct_rejection	NA	0
13	Triplet	25	511	511	9	0	0	409618	692	0	correct_rejection	NA	0
13	Triplet	26	512	512	6	0	0	410326	692	0	correct_rejection	NA	0
13	Triplet	27	513	513	0	1	1	411035	692	1	hit	328	0
13	Triplet	28	514	514	5	0	0	411744	691	0	correct_rejection	NA	0
13	Triplet	29	515	515	4	0	0	412452	692	0	correct_rejection	NA	0
13	Triplet	30	516	516	9	0	0	413161	691	0	correct_rejection	NA	0
13	Triplet	31	517	517	0	1	1	413869	692	1	hit	361	0
13	Triplet	32	518	518	8	0	0	414578	691	0	correct_rejection	NA	0
13	Triplet	33	519	519	7	0	0	415286	692	0	correct_rejection	NA	0
13	Triplet	34	520	520	9	0	0	415995	692	0	correct_rejection	NA	0
13	Triplet	35	521	521	8	0	0	416703	692	0	correct_rejection	NA	0
13	Triplet	36	522	522	0	1	1	417412	692	1	hit	325	0
13	Triplet	37	523	523	7	0	0	418121	691	0	correct_rejection	NA	0
13	Triplet	38	524	524	7	0	0	418829	692	0	correct_rejection	NA	0
13	Triplet	39	525	525	8	0	0	419538	691	0	correct_rejection	NA	0
13	Triplet	40	526	526	9	0	0	420246	692	0	correct_rejection	NA	0
13	Triplet	41	527	527	0	1	2	420955	692	1	hit	318	0
13	Triplet	42	528	528	4	0	0	421663	692	0	correct_rejection	NA	0
13	Triplet	43	529	529	5	0	0	422372	692	0	correct_rejection	NA	0
13	Triplet	44	530	530	6	0	0	423081	691	0	correct_rejection	NA	0
13	Triplet	45	531	531	4	0	0	423789	692	0	correct_rejection	NA	0
13	Triplet	46	532	532	5	0	0	424498	691	0	correct_rejection	NA	0
13	Triplet	47	533	533	6	0	0	425206	692	0	correct_rejection	NA	0
13	Triplet	48	534	534	7	0	0	425915	692	0	correct_rejection	NA	0
13	Triplet	49	535	535	8	0	0	426623	692	0	correct_rejection	NA	0
13	Triplet	50	536	536	9	0	0	427332	692	0	correct_rejection	NA	0
13	Triplet	51	537	537	7	0	0	428041	691	0	correct_rejection	NA	0
13	Triplet	52	538	538	8	0	0	428749	692	0	correct_rejection	NA	0
13	Triplet	53	539	539	0	1	1	429458	691	1	hit	305	0
13	Triplet	54	540	540	9	0	0	430166	692	0	correct_rejection	NA	0
13	Triplet	55	541	541	9	0	0	430875	692	0	correct_rejection	NA	0
13	Triplet	56	542	542	8	0	0	431583	692	0	correct_rejection	NA	0
13	Triplet	57	543	543	7	0	0	432292	692	0	correct_rejection	NA	0
13	Triplet	58	544	544	4	0	0	433001	691	0	correct_rejection	NA	0
13	Triplet	59	545	545	5	0	0	433709	692	0	correct_rejection	NA	0
13	Triplet	60	546	546	0	1	1	434418	691	1	hit	342	0
13	Triplet	61	547	547	6	0	0	435126	692	0	correct_rejection	NA	0
13	Triplet	62	548	548	7	0	0	435835	691	0	correct_rejection	NA	0
13	Triplet	63	549	549	8	0	0	436543	692	0	correct_rejection	NA	0
13	Triplet	64	550	550	9	0	0	437252	692	0	correct_rejection	NA	0
13	Triplet	65	551	551	6	0	0	437960	692	0	correct_rejection	NA	0
13	Triplet	66	552	552	0	1	1	438669	692	1	hit	358	0
13	Triplet	67	553	553	5	0	0	439378	691	0	correct_rejection	NA	0
13	Triplet	68	554	554	4	0	0	440086	692	0	correct_rejection	NA	0
13	Triplet	69	555	555	6	0	0	440795	691	0	correct_rejection	NA	0
13	Triplet	70	556	556	5	0	0	441503	692	0	correct_rejection	NA	0
13	Triplet	71	557	557	4	0	0	442212	692	0	correct_rejection	NA	0
13	Triplet	72	558	558	4	0	0	442920	692	0	correct_rejection	NA	0
13	Triplet	73	559	559	5	0	0	443629	692	0	correct_rejection	NA	0
13	Triplet	74	560	560	6	0	0	444338	691	0	correct_rejection	NA	0
13	Triplet	75	561	561	4	0	0	445046	692	0	correct_rejection	NA	0
13	Triplet	76	562	562	5	0	0	445755	691	0	correct_rejection	NA	0
13	Triplet	77	563	563	6	0	0	446463	692	0	correct_rejection	NA	0
13	Triplet	78	564	564	0	1	2	447172	692	1	hit	338	0
13	Triplet	79	565	565	6	0	0	447880	692	0	correct_rejection	NA	0
13	Triplet	80	566	566	5	0	0	448589	692	0	correct_rejection	NA	0
13	Triplet	81	567	567	4	0	0	449298	691	0	correct_rejection	NA	0
13	Triplet	82	568	568	7	0	0	450006	692	0	correct_rejection	NA	0
13	Triplet	83	569	569	0	1	1	450715	691	1	hit	338	0
13	Triplet	84	570	570	8	0	0	451423	692	0	correct_rejection	NA	0
13	Triplet	85	571	571	9	0	0	452132	692	0	correct_rejection	NA	0
13	Triplet	86	572	572	0	1	2	452840	692	1	hit	376	0
13	Triplet	87	573	573	9	0	0	453549	692	0	correct_rejection	NA	0
13	Triplet	88	574	574	8	0	0	454258	691	0	correct_rejection	NA	0
13	Triplet	89	575	575	0	1	1	454966	692	1	hit	325	0
13	Triplet	90	576	576	7	0	0	455675	691	0	correct_rejection	NA	0
13	Triplet	91	577	577	4	0	0	456383	692	0	correct_rejection	NA	0
13	Triplet	92	578	578	5	0	0	457092	691	0	correct_rejection	NA	0
13	Triplet	93	579	579	6	0	0	457800	692	0	correct_rejection	NA	0
13	Triplet	94	580	580	9	0	0	458509	692	0	correct_rejection	NA	0
13	Triplet	95	581	581	8	0	0	459217	692	0	correct_rejection	NA	0
13	Triplet	96	582	582	7	0	0	459926	692	0	correct_rejection	NA	0
13	Triplet	97	583	583	9	0	0	460635	691	0	correct_rejection	NA	0
13	Triplet	98	584	584	8	0	0	461343	692	0	correct_rejection	NA	0
13	Triplet	99	585	585	0	1	1	462052	691	1	hit	341	0
13	Triplet	100	586	586	7	0	0	462760	692	0	correct_rejection	NA	0
13	Triplet	101	587	587	6	0	0	463469	692	0	correct_rejection	NA	0
13	Triplet	102	588	588	5	0	0	464177	692	0	correct_rejection	NA	0
13	Triplet	103	589	589	4	0	0	464886	692	0	correct_rejection	NA	0
13	Triplet	104	590	590	9	0	0	465595	691	0	correct_rejection	NA	0
13	Triplet	105	591	591	8	0	0	466303	692	0	correct_rejection	NA	0
13	Triplet	106	592	592	7	0	0	467012	691	0	correct_rejection	NA	0
13	Triplet	107	593	593	7	0	0	467720	692	0	correct_rejection	NA	0
13	Triplet	108	594	594	8	0	0	468429	692	0	correct_rejection	NA	0
13	Triplet	109	595	595	9	0	0	469137	692	0	correct_rejection	NA	0
13	Triplet	110	596	596	7	0	0	469846	692	0	correct_rejection	NA	0
13	Triplet	111	597	597	8	0	0	470555	691	0	correct_rejection	NA	0
13	Triplet	112	598	598	9	0	0	471263	692	0	correct_rejection	NA	0
13	Triplet	113	599	599	6	0	0	471972	691	0	correct_rejection	NA	0
13	Triplet	114	600	600	5	0	0	472680	692	0	correct_rejection	NA	0
13	Triplet	115	601	601	4	0	0	473389	692	0	correct_rejection	NA	0
13	Triplet	116	602	602	0	1	2	474097	692	1	hit	306	0
13	Triplet	117	603	603	9	0	0	474806	692	0	correct_rejection	NA	0
13	Triplet	118	604	604	8	0	0	475515	691	0	correct_rejection	NA	0
13	Triplet	119	605	605	7	0	0	476223	692	0	correct_rejection	NA	0
13	Triplet	120	606	606	6	0	0	476932	691	0	correct_rejection	NA	0
13	Triplet	121	607	607	5	0	0	477640	692	0	correct_rejection	NA	0
13	Triplet	122	608	608	4	0	0	478349	691	0	correct_rejection	NA	0
13	Triplet	123	609	609	7	0	0	479057	692	0	correct_rejection	NA	0
13	Triplet	124	610	610	8	0	0	479766	692	0	correct_rejection	NA	0
13	Triplet	125	611	611	9	0	0	480475	691	0	correct_rejection	NA	0
13	Triplet	126	612	612	7	0	0	481183	692	0	correct_rejection	NA	0
13	Triplet	127	613	613	8	0	0	481892	691	0	correct_rejection	NA	0
13	Triplet	128	614	614	9	0	0	482600	692	0	correct_rejection	NA	0
13	Triplet	129	615	615	4	0	0	483309	691	0	correct_rejection	NA	0
13	Triplet	130	616	616	5	0	0	484017	692	0	correct_rejection	NA	0
13	Triplet	131	617	617	6	0	0	484726	692	0	correct_rejection	NA	0
13	Triplet	132	618	618	6	0	0	485434	692	0	correct_rejection	NA	0
13	Triplet	133	619	619	5	0	0	486143	692	0	correct_rejection	NA	0
13	Triplet	134	620	620	4	0	0	486852	691	0	correct_rejection	NA	0
13	Triplet	135	621	621	4	0	0	487560	692	0	correct_rejection	NA	0
13	Triplet	136	622	622	5	0	0	488269	691	0	correct_rejection	NA	0
13	Triplet	137	623	623	6	0	0	488977	692	0	correct_rejection	NA	0
13	Triplet	138	624	624	7	0	0	489686	692	0	correct_rejection	NA	0
13	Triplet	139	625	625	8	0	0	490394	692	0	correct_rejection	NA	0
13	Triplet	140	626	626	9	0	0	491103	692	0	correct_rejection	NA	0
13	Triplet	141	627	627	9	0	0	491812	691	0	correct_rejection	NA	0
13	Triplet	142	628	628	8	0	0	492520	692	0	correct_rejection	NA	0
13	Triplet	143	629	629	7	0	0	493229	691	0	correct_rejection	NA	0
13	Triplet	144	630	630	0	1	2	493937	692	1	hit	429	0
13	Triplet	145	631	631	9	0	0	494646	692	0	correct_rejection	NA	0
13	Triplet	146	632	632	8	0	0	495354	692	0	correct_rejection	NA	0
13	Triplet	147	633	633	7	0	0	496063	692	0	correct_rejection	NA	0
13	Triplet	148	634	634	4	0	0	496772	691	0	correct_rejection	NA	0
13	Triplet	149	635	635	5	0	0	497480	692	0	correct_rejection	NA	0
13	Triplet	150	636	636	6	0	0	498189	691	0	correct_rejection	NA	0
13	Triplet	151	637	637	4	0	0	498897	692	0	correct_rejection	NA	0
13	Triplet	152	638	638	5	0	0	499606	691	0	correct_rejection	NA	0
13	Triplet	153	639	639	6	0	0	500314	692	0	correct_rejection	NA	0
13	Triplet	154	640	640	9	0	0	501023	692	0	correct_rejection	NA	0
13	Triplet	155	641	641	8	0	0	501732	691	0	correct_rejection	NA	0
13	Triplet	156	642	642	7	0	0	502440	692	0	correct_rejection	NA	0
13	Triplet	157	643	643	7	0	0	503149	691	0	correct_rejection	NA	0
13	Triplet	158	644	644	8	0	0	503857	692	0	correct_rejection	NA	0
13	Triplet	159	645	645	9	0	0	504566	691	0	correct_rejection	NA	0
13	Triplet	160	646	646	6	0	0	505274	692	0	correct_rejection	NA	0
13	Triplet	161	647	647	5	0	0	505983	692	0	correct_rejection	NA	0
13	Triplet	162	648	648	4	0	0	506691	692	0	correct_rejection	NA	0
13	Nonet	1	325	649	4	0	0	516920	692	0	correct_rejection	NA	7529
13	Nonet	2	326	650	5	0	0	517628	692	0	correct_rejection	NA	0
13	Nonet	3	327	651	6	0	0	518337	692	0	correct_rejection	NA	0
13	Nonet	4	328	652	4	0	0	519046	691	0	correct_rejection	NA	0
13	Nonet	5	329	653	5	0	0	519754	692	0	correct_rejection	NA	0
13	Nonet	6	330	654	6	0	0	520463	691	0	correct_rejection	NA	0
13	Nonet	7	331	655	0	1	2	521171	692	1	hit	410	0
13	Nonet	8	332	656	4	0	0	521880	692	0	correct_rejection	NA	0
13	Nonet	9	333	657	5	0	0	522588	692	0	correct_rejection	NA	0
13	Nonet	10	334	658	6	0	0	523297	692	0	correct_rejection	NA	0
13	Nonet	11	335	659	6	0	0	524006	691	0	correct_rejection	NA	0
13	Nonet	12	336	660	0	1	1	524714	692	1	hit	372	0
13	Nonet	13	337	661	5	0	0	525423	691	0	correct_rejection	NA	0
13	Nonet	14	338	662	4	0	0	526131	692	0	correct_rejection	NA	0
13	Nonet	15	339	663	6	0	0	526840	691	0	correct_rejection	NA	0
13	Nonet	16	340	664	5	0	0	527548	692	0	correct_rejection	NA	0
13	Nonet	17	341	665	4	0	0	528257	692	0	correct_rejection	NA	0
13	Nonet	18	342	666	6	0	0	528965	692	0	correct_rejection	NA	0
13	Nonet	19	343	667	5	0	0	529674	692	0	correct_rejection	NA	0
13	Nonet	20	344	668	4	0	0	530383	691	0	correct_rejection	NA	0
13	Nonet	21	345	669	4	0	0	531091	692	0	correct_rejection	NA	0
13	Nonet	22	346	670	5	0	0	531800	691	0	correct_rejection	NA	0
13	Nonet	23	347	671	6	0	0	532508	692	0	correct_rejection	NA	0
13	Nonet	24	348	672	4	0	0	533217	692	0	correct_rejection	NA	0
13	Nonet	25	349	673	0	1	1	533925	692	1	hit	361	0
13	Nonet	26	350	674	5	0	0	534634	692	0	correct_rejection	NA	0
13	Nonet	27	351	675	6	0	0	535343	691	0	correct_rejection	NA	0
13	Nonet	28	352	676	4	0	0	536051	692	0	correct_rejection	NA	0
13	Nonet	29	353	677	5	0	0	536760	691	0	correct_rejection	NA	0
13	Nonet	30	354	678	6	0	0	537468	692	0	correct_rejection	NA	0
13	Nonet	31	355	679	9	0	0	538177	692	0	correct_rejection	NA	0
13	Nonet	32	356	680	8	0	0	538885	692	0	correct_rejection	NA	0
13	Nonet	33	357	681	7	0	0	539594	692	0	correct_rejection	NA	0
13	Nonet	34	358	682	9	0	0	540303	691	0	correct_rejection	NA	0
13	Nonet	35	359	683	8	0	0	541011	692	0	correct_rejection	NA	0
13	Nonet	36	360	684	7	0	0	541720	691	0	correct_rejection	NA	0
13	Nonet	37	361	685	9	0	0	542428	692	0	correct_rejection	NA	0
13	Nonet	38	362	686	8	0	0	543137	692	0	correct_rejection	NA	0
13	Nonet	39	363	687	7	0	0	543845	692	0	correct_rejection	NA	0
13	Nonet	40	364	688	4	0	0	544554	692	0	correct_rejection	NA	0
13	Nonet	41	365	689	5	0	0	545263	691	0	correct_rejection	NA	0
13	Nonet	42	366	690	6	0	0	545971	692	0	correct_rejection	NA	0
13	Nonet	43	367	691	4	0	0	546680	691	0	correct_rejection	NA	0
13	Nonet	44	368	692	5	0	0	547388	692	0	correct_rejection	NA	0
13	Nonet	45	369	693	0	1	1	548097	691	1	hit	371	0
13	Nonet	46	370	694	6	0	0	548805	692	0	correct_rejection	NA	0
13	Nonet	47	371	695	4	0	0	549514	692	0	correct_rejection	NA	0
13	Nonet	48	372	696	5	0	0	550222	692	0	correct_rejection	NA	0
13	Nonet	49	373	697	6	0	0	550931	692	0	correct_rejection	NA	0
13	Nonet	50	374	698	7	0	0	551640	691	0	correct_rejection	NA	0
13	Nonet	51	375	699	0	1	1	552348	692	1	hit	432	0
13	Nonet	52	376	700	8	0	0	553057	691	0	correct_rejection	NA	0
13	Nonet	53	377	701	9	0	0	553765	692	0	correct_rejection	NA	0
13	Nonet	54	378	702	7	0	0	554474	692	0	correct_rejection	NA	0
13	Nonet	55	379	703	8	0	0	555182	692	0	correct_rejection	NA	0
13	Nonet	56	380	704	9	0	0	555891	692	0	correct_rejection	NA	0
13	Nonet	57	381	705	7	0	0	556600	691	0	correct_rejection	NA	0
13	Nonet	58	382	706	8	0	0	557308	692	0	correct_rejection	NA	0
13	Nonet	59	383	707	9	0	0	558017	691	0	correct_rejection	NA	0
13	Nonet	60	384	708	9	0	0	558725	692	0	correct_rejection	NA	0
13	Nonet	61	385	709	8	0	0	559434	692	0	correct_rejection	NA	0
13	Nonet	62	386	710	7	0	0	560142	692	0	correct_rejection	NA	0
13	Nonet	63	387	711	9	0	0	560851	692	0	correct_rejection	NA	0
13	Nonet	64	388	712	8	0	0	561560	691	0	correct_rejection	NA	0
13	Nonet	65	389	713	0	1	1	562268	692	1	hit	305	0
13	Nonet	66	390	714	7	0	0	562977	691	0	correct_rejection	NA	0
13	Nonet	67	391	715	9	0	0	563685	692	0	correct_rejection	NA	0
13	Nonet	68	392	716	8	0	0	564394	692	0	correct_rejection	NA	0
13	Nonet	69	393	717	7	0	0	565102	692	0	correct_rejection	NA	0
13	Nonet	70	394	718	0	1	3	565811	692	1	hit	359	0
13	Nonet	71	395	719	9	0	0	566520	691	0	correct_rejection	NA	0
13	Nonet	72	396	720	8	0	0	567228	692	0	correct_rejection	NA	0
13	Nonet	73	397	721	7	0	0	567937	691	0	correct_rejection	NA	0
13	Nonet	74	398	722	9	0	0	568645	692	0	correct_rejection	NA	0
13	Nonet	75	399	723	8	0	0	569354	691	0	correct_rejection	NA	0
13	Nonet	76	400	724	7	0	0	570062	692	0	correct_rejection	NA	0
13	Nonet	77	401	725	9	0	0	570771	692	0	correct_rejection	NA	0
13	Nonet	78	402	726	0	1	1	571479	692	1	hit	365	0
13	Nonet	79	403	727	8	0	0	572188	692	0	correct_rejection	NA	0
13	Nonet	80	404	728	7	0	0	572897	691	0	correct_rejection	NA	0
13	Nonet	81	405	729	6	0	0	573605	692	0	correct_rejection	NA	0
13	Nonet	82	406	730	5	0	0	574314	691	0	correct_rejection	NA	0
13	Nonet	83	407	731	4	0	0	575022	692	0	correct_rejection	NA	0
13	Nonet	84	408	732	0	1	2	575731	692	1	hit	340	0
13	Nonet	85	409	733	6	0	0	576439	692	0	correct_rejection	NA	0
13	Nonet	86	410	734	5	0	0	577148	692	0	correct_rejection	NA	0
13	Nonet	87	411	735	4	0	0	577857	691	0	correct_rejection	NA	0
13	Nonet	88	412	736	6	0	0	578565	692	0	correct_rejection	NA	0
13	Nonet	89	413	737	5	0	0	579274	691	0	correct_rejection	NA	0
13	Nonet	90	414	738	4	0	0	579982	692	0	correct_rejection	NA	0
13	Nonet	91	415	739	7	0	0	580691	692	0	correct_rejection	NA	0
13	Nonet	92	416	740	8	0	0	581399	692	0	correct_rejection	NA	0
13	Nonet	93	417	741	9	0	0	582108	692	0	correct_rejection	NA	0
13	Nonet	94	418	742	7	0	0	582817	691	0	correct_rejection	NA	0
13	Nonet	95	419	743	8	0	0	583525	692	0	correct_rejection	NA	0
13	Nonet	96	420	744	9	0	0	584234	691	0	correct_rejection	NA	0
13	Nonet	97	421	745	7	0	0	584942	692	0	correct_rejection	NA	0
13	Nonet	98	422	746	8	0	0	585651	692	0	correct_rejection	NA	0
13	Nonet	99	423	747	9	0	0	586359	692	0	correct_rejection	NA	0
13	Nonet	100	424	748	6	0	0	587068	692	0	correct_rejection	NA	0
13	Nonet	101	425	749	0	1	1	587777	691	1	hit	321	0
13	Nonet	102	426	750	5	0	0	588485	692	0	correct_rejection	NA	0
13	Nonet	103	427	751	4	0	0	589194	691	0	correct_rejection	NA	0
13	Nonet	104	428	752	6	0	0	589902	692	0	correct_rejection	NA	0
13	Nonet	105	429	753	5	0	0	590611	691	0	correct_rejection	NA	0
13	Nonet	106	430	754	4	0	0	591319	692	0	correct_rejection	NA	0
13	Nonet	107	431	755	6	0	0	592028	692	0	correct_rejection	NA	0
13	Nonet	108	432	756	5	0	0	592737	691	0	correct_rejection	NA	0
13	Nonet	109	433	757	4	0	0	593445	692	0	correct_rejection	NA	0
13	Nonet	110	434	758	0	1	3	594154	691	1	hit	311	0
13	Nonet	111	435	759	6	0	0	594862	692	0	correct_rejection	NA	0
13	Nonet	112	436	760	5	0	0	595571	691	0	correct_rejection	NA	0
13	Nonet	113	437	761	0	1	1	596279	692	1	hit	568	0
13	Nonet	114	438	762	4	0	0	596988	692	0	correct_rejection	NA	0
13	Nonet	115	439	763	6	0	0	597696	692	0	correct_rejection	NA	0
13	Nonet	116	440	764	5	0	0	598405	692	0	correct_rejection	NA	0
13	Nonet	117	441	765	4	0	0	599114	691	0	correct_rejection	NA	0
13	Nonet	118	442	766	6	0	0	599822	692	0	correct_rejection	NA	0
13	Nonet	119	443	767	5	0	0	600531	691	0	correct_rejection	NA	0
13	Nonet	120	444	768	4	0	0	601239	692	0	correct_rejection	NA	0
13	Nonet	121	445	769	9	0	0	601948	692	0	correct_rejection	NA	0
13	Nonet	122	446	770	8	0	0	602656	692	0	correct_rejection	NA	0
13	Nonet	123	447	771	0	1	1	603365	692	1	hit	364	0
13	Nonet	124	448	772	7	0	0	604074	691	0	correct_rejection	NA	0
13	Nonet	125	449	773	9	0	0	604782	692	0	correct_rejection	NA	0
13	Nonet	126	450	774	8	0	0	605491	691	0	correct_rejection	NA	0
13	Nonet	127	451	775	7	0	0	606199	692	0	correct_rejection	NA	0
13	Nonet	128	452	776	9	0	0	606908	692	0	correct_rejection	NA	0
13	Nonet	129	453	777	8	0	0	607616	692	0	correct_rejection	NA	0
13	Nonet	130	454	778	7	0	0	608325	692	0	correct_rejection	NA	0
13	Nonet	131	455	779	0	1	3	609034	691	1	hit	448	0
13	Nonet	132	456	780	7	0	0	609742	692	0	correct_rejection	NA	0
13	Nonet	133	457	781	8	0	0	610451	691	0	correct_rejection	NA	0
13	Nonet	134	458	782	9	0	0	611159	692	0	correct_rejection	NA	0
13	Nonet	135	459	783	7	0	0	611868	691	0	correct_rejection	NA	0
13	Nonet	136	460	784	8	0	0	612576	692	0	correct_rejection	NA	0
13	Nonet	137	461	785	0	1	1	613285	692	1	hit	376	0
13	Nonet	138	462	786	9	0	0	613994	691	0	correct_rejection	NA	0
13	Nonet	139	463	787	7	0	0	614702	692	0	correct_rejection	NA	0
13	Nonet	140	464	788	8	0	0	615411	691	0	correct_rejection	NA	0
13	Nonet	141	465	789	9	0	0	616119	692	0	correct_rejection	NA	0
13	Nonet	142	466	790	0	1	3	616828	691	1	hit	348	0
13	Nonet	143	467	791	7	0	0	617536	692	0	correct_rejection	NA	0
13	Nonet	144	468	792	8	0	0	618245	692	0	correct_rejection	NA	0
13	Nonet	145	469	793	9	0	0	618953	692	0	correct_rejection	NA	0
13	Nonet	146	470	794	7	0	0	619662	692	0	correct_rejection	NA	0
13	Nonet	147	471	795	8	0	0	620371	691	0	correct_rejection	NA	0
13	Nonet	148	472	796	9	0	0	621079	692	0	correct_rejection	NA	0
13	Nonet	149	473	797	7	0	0	621788	691	0	correct_rejection	NA	0
13	Nonet	150	474	798	8	0	0	622496	692	0	correct_rejection	NA	0
13	Nonet	151	475	799	9	0	0	623205	692	0	correct_rejection	NA	0
13	Nonet	152	476	800	4	0	0	623913	692	0	correct_rejection	NA	0
13	Nonet	153	477	801	5	0	0	624622	692	0	correct_rejection	NA	0
13	Nonet	154	478	802	0	1	1	625331	691	1	hit	335	0
13	Nonet	155	479	803	6	0	0	626039	692	0	correct_rejection	NA	0
13	Nonet	156	480	804	4	0	0	626748	691	0	correct_rejection	NA	0
13	Nonet	157	481	805	0	1	1	627456	692	1	hit	439	0
13	Nonet	158	482	806	5	0	0	628165	692	0	correct_rejection	NA	0
13	Nonet	159	483	807	6	0	0	628873	692	0	correct_rejection	NA	0
13	Nonet	160	484	808	4	0	0	629582	692	0	correct_rejection	NA	0
13	Nonet	161	485	809	5	0	0	630291	691	0	correct_rejection	NA	0
13	Nonet	162	486	810	6	0	0	630999	692	0	correct_rejection	NA	0
trigger nr 623 at 633349
trigger nr 645 at 724101
13	Triplet	1	163	811	6	0	0	732032	692	0	correct_rejection	NA	7899
13	Triplet	2	164	812	5	0	0	732741	692	0	correct_rejection	NA	0
13	Triplet	3	165	813	4	0	0	733450	691	0	correct_rejection	NA	0
13	Triplet	4	166	814	0	1	2	734158	692	1	hit	318	0
13	Triplet	5	167	815	6	0	0	734867	691	0	correct_rejection	NA	0
13	Triplet	6	168	816	5	0	0	735575	692	0	correct_rejection	NA	0
13	Triplet	7	169	817	0	1	1	736284	692	1	hit	349	0
13	Triplet	8	170	818	4	0	0	736992	692	0	correct_rejection	NA	0
13	Triplet	9	171	819	4	0	0	737701	692	0	correct_rejection	NA	0
13	Triplet	10	172	820	5	0	0	738410	691	0	correct_rejection	NA	0
13	Triplet	11	173	821	0	1	1	739118	692	1	hit	330	0
13	Triplet	12	174	822	6	0	0	739827	691	0	correct_rejection	NA	0
13	Triplet	13	175	823	9	0	0	740535	692	0	correct_rejection	NA	0
13	Triplet	14	176	824	8	0	0	741244	691	0	correct_rejection	NA	0
13	Triplet	15	177	825	7	0	0	741952	692	0	correct_rejection	NA	0
13	Triplet	16	178	826	6	0	0	742661	692	0	correct_rejection	NA	0
13	Triplet	17	179	827	0	1	1	743369	692	1	hit	317	0
13	Triplet	18	180	828	5	0	0	744078	692	0	correct_rejection	NA	0
13	Triplet	19	181	829	4	0	0	744787	691	0	correct_rejection	NA	0
13	Triplet	20	182	830	9	0	0	745495	692	0	correct_rejection	NA	0
13	Triplet	21	183	831	8	0	0	746204	691	0	correct_rejection	NA	0
13	Triplet	22	184	832	7	0	0	746912	692	0	correct_rejection	NA	0
13	Triplet	23	185	833	0	1	2	747621	692	1	hit	295	0
13	Triplet	24	186	834	7	0	0	748329	692	0	correct_rejection	NA	0
13	Triplet	25	187	835	8	0	0	749038	692	0	correct_rejection	NA	0
13	Triplet	26	188	836	9	0	0	749747	691	0	correct_rejection	NA	0
13	Triplet	27	189	837	6	0	0	750455	692	0	correct_rejection	NA	0
13	Triplet	28	190	838	5	0	0	751164	691	0	correct_rejection	NA	0
13	Triplet	29	191	839	0	1	1	751872	692	1	hit	309	0
13	Triplet	30	192	840	4	0	0	752581	692	0	correct_rejection	NA	0
13	Triplet	31	193	841	7	0	0	753289	692	0	correct_rejection	NA	0
13	Triplet	32	194	842	8	0	0	753998	692	0	correct_rejection	NA	0
13	Triplet	33	195	843	9	0	0	754707	691	0	correct_rejection	NA	0
13	Triplet	34	196	844	7	0	0	755415	692	0	correct_rejection	NA	0
13	Triplet	35	197	845	8	0	0	756124	691	0	correct_rejection	NA	0
13	Triplet	36	198	846	9	0	0	756832	692	0	correct_rejection	NA	0
13	Triplet	37	199	847	9	0	0	757541	692	0	correct_rejection	NA	0
13	Triplet	38	200	848	8	0	0	758249	692	0	correct_rejection	NA	0
13	Triplet	39	201	849	7	0	0	758958	692	0	correct_rejection	NA	0
13	Triplet	40	202	850	9	0	0	759667	691	0	correct_rejection	NA	0
13	Triplet	41	203	851	8	0	0	760375	692	0	correct_rejection	NA	0
13	Triplet	42	204	852	0	1	1	761084	691	1	hit	334	0
13	Triplet	43	205	853	7	0	0	761792	692	0	correct_rejection	NA	0
13	Triplet	44	206	854	4	0	0	762501	691	0	correct_rejection	NA	0
13	Triplet	45	207	855	5	0	0	763209	692	0	correct_rejection	NA	0
13	Triplet	46	208	856	6	0	0	763918	692	0	correct_rejection	NA	0
13	Triplet	47	209	857	4	0	0	764626	692	0	correct_rejection	NA	0
13	Triplet	48	210	858	5	0	0	765335	692	0	correct_rejection	NA	0
13	Triplet	49	211	859	6	0	0	766044	691	0	correct_rejection	NA	0
13	Triplet	50	212	860	7	0	0	766752	692	0	correct_rejection	NA	0
13	Triplet	51	213	861	8	0	0	767461	691	0	correct_rejection	NA	0
13	Triplet	52	214	862	9	0	0	768169	692	0	correct_rejection	NA	0
13	Triplet	53	215	863	4	0	0	768878	692	0	correct_rejection	NA	0
13	Triplet	54	216	864	5	0	0	769586	692	0	correct_rejection	NA	0
13	Triplet	55	217	865	6	0	0	770295	692	0	correct_rejection	NA	0
13	Triplet	56	218	866	7	0	0	771004	691	0	correct_rejection	NA	0
13	Triplet	57	219	867	0	1	1	771712	692	1	hit	346	0
13	Triplet	58	220	868	8	0	0	772421	691	0	correct_rejection	NA	0
13	Triplet	59	221	869	9	0	0	773129	692	0	correct_rejection	NA	0
13	Triplet	60	222	870	0	1	2	773838	692	1	hit	332	0
13	Triplet	61	223	871	6	0	0	774546	692	0	correct_rejection	NA	0
13	Triplet	62	224	872	5	0	0	775255	692	0	correct_rejection	NA	0
13	Triplet	63	225	873	4	0	0	775964	691	0	correct_rejection	NA	0
13	Triplet	64	226	874	6	0	0	776672	692	0	correct_rejection	NA	0
13	Triplet	65	227	875	5	0	0	777381	691	0	correct_rejection	NA	0
13	Triplet	66	228	876	4	0	0	778089	692	0	correct_rejection	NA	0
13	Triplet	67	229	877	9	0	0	778798	692	0	correct_rejection	NA	0
13	Triplet	68	230	878	8	0	0	779506	692	0	correct_rejection	NA	0
13	Triplet	69	231	879	7	0	0	780215	692	0	correct_rejection	NA	0
13	Triplet	70	232	880	4	0	0	780924	691	0	correct_rejection	NA	0
13	Triplet	71	233	881	0	1	1	781632	692	1	hit	290	0
13	Triplet	72	234	882	5	0	0	782341	691	0	correct_rejection	NA	0
13	Triplet	73	235	883	6	0	0	783049	692	0	correct_rejection	NA	0
13	Triplet	74	236	884	7	0	0	783758	691	0	correct_rejection	NA	0
13	Triplet	75	237	885	8	0	0	784466	692	0	correct_rejection	NA	0
13	Triplet	76	238	886	9	0	0	785175	692	0	correct_rejection	NA	0
13	Triplet	77	239	887	7	0	0	785883	692	0	correct_rejection	NA	0
13	Triplet	78	240	888	8	0	0	786592	692	0	correct_rejection	NA	0
13	Triplet	79	241	889	9	0	0	787301	691	0	correct_rejection	NA	0
13	Triplet	80	242	890	4	0	0	788009	692	0	correct_rejection	NA	0
13	Triplet	81	243	891	5	0	0	788718	691	0	correct_rejection	NA	0
13	Triplet	82	244	892	6	0	0	789426	692	0	correct_rejection	NA	0
13	Triplet	83	245	893	6	0	0	790135	692	0	correct_rejection	NA	0
13	Triplet	84	246	894	5	0	0	790843	692	0	correct_rejection	NA	0
13	Triplet	85	247	895	4	0	0	791552	692	0	correct_rejection	NA	0
13	Triplet	86	248	896	7	0	0	792261	691	0	correct_rejection	NA	0
13	Triplet	87	249	897	8	0	0	792969	692	0	correct_rejection	NA	0
13	Triplet	88	250	898	9	0	0	793678	691	0	correct_rejection	NA	0
13	Triplet	89	251	899	9	0	0	794386	692	0	correct_rejection	NA	0
13	Triplet	90	252	900	8	0	0	795095	692	0	correct_rejection	NA	0
13	Triplet	91	253	901	7	0	0	795803	692	0	correct_rejection	NA	0
13	Triplet	92	254	902	6	0	0	796512	692	0	correct_rejection	NA	0
13	Triplet	93	255	903	5	0	0	797221	691	0	correct_rejection	NA	0
13	Triplet	94	256	904	4	0	0	797929	692	0	correct_rejection	NA	0
13	Triplet	95	257	905	4	0	0	798638	691	0	correct_rejection	NA	0
13	Triplet	96	258	906	5	0	0	799346	692	0	correct_rejection	NA	0
13	Triplet	97	259	907	6	0	0	800055	692	0	correct_rejection	NA	0
13	Triplet	98	260	908	4	0	0	800763	692	0	correct_rejection	NA	0
13	Triplet	99	261	909	5	0	0	801472	692	0	correct_rejection	NA	0
13	Triplet	100	262	910	6	0	0	802181	691	0	correct_rejection	NA	0
13	Triplet	101	263	911	9	0	0	802889	692	0	correct_rejection	NA	0
13	Triplet	102	264	912	8	0	0	803598	691	0	correct_rejection	NA	0
13	Triplet	103	265	913	7	0	0	804306	692	0	correct_rejection	NA	0
13	Triplet	104	266	914	0	1	2	805015	691	1	hit	350	0
13	Triplet	105	267	915	9	0	0	805723	692	0	correct_rejection	NA	0
13	Triplet	106	268	916	8	0	0	806432	692	0	correct_rejection	NA	0
13	Triplet	107	269	917	7	0	0	807140	692	0	correct_rejection	NA	0
13	Triplet	108	270	918	4	0	0	807849	692	0	correct_rejection	NA	0
13	Triplet	109	271	919	5	0	0	808558	691	0	correct_rejection	NA	0
13	Triplet	110	272	920	6	0	0	809266	692	0	correct_rejection	NA	0
13	Triplet	111	273	921	4	0	0	809975	691	0	correct_rejection	NA	0
13	Triplet	112	274	922	5	0	0	810683	692	0	correct_rejection	NA	0
13	Triplet	113	275	923	6	0	0	811392	692	0	correct_rejection	NA	0
13	Triplet	114	276	924	6	0	0	812100	692	0	correct_rejection	NA	0
13	Triplet	115	277	925	0	1	1	812809	692	1	hit	351	0
13	Triplet	116	278	926	5	0	0	813518	691	0	correct_rejection	NA	0
13	Triplet	117	279	927	4	0	0	814226	692	0	correct_rejection	NA	0
13	Triplet	118	280	928	9	0	0	814935	691	0	correct_rejection	NA	0
13	Triplet	119	281	929	8	0	0	815643	692	0	correct_rejection	NA	0
13	Triplet	120	282	930	0	1	1	816352	692	1	hit	340	0
13	Triplet	121	283	931	7	0	0	817060	692	0	correct_rejection	NA	0
13	Triplet	122	284	932	9	0	0	817769	692	0	correct_rejection	NA	0
13	Triplet	123	285	933	0	1	1	818478	691	1	hit	429	0
13	Triplet	124	286	934	8	0	0	819186	692	0	correct_rejection	NA	0
13	Triplet	125	287	935	7	0	0	819895	691	0	correct_rejection	NA	0
13	Triplet	126	288	936	6	0	0	820603	692	0	correct_rejection	NA	0
13	Triplet	127	289	937	5	0	0	821312	692	0	correct_rejection	NA	0
13	Triplet	128	290	938	4	0	0	822020	692	0	correct_rejection	NA	0
13	Triplet	129	291	939	6	0	0	822729	692	0	correct_rejection	NA	0
13	Triplet	130	292	940	5	0	0	823438	691	0	correct_rejection	NA	0
13	Triplet	131	293	941	4	0	0	824146	692	0	correct_rejection	NA	0
13	Triplet	132	294	942	7	0	0	824855	691	0	correct_rejection	NA	0
13	Triplet	133	295	943	0	1	1	825563	692	1	hit	344	0
13	Triplet	134	296	944	8	0	0	826272	691	0	correct_rejection	NA	0
13	Triplet	135	297	945	9	0	0	826980	692	0	correct_rejection	NA	0
13	Triplet	136	298	946	4	0	0	827689	692	0	correct_rejection	NA	0
13	Triplet	137	299	947	5	0	0	828397	692	0	correct_rejection	NA	0
13	Triplet	138	300	948	6	0	0	829106	692	0	correct_rejection	NA	0
13	Triplet	139	301	949	7	0	0	829815	691	0	correct_rejection	NA	0
13	Triplet	140	302	950	8	0	0	830523	692	0	correct_rejection	NA	0
13	Triplet	141	303	951	0	1	1	831232	691	1	hit	322	0
13	Triplet	142	304	952	9	0	0	831940	692	0	correct_rejection	NA	0
13	Triplet	143	305	953	9	0	0	832649	692	0	correct_rejection	NA	0
13	Triplet	144	306	954	8	0	0	833357	692	0	correct_rejection	NA	0
13	Triplet	145	307	955	7	0	0	834066	692	0	correct_rejection	NA	0
13	Triplet	146	308	956	4	0	0	834775	691	0	correct_rejection	NA	0
13	Triplet	147	309	957	5	0	0	835483	692	0	correct_rejection	NA	0
13	Triplet	148	310	958	6	0	0	836192	691	0	correct_rejection	NA	0
13	Triplet	149	311	959	9	0	0	836900	692	0	correct_rejection	NA	0
13	Triplet	150	312	960	0	1	1	837609	692	1	hit	406	0
13	Triplet	151	313	961	8	0	0	838317	692	0	correct_rejection	NA	0
13	Triplet	152	314	962	7	0	0	839026	692	0	correct_rejection	NA	0
13	Triplet	153	315	963	7	0	0	839735	691	0	correct_rejection	NA	0
13	Triplet	154	316	964	8	0	0	840443	692	0	correct_rejection	NA	0
13	Triplet	155	317	965	9	0	0	841152	691	0	correct_rejection	NA	0
13	Triplet	156	318	966	7	0	0	841860	692	0	correct_rejection	NA	0
13	Triplet	157	319	967	0	1	1	842569	692	1	hit	366	0
13	Triplet	158	320	968	8	0	0	843277	692	0	correct_rejection	NA	0
13	Triplet	159	321	969	9	0	0	843986	692	0	correct_rejection	NA	0
13	Triplet	160	322	970	6	0	0	844695	691	0	correct_rejection	NA	0
13	Triplet	161	323	971	5	0	0	845403	692	0	correct_rejection	NA	0
13	Triplet	162	324	972	4	0	0	846112	691	0	correct_rejection	NA	0
13	Correct	1	325	973	4	0	0	855932	691	0	correct_rejection	NA	7799
13	Correct	2	326	974	5	0	0	856640	692	0	correct_rejection	NA	0
13	Correct	3	327	975	6	0	0	857349	691	0	correct_rejection	NA	0
13	Correct	4	328	976	4	0	0	858057	692	0	correct_rejection	NA	0
13	Correct	5	329	977	5	0	0	858766	692	0	correct_rejection	NA	0
13	Correct	6	330	978	6	0	0	859474	692	0	correct_rejection	NA	0
13	Correct	7	331	979	4	0	0	860183	692	0	correct_rejection	NA	0
13	Correct	8	332	980	5	0	0	860892	691	0	correct_rejection	NA	0
13	Correct	9	333	981	6	0	0	861600	692	0	correct_rejection	NA	0
13	Correct	10	334	982	0	1	3	862309	691	1	hit	393	0
13	Correct	11	335	983	6	0	0	863017	692	0	correct_rejection	NA	0
13	Correct	12	336	984	5	0	0	863726	691	0	correct_rejection	NA	0
13	Correct	13	337	985	4	0	0	864434	692	0	correct_rejection	NA	0
13	Correct	14	338	986	6	0	0	865143	692	0	correct_rejection	NA	0
13	Correct	15	339	987	5	0	0	865852	691	0	correct_rejection	NA	0
13	Correct	16	340	988	4	0	0	866560	692	0	correct_rejection	NA	0
13	Correct	17	341	989	6	0	0	867269	691	0	correct_rejection	NA	0
13	Correct	18	342	990	0	1	1	867977	692	1	hit	352	0
13	Correct	19	343	991	5	0	0	868686	691	0	correct_rejection	NA	0
13	Correct	20	344	992	4	0	0	869394	692	0	correct_rejection	NA	0
13	Correct	21	345	993	9	0	0	870103	692	0	correct_rejection	NA	0
13	Correct	22	346	994	8	0	0	870811	692	0	correct_rejection	NA	0
13	Correct	23	347	995	7	0	0	871520	692	0	correct_rejection	NA	0
13	Correct	24	348	996	0	1	2	872229	691	1	hit	353	0
13	Correct	25	349	997	9	0	0	872937	692	0	correct_rejection	NA	0
13	Correct	26	350	998	8	0	0	873646	691	0	correct_rejection	NA	0
13	Correct	27	351	999	7	0	0	874354	692	0	correct_rejection	NA	0
13	Correct	28	352	1000	9	0	0	875063	692	0	correct_rejection	NA	0
13	Correct	29	353	1001	8	0	0	875771	692	0	correct_rejection	NA	0
13	Correct	30	354	1002	7	0	0	876480	692	0	correct_rejection	NA	0
13	Correct	31	355	1003	7	0	0	877189	691	0	correct_rejection	NA	0
13	Correct	32	356	1004	8	0	0	877897	692	0	correct_rejection	NA	0
13	Correct	33	357	1005	9	0	0	878606	691	0	correct_rejection	NA	0
13	Correct	34	358	1006	7	0	0	879314	692	0	correct_rejection	NA	0
13	Correct	35	359	1007	8	0	0	880023	692	0	correct_rejection	NA	0
13	Correct	36	360	1008	9	0	0	880731	692	0	correct_rejection	NA	0
13	Correct	37	361	1009	7	0	0	881440	692	0	correct_rejection	NA	0
13	Correct	38	362	1010	0	1	1	882149	691	1	hit	360	0
13	Correct	39	363	1011	8	0	0	882857	692	0	correct_rejection	NA	0
13	Correct	40	364	1012	9	0	0	883566	691	0	correct_rejection	NA	0
13	Correct	41	365	1013	4	0	0	884274	692	0	correct_rejection	NA	0
13	Correct	42	366	1014	5	0	0	884983	692	0	correct_rejection	NA	0
13	Correct	43	367	1015	6	0	0	885691	692	0	correct_rejection	NA	0
13	Correct	44	368	1016	4	0	0	886400	692	0	correct_rejection	NA	0
13	Correct	45	369	1017	5	0	0	887109	691	0	correct_rejection	NA	0
13	Correct	46	370	1018	6	0	0	887817	692	0	correct_rejection	NA	0
13	Correct	47	371	1019	4	0	0	888526	691	0	correct_rejection	NA	0
13	Correct	48	372	1020	0	1	1	889234	692	1	hit	317	0
13	Correct	49	373	1021	5	0	0	889943	691	0	correct_rejection	NA	0
13	Correct	50	374	1022	6	0	0	890651	692	0	correct_rejection	NA	0
13	Correct	51	375	1023	6	0	0	891360	692	0	correct_rejection	NA	0
13	Correct	52	376	1024	5	0	0	892068	692	0	correct_rejection	NA	0
13	Correct	53	377	1025	4	0	0	892777	692	0	correct_rejection	NA	0
13	Correct	54	378	1026	6	0	0	893486	691	0	correct_rejection	NA	0
13	Correct	55	379	1027	5	0	0	894194	692	0	correct_rejection	NA	0
13	Correct	56	380	1028	4	0	0	894903	691	0	correct_rejection	NA	0
13	Correct	57	381	1029	6	0	0	895611	692	0	correct_rejection	NA	0
13	Correct	58	382	1030	5	0	0	896320	692	0	correct_rejection	NA	0
13	Correct	59	383	1031	4	0	0	897028	692	0	correct_rejection	NA	0
13	Correct	60	384	1032	9	0	0	897737	692	0	correct_rejection	NA	0
13	Correct	61	385	1033	8	0	0	898446	691	0	correct_rejection	NA	0
13	Correct	62	386	1034	7	0	0	899154	692	0	correct_rejection	NA	0
13	Correct	63	387	1035	9	0	0	899863	691	0	correct_rejection	NA	0
13	Correct	64	388	1036	8	0	0	900571	692	0	correct_rejection	NA	0
13	Correct	65	389	1037	0	1	1	901280	692	1	hit	293	0
13	Correct	66	390	1038	7	0	0	901988	692	0	correct_rejection	NA	0
13	Correct	67	391	1039	9	0	0	902697	692	0	correct_rejection	NA	0
13	Correct	68	392	1040	8	0	0	903406	691	0	correct_rejection	NA	0
13	Correct	69	393	1041	7	0	0	904114	692	0	correct_rejection	NA	0
13	Correct	70	394	1042	7	0	0	904823	691	0	correct_rejection	NA	0
13	Correct	71	395	1043	8	0	0	905531	692	0	correct_rejection	NA	0
13	Correct	72	396	1044	9	0	0	906240	692	0	correct_rejection	NA	0
13	Correct	73	397	1045	0	1	2	906948	692	1	hit	378	0
13	Correct	74	398	1046	7	0	0	907657	692	0	correct_rejection	NA	0
13	Correct	75	399	1047	8	0	0	908366	691	0	correct_rejection	NA	0
13	Correct	76	400	1048	0	1	1	909074	692	1	hit	346	0
13	Correct	77	401	1049	9	0	0	909783	691	0	correct_rejection	NA	0
13	Correct	78	402	1050	7	0	0	910491	692	0	correct_rejection	NA	0
13	Correct	79	403	1051	8	0	0	911200	691	0	correct_rejection	NA	0
13	Correct	80	404	1052	0	1	1	911908	692	1	hit	355	0
13	Correct	81	405	1053	9	0	0	912617	692	0	correct_rejection	NA	0
13	Correct	82	406	1054	4	0	0	913325	692	0	correct_rejection	NA	0
13	Correct	83	407	1055	5	0	0	914034	692	0	correct_rejection	NA	0
13	Correct	84	408	1056	0	1	1	914743	691	1	hit	363	0
13	Correct	85	409	1057	6	0	0	915451	692	0	correct_rejection	NA	0
13	Correct	86	410	1058	4	0	0	916160	691	0	correct_rejection	NA	0
13	Correct	87	411	1059	5	0	0	916868	692	0	correct_rejection	NA	0
13	Correct	88	412	1060	6	0	0	917577	692	0	correct_rejection	NA	0
13	Correct	89	413	1061	4	0	0	918285	692	0	correct_rejection	NA	0
13	Correct	90	414	1062	5	0	0	918994	692	0	correct_rejection	NA	0
13	Correct	91	415	1063	6	0	0	919703	691	0	correct_rejection	NA	0
13	Correct	92	416	1064	6	0	0	920411	692	0	correct_rejection	NA	0
13	Correct	93	417	1065	5	0	0	921120	691	0	correct_rejection	NA	0
13	Correct	94	418	1066	4	0	0	921828	692	0	correct_rejection	NA	0
13	Correct	95	419	1067	6	0	0	922537	692	0	correct_rejection	NA	0
13	Correct	96	420	1068	5	0	0	923245	692	0	correct_rejection	NA	0
13	Correct	97	421	1069	4	0	0	923954	692	0	correct_rejection	NA	0
13	Correct	98	422	1070	6	0	0	924663	691	0	correct_rejection	NA	0
13	Correct	99	423	1071	5	0	0	925371	692	0	correct_rejection	NA	0
13	Correct	100	424	1072	4	0	0	926080	691	0	correct_rejection	NA	0
13	Correct	101	425	1073	9	0	0	926788	692	0	correct_rejection	NA	0
13	Correct	102	426	1074	8	0	0	927497	692	0	correct_rejection	NA	0
13	Correct	103	427	1075	7	0	0	928205	692	0	correct_rejection	NA	0
13	Correct	104	428	1076	0	1	2	928914	692	1	hit	378	0
13	Correct	105	429	1077	9	0	0	929623	691	0	correct_rejection	NA	0
13	Correct	106	430	1078	8	0	0	930331	692	0	correct_rejection	NA	0
13	Correct	107	431	1079	7	0	0	931040	691	0	correct_rejection	NA	0
13	Correct	108	432	1080	9	0	0	931748	692	0	correct_rejection	NA	0
13	Correct	109	433	1081	8	0	0	932457	691	0	correct_rejection	NA	0
13	Correct	110	434	1082	7	0	0	933165	692	0	correct_rejection	NA	0
13	Correct	111	435	1083	0	1	3	933874	692	1	hit	362	0
13	Correct	112	436	1084	7	0	0	934582	692	0	correct_rejection	NA	0
13	Correct	113	437	1085	8	0	0	935291	692	0	correct_rejection	NA	0
13	Correct	114	438	1086	9	0	0	936000	691	0	correct_rejection	NA	0
13	Correct	115	439	1087	7	0	0	936708	692	0	correct_rejection	NA	0
13	Correct	116	440	1088	0	1	1	937417	691	1	hit	343	0
13	Correct	117	441	1089	8	0	0	938125	692	0	correct_rejection	NA	0
13	Correct	118	442	1090	9	0	0	938834	692	0	correct_rejection	NA	0
13	Correct	119	443	1091	7	0	0	939542	692	0	correct_rejection	NA	0
13	Correct	120	444	1092	0	1	1	940251	692	1	hit	346	0
13	Correct	121	445	1093	8	0	0	940960	691	0	correct_rejection	NA	0
13	Correct	122	446	1094	9	0	0	941668	692	0	correct_rejection	NA	0
13	Correct	123	447	1095	4	0	0	942377	691	0	correct_rejection	NA	0
13	Correct	124	448	1096	5	0	0	943085	692	0	correct_rejection	NA	0
13	Correct	125	449	1097	6	0	0	943794	692	0	correct_rejection	NA	0
13	Correct	126	450	1098	4	0	0	944502	692	0	correct_rejection	NA	0
13	Correct	127	451	1099	0	1	1	945211	692	1	hit	330	0
13	Correct	128	452	1100	5	0	0	945920	691	0	correct_rejection	NA	0
13	Correct	129	453	1101	6	0	0	946628	692	0	correct_rejection	NA	0
13	Correct	130	454	1102	4	0	0	947337	691	0	correct_rejection	NA	0
13	Correct	131	455	1103	5	0	0	948045	692	0	correct_rejection	NA	0
13	Correct	132	456	1104	6	0	0	948754	692	0	correct_rejection	NA	0
13	Correct	133	457	1105	6	0	0	949462	692	0	correct_rejection	NA	0
13	Correct	134	458	1106	5	0	0	950171	692	0	correct_rejection	NA	0
13	Correct	135	459	1107	0	1	1	950880	691	0	miss	NA	0
13	Correct	136	460	1108	4	0	0	951588	692	1	false_alarm	3	0
13	Correct	137	461	1109	6	0	0	952297	691	0	correct_rejection	NA	0
13	Correct	138	462	1110	5	0	0	953005	692	0	correct_rejection	NA	0
13	Correct	139	463	1111	4	0	0	953714	691	0	correct_rejection	NA	0
13	Correct	140	464	1112	6	0	0	954422	692	0	correct_rejection	NA	0
13	Correct	141	465	1113	5	0	0	955131	692	0	correct_rejection	NA	0
13	Correct	142	466	1114	4	0	0	955840	691	0	correct_rejection	NA	0
13	Correct	143	467	1115	9	0	0	956548	692	0	correct_rejection	NA	0
13	Correct	144	468	1116	8	0	0	957257	691	0	correct_rejection	NA	0
13	Correct	145	469	1117	7	0	0	957965	692	0	correct_rejection	NA	0
13	Correct	146	470	1118	9	0	0	958674	691	0	correct_rejection	NA	0
13	Correct	147	471	1119	0	1	1	959382	692	1	hit	331	0
13	Correct	148	472	1120	8	0	0	960091	692	0	correct_rejection	NA	0
13	Correct	149	473	1121	7	0	0	960799	692	0	correct_rejection	NA	0
13	Correct	150	474	1122	9	0	0	961508	692	0	correct_rejection	NA	0
13	Correct	151	475	1123	8	0	0	962217	691	0	correct_rejection	NA	0
13	Correct	152	476	1124	7	0	0	962925	692	0	correct_rejection	NA	0
13	Correct	153	477	1125	7	0	0	963634	691	0	correct_rejection	NA	0
13	Correct	154	478	1126	8	0	0	964342	692	0	correct_rejection	NA	0
13	Correct	155	479	1127	9	0	0	965051	692	0	correct_rejection	NA	0
13	Correct	156	480	1128	0	1	2	965759	692	1	hit	314	0
13	Correct	157	481	1129	7	0	0	966468	692	0	correct_rejection	NA	0
13	Correct	158	482	1130	8	0	0	967177	691	0	correct_rejection	NA	0
13	Correct	159	483	1131	9	0	0	967885	692	0	correct_rejection	NA	0
13	Correct	160	484	1132	7	0	0	968594	691	0	correct_rejection	NA	0
13	Correct	161	485	1133	8	0	0	969302	692	0	correct_rejection	NA	0
13	Correct	162	486	1134	9	0	0	970011	692	0	correct_rejection	NA	0
13	Nonet	1	1	1135	9	0	0	978564	691	0	correct_rejection	NA	6429
13	Nonet	2	2	1136	8	0	0	979272	692	0	correct_rejection	NA	0
13	Nonet	3	3	1137	7	0	0	979981	691	0	correct_rejection	NA	0
13	Nonet	4	4	1138	9	0	0	980689	692	0	correct_rejection	NA	0
13	Nonet	5	5	1139	8	0	0	981398	692	0	correct_rejection	NA	0
13	Nonet	6	6	1140	7	0	0	982106	692	0	correct_rejection	NA	0
13	Nonet	7	7	1141	9	0	0	982815	692	0	correct_rejection	NA	0
13	Nonet	8	8	1142	8	0	0	983524	691	0	correct_rejection	NA	0
13	Nonet	9	9	1143	7	0	0	984232	692	0	correct_rejection	NA	0
13	Nonet	10	10	1144	6	0	0	984941	691	0	correct_rejection	NA	0
13	Nonet	11	11	1145	5	0	0	985649	692	0	correct_rejection	NA	0
13	Nonet	12	12	1146	4	0	0	986358	692	0	correct_rejection	NA	0
13	Nonet	13	13	1147	6	0	0	987066	692	0	correct_rejection	NA	0
13	Nonet	14	14	1148	5	0	0	987775	692	0	correct_rejection	NA	0
13	Nonet	15	15	1149	4	0	0	988484	691	0	correct_rejection	NA	0
13	Nonet	16	16	1150	6	0	0	989192	692	0	correct_rejection	NA	0
13	Nonet	17	17	1151	0	1	1	989901	691	1	hit	343	0
13	Nonet	18	18	1152	5	0	0	990609	692	0	correct_rejection	NA	0
13	Nonet	19	19	1153	4	0	0	991318	692	0	correct_rejection	NA	0
13	Nonet	20	20	1154	6	0	0	992026	692	0	correct_rejection	NA	0
13	Nonet	21	21	1155	5	0	0	992735	692	0	correct_rejection	NA	0
13	Nonet	22	22	1156	0	1	1	993444	691	1	hit	331	0
13	Nonet	23	23	1157	4	0	0	994152	692	0	correct_rejection	NA	0
13	Nonet	24	24	1158	6	0	0	994861	691	0	correct_rejection	NA	0
13	Nonet	25	25	1159	5	0	0	995569	692	0	correct_rejection	NA	0
13	Nonet	26	26	1160	4	0	0	996278	692	0	correct_rejection	NA	0
13	Nonet	27	27	1161	6	0	0	996986	692	0	correct_rejection	NA	0
13	Nonet	28	28	1162	5	0	0	997695	692	0	correct_rejection	NA	0
13	Nonet	29	29	1163	4	0	0	998404	691	0	correct_rejection	NA	0
13	Nonet	30	30	1164	9	0	0	999112	692	0	correct_rejection	NA	0
13	Nonet	31	31	1165	8	0	0	999821	691	0	correct_rejection	NA	0
13	Nonet	32	32	1166	0	1	1	1000529	692	1	hit	317	0
13	Nonet	33	33	1167	7	0	0	1001238	691	0	correct_rejection	NA	0
13	Nonet	34	34	1168	9	0	0	1001946	692	0	correct_rejection	NA	0
13	Nonet	35	35	1169	8	0	0	1002655	692	0	correct_rejection	NA	0
13	Nonet	36	36	1170	7	0	0	1003364	691	0	correct_rejection	NA	0
13	Nonet	37	37	1171	9	0	0	1004072	692	0	correct_rejection	NA	0
13	Nonet	38	38	1172	8	0	0	1004781	691	0	correct_rejection	NA	0
13	Nonet	39	39	1173	7	0	0	1005489	692	0	correct_rejection	NA	0
13	Nonet	40	40	1174	4	0	0	1006198	691	0	correct_rejection	NA	0
13	Nonet	41	41	1175	5	0	0	1006906	692	0	correct_rejection	NA	0
13	Nonet	42	42	1176	6	0	0	1007615	692	0	correct_rejection	NA	0
13	Nonet	43	43	1177	0	1	2	1008323	692	1	hit	360	0
13	Nonet	44	44	1178	4	0	0	1009032	692	0	correct_rejection	NA	0
13	Nonet	45	45	1179	5	0	0	1009741	691	0	correct_rejection	NA	0
13	Nonet	46	46	1180	6	0	0	1010449	692	0	correct_rejection	NA	0
13	Nonet	47	47	1181	0	1	2	1011158	691	1	hit	314	0
13	Nonet	48	48	1182	4	0	0	1011866	692	0	correct_rejection	NA	0
13	Nonet	49	49	1183	5	0	0	1012575	692	0	correct_rejection	NA	0
13	Nonet	50	50	1184	6	0	0	1013283	692	0	correct_rejection	NA	0
13	Nonet	51	51	1185	4	0	0	1013992	692	0	correct_rejection	NA	0
13	Nonet	52	52	1186	5	0	0	1014701	691	0	correct_rejection	NA	0
13	Nonet	53	53	1187	0	1	1	1015409	692	1	hit	338	0
13	Nonet	54	54	1188	6	0	0	1016118	691	0	correct_rejection	NA	0
13	Nonet	55	55	1189	4	0	0	1016826	692	0	correct_rejection	NA	0
13	Nonet	56	56	1190	5	0	0	1017535	692	0	correct_rejection	NA	0
13	Nonet	57	57	1191	6	0	0	1018243	692	0	correct_rejection	NA	0
13	Nonet	58	58	1192	4	0	0	1018952	692	0	correct_rejection	NA	0
13	Nonet	59	59	1193	5	0	0	1019661	691	0	correct_rejection	NA	0
13	Nonet	60	60	1194	6	0	0	1020369	692	0	correct_rejection	NA	0
13	Nonet	61	61	1195	7	0	0	1021078	691	0	correct_rejection	NA	0
13	Nonet	62	62	1196	8	0	0	1021786	692	0	correct_rejection	NA	0
13	Nonet	63	63	1197	9	0	0	1022495	691	0	correct_rejection	NA	0
13	Nonet	64	64	1198	7	0	0	1023203	692	0	correct_rejection	NA	0
13	Nonet	65	65	1199	8	0	0	1023912	692	0	correct_rejection	NA	0
13	Nonet	66	66	1200	0	1	1	1024621	691	1	hit	328	0
13	Nonet	67	67	1201	9	0	0	1025329	692	0	correct_rejection	NA	0
13	Nonet	68	68	1202	7	0	0	1026038	691	0	correct_rejection	NA	0
13	Nonet	69	69	1203	8	0	0	1026746	692	0	correct_rejection	NA	0
13	Nonet	70	70	1204	9	0	0	1027455	691	0	correct_rejection	NA	0
13	Nonet	71	71	1205	4	0	0	1028163	692	0	correct_rejection	NA	0
13	Nonet	72	72	1206	5	0	0	1028872	692	0	correct_rejection	NA	0
13	Nonet	73	73	1207	6	0	0	1029580	692	0	correct_rejection	NA	0
13	Nonet	74	74	1208	4	0	0	1030289	692	0	correct_rejection	NA	0
13	Nonet	75	75	1209	5	0	0	1030998	691	0	correct_rejection	NA	0
13	Nonet	76	76	1210	6	0	0	1031706	692	0	correct_rejection	NA	0
13	Nonet	77	77	1211	4	0	0	1032415	691	0	correct_rejection	NA	0
13	Nonet	78	78	1212	5	0	0	1033123	692	0	correct_rejection	NA	0
13	Nonet	79	79	1213	6	0	0	1033832	692	0	correct_rejection	NA	0
13	Nonet	80	80	1214	9	0	0	1034540	692	0	correct_rejection	NA	0
13	Nonet	81	81	1215	8	0	0	1035249	692	0	correct_rejection	NA	0
13	Nonet	82	82	1216	0	1	1	1035958	691	1	hit	343	0
13	Nonet	83	83	1217	7	0	0	1036666	692	0	correct_rejection	NA	0
13	Nonet	84	84	1218	9	0	0	1037375	691	0	correct_rejection	NA	0
13	Nonet	85	85	1219	8	0	0	1038083	692	0	correct_rejection	NA	0
13	Nonet	86	86	1220	0	1	1	1038792	692	1	hit	360	0
13	Nonet	87	87	1221	7	0	0	1039500	692	0	correct_rejection	NA	0
13	Nonet	88	88	1222	9	0	0	1040209	692	0	correct_rejection	NA	0
13	Nonet	89	89	1223	8	0	0	1040918	691	0	correct_rejection	NA	0
13	Nonet	90	90	1224	7	0	0	1041626	692	0	correct_rejection	NA	0
13	Nonet	91	91	1225	0	1	3	1042335	691	1	hit	329	0
13	Nonet	92	92	1226	9	0	0	1043043	692	0	correct_rejection	NA	0
13	Nonet	93	93	1227	8	0	0	1043752	691	0	correct_rejection	NA	0
13	Nonet	94	94	1228	7	0	0	1044460	692	0	correct_rejection	NA	0
13	Nonet	95	95	1229	9	0	0	1045169	692	0	correct_rejection	NA	0
13	Nonet	96	96	1230	8	0	0	1045878	691	0	correct_rejection	NA	0
13	Nonet	97	97	1231	7	0	0	1046586	692	0	correct_rejection	NA	0
13	Nonet	98	98	1232	9	0	0	1047295	691	0	correct_rejection	NA	0
13	Nonet	99	99	1233	8	0	0	1048003	692	0	correct_rejection	NA	0
13	Nonet	100	100	1234	7	0	0	1048712	691	0	correct_rejection	NA	0
13	Nonet	101	101	1235	7	0	0	1049420	692	0	correct_rejection	NA	0
13	Nonet	102	102	1236	0	1	1	1050129	692	1	hit	320	0
13	Nonet	103	103	1237	8	0	0	1050837	692	0	correct_rejection	NA	0
13	Nonet	104	104	1238	9	0	0	1051546	692	0	correct_rejection	NA	0
13	Nonet	105	105	1239	7	0	0	1052255	691	0	correct_rejection	NA	0
13	Nonet	106	106	1240	8	0	0	1052963	692	0	correct_rejection	NA	0
13	Nonet	107	107	1241	9	0	0	1053672	691	0	correct_rejection	NA	0
13	Nonet	108	108	1242	7	0	0	1054380	692	0	correct_rejection	NA	0
13	Nonet	109	109	1243	8	0	0	1055089	692	0	correct_rejection	NA	0
13	Nonet	110	110	1244	9	0	0	1055797	692	0	correct_rejection	NA	0
13	Nonet	111	111	1245	6	0	0	1056506	692	0	correct_rejection	NA	0
13	Nonet	112	112	1246	5	0	0	1057215	691	0	correct_rejection	NA	0
13	Nonet	113	113	1247	0	1	1	1057923	692	1	hit	422	0
13	Nonet	114	114	1248	4	0	0	1058632	691	0	correct_rejection	NA	0
13	Nonet	115	115	1249	6	0	0	1059340	692	0	correct_rejection	NA	0
13	Nonet	116	116	1250	5	0	0	1060049	692	0	correct_rejection	NA	0
13	Nonet	117	117	1251	4	0	0	1060757	692	0	correct_rejection	NA	0
13	Nonet	118	118	1252	0	1	2	1061466	692	1	hit	293	0
13	Nonet	119	119	1253	6	0	0	1062175	691	0	correct_rejection	NA	0
13	Nonet	120	120	1254	5	0	0	1062883	692	0	correct_rejection	NA	0
13	Nonet	121	121	1255	4	0	0	1063592	691	0	correct_rejection	NA	0
13	Nonet	122	122	1256	4	0	0	1064300	692	0	correct_rejection	NA	0
13	Nonet	123	123	1257	5	0	0	1065009	692	0	correct_rejection	NA	0
13	Nonet	124	124	1258	6	0	0	1065717	692	0	correct_rejection	NA	0
13	Nonet	125	125	1259	4	0	0	1066426	692	0	correct_rejection	NA	0
13	Nonet	126	126	1260	5	0	0	1067135	691	0	correct_rejection	NA	0
13	Nonet	127	127	1261	0	1	1	1067843	692	1	hit	302	0
13	Nonet	128	128	1262	6	0	0	1068552	691	0	correct_rejection	NA	0
13	Nonet	129	129	1263	4	0	0	1069260	692	0	correct_rejection	NA	0
13	Nonet	130	130	1264	0	1	1	1069969	691	1	hit	333	0
13	Nonet	131	131	1265	5	0	0	1070677	692	0	correct_rejection	NA	0
13	Nonet	132	132	1266	6	0	0	1071386	692	0	correct_rejection	NA	0
13	Nonet	133	133	1267	6	0	0	1072094	692	0	correct_rejection	NA	0
13	Nonet	134	134	1268	5	0	0	1072803	692	0	correct_rejection	NA	0
13	Nonet	135	135	1269	4	0	0	1073512	691	0	correct_rejection	NA	0
13	Nonet	136	136	1270	6	0	0	1074220	692	0	correct_rejection	NA	0
13	Nonet	137	137	1271	5	0	0	1074929	691	0	correct_rejection	NA	0
13	Nonet	138	138	1272	4	0	0	1075637	692	0	correct_rejection	NA	0
13	Nonet	139	139	1273	6	0	0	1076346	692	0	correct_rejection	NA	0
13	Nonet	140	140	1274	5	0	0	1077054	692	0	correct_rejection	NA	0
13	Nonet	141	141	1275	4	0	0	1077763	692	0	correct_rejection	NA	0
13	Nonet	142	142	1276	7	0	0	1078472	691	0	correct_rejection	NA	0
13	Nonet	143	143	1277	8	0	0	1079180	692	0	correct_rejection	NA	0
13	Nonet	144	144	1278	0	1	1	1079889	691	1	hit	368	0
13	Nonet	145	145	1279	9	0	0	1080597	692	0	correct_rejection	NA	0
13	Nonet	146	146	1280	7	0	0	1081306	692	0	correct_rejection	NA	0
13	Nonet	147	147	1281	8	0	0	1082014	692	0	correct_rejection	NA	0
13	Nonet	148	148	1282	9	0	0	1082723	692	0	correct_rejection	NA	0
13	Nonet	149	149	1283	0	1	2	1083432	691	1	hit	344	0
13	Nonet	150	150	1284	7	0	0	1084140	692	0	correct_rejection	NA	0
13	Nonet	151	151	1285	8	0	0	1084849	691	0	correct_rejection	NA	0
13	Nonet	152	152	1286	9	0	0	1085557	692	0	correct_rejection	NA	0
13	Nonet	153	153	1287	7	0	0	1086266	692	0	correct_rejection	NA	0
13	Nonet	154	154	1288	8	0	0	1086974	692	0	correct_rejection	NA	0
13	Nonet	155	155	1289	9	0	0	1087683	692	0	correct_rejection	NA	0
13	Nonet	156	156	1290	7	0	0	1088392	691	0	correct_rejection	NA	0
13	Nonet	157	157	1291	8	0	0	1089100	692	0	correct_rejection	NA	0
13	Nonet	158	158	1292	9	0	0	1089809	691	0	correct_rejection	NA	0
13	Nonet	159	159	1293	0	1	2	1090517	692	1	hit	305	0
13	Nonet	160	160	1294	7	0	0	1091226	691	0	correct_rejection	NA	0
13	Nonet	161	161	1295	8	0	0	1091934	692	0	correct_rejection	NA	0
13	Nonet	162	162	1296	9	0	0	1092643	692	0	correct_rejection	NA	0
13	Single	1	325	1297	9	0	0	1102746	692	0	correct_rejection	NA	7608
13	Single	2	326	1298	5	0	0	1103455	692	0	correct_rejection	NA	0
13	Single	3	327	1299	7	0	0	1104163	692	0	correct_rejection	NA	0
13	Single	4	328	1300	6	0	0	1104872	692	0	correct_rejection	NA	0
13	Single	5	329	1301	0	1	1	1105581	691	1	hit	318	0
13	Single	6	330	1302	9	0	0	1106289	692	0	correct_rejection	NA	0
13	Single	7	331	1303	4	0	0	1106998	691	0	correct_rejection	NA	0
13	Single	8	332	1304	4	0	0	1107706	692	0	correct_rejection	NA	0
13	Single	9	333	1305	7	0	0	1108415	691	0	correct_rejection	NA	0
13	Single	10	334	1306	8	0	0	1109123	692	0	correct_rejection	NA	0
13	Single	11	335	1307	5	0	0	1109832	692	0	correct_rejection	NA	0
13	Single	12	336	1308	9	0	0	1110540	692	0	correct_rejection	NA	0
13	Single	13	337	1309	0	1	1	1111249	692	1	hit	352	0
13	Single	14	338	1310	8	0	0	1111958	691	0	correct_rejection	NA	0
13	Single	15	339	1311	6	0	0	1112666	692	0	correct_rejection	NA	0
13	Single	16	340	1312	7	0	0	1113375	691	0	correct_rejection	NA	0
13	Single	17	341	1313	4	0	0	1114083	692	0	correct_rejection	NA	0
13	Single	18	342	1314	0	1	1	1114792	692	1	hit	302	0
13	Single	19	343	1315	5	0	0	1115500	692	0	correct_rejection	NA	0
13	Single	20	344	1316	8	0	0	1116209	692	0	correct_rejection	NA	0
13	Single	21	345	1317	8	0	0	1116918	691	0	correct_rejection	NA	0
13	Single	22	346	1318	9	0	0	1117626	692	0	correct_rejection	NA	0
13	Single	23	347	1319	7	0	0	1118335	691	0	correct_rejection	NA	0
13	Single	24	348	1320	5	0	0	1119043	692	0	correct_rejection	NA	0
13	Single	25	349	1321	5	0	0	1119752	692	0	correct_rejection	NA	0
13	Single	26	350	1322	4	0	0	1120460	692	0	correct_rejection	NA	0
13	Single	27	351	1323	9	0	0	1121169	692	0	correct_rejection	NA	0
13	Single	28	352	1324	9	0	0	1121878	691	0	correct_rejection	NA	0
13	Single	29	353	1325	6	0	0	1122586	692	0	correct_rejection	NA	0
13	Single	30	354	1326	8	0	0	1123295	691	0	correct_rejection	NA	0
13	Single	31	355	1327	4	0	0	1124003	692	0	correct_rejection	NA	0
13	Single	32	356	1328	6	0	0	1124712	692	0	correct_rejection	NA	0
13	Single	33	357	1329	0	1	1	1125420	692	1	hit	374	0
13	Single	34	358	1330	6	0	0	1126129	692	0	correct_rejection	NA	0
13	Single	35	359	1331	5	0	0	1126838	691	0	correct_rejection	NA	0
13	Single	36	360	1332	6	0	0	1127546	692	0	correct_rejection	NA	0
13	Single	37	361	1333	4	0	0	1128255	691	0	correct_rejection	NA	0
13	Single	38	362	1334	8	0	0	1128963	692	0	correct_rejection	NA	0
13	Single	39	363	1335	7	0	0	1129672	691	0	correct_rejection	NA	0
13	Single	40	364	1336	7	0	0	1130380	692	0	correct_rejection	NA	0
13	Single	41	365	1337	5	0	0	1131089	692	0	correct_rejection	NA	0
13	Single	42	366	1338	8	0	0	1131797	692	0	correct_rejection	NA	0
13	Single	43	367	1339	4	0	0	1132506	692	0	correct_rejection	NA	0
13	Single	44	368	1340	5	0	0	1133215	691	0	correct_rejection	NA	0
13	Single	45	369	1341	6	0	0	1133923	692	0	correct_rejection	NA	0
13	Single	46	370	1342	8	0	0	1134632	691	0	correct_rejection	NA	0
13	Single	47	371	1343	6	0	0	1135340	692	0	correct_rejection	NA	0
13	Single	48	372	1344	6	0	0	1136049	692	0	correct_rejection	NA	0
13	Single	49	373	1345	0	1	1	1136757	692	1	hit	348	0
13	Single	50	374	1346	4	0	0	1137466	692	0	correct_rejection	NA	0
13	Single	51	375	1347	7	0	0	1138175	691	0	correct_rejection	NA	0
13	Single	52	376	1348	9	0	0	1138883	692	0	correct_rejection	NA	0
13	Single	53	377	1349	0	1	1	1139592	691	1	hit	371	0
13	Single	54	378	1350	7	0	0	1140300	692	0	correct_rejection	NA	0
13	Single	55	379	1351	7	0	0	1141009	692	0	correct_rejection	NA	0
13	Single	56	380	1352	8	0	0	1141717	692	0	correct_rejection	NA	0
13	Single	57	381	1353	0	1	1	1142426	692	1	hit	349	0
13	Single	58	382	1354	7	0	0	1143135	691	0	correct_rejection	NA	0
13	Single	59	383	1355	4	0	0	1143843	692	0	correct_rejection	NA	0
13	Single	60	384	1356	0	1	1	1144552	691	1	hit	326	0
13	Single	61	385	1357	9	0	0	1145260	692	0	correct_rejection	NA	0
13	Single	62	386	1358	8	0	0	1145969	692	0	correct_rejection	NA	0
13	Single	63	387	1359	9	0	0	1146677	692	0	correct_rejection	NA	0
13	Single	64	388	1360	5	0	0	1147386	692	0	correct_rejection	NA	0
13	Single	65	389	1361	5	0	0	1148095	691	0	correct_rejection	NA	0
13	Single	66	390	1362	7	0	0	1148803	692	0	correct_rejection	NA	0
13	Single	67	391	1363	5	0	0	1149512	691	0	correct_rejection	NA	0
13	Single	68	392	1364	9	0	0	1150220	692	0	correct_rejection	NA	0
13	Single	69	393	1365	6	0	0	1150929	691	0	correct_rejection	NA	0
13	Single	70	394	1366	9	0	0	1151637	692	0	correct_rejection	NA	0
13	Single	71	395	1367	9	0	0	1152346	692	0	correct_rejection	NA	0
13	Single	72	396	1368	4	0	0	1153054	692	0	correct_rejection	NA	0
13	Single	73	397	1369	6	0	0	1153763	692	0	correct_rejection	NA	0
13	Single	74	398	1370	7	0	0	1154472	691	0	correct_rejection	NA	0
13	Single	75	399	1371	6	0	0	1155180	692	0	correct_rejection	NA	0
13	Single	76	400	1372	5	0	0	1155889	691	0	correct_rejection	NA	0
13	Single	77	401	1373	0	1	1	1156597	692	1	hit	332	0
13	Single	78	402	1374	4	0	0	1157306	692	0	correct_rejection	NA	0
13	Single	79	403	1375	4	0	0	1158014	692	0	correct_rejection	NA	0
13	Single	80	404	1376	8	0	0	1158723	692	0	correct_rejection	NA	0
13	Single	81	405	1377	8	0	0	1159432	691	0	correct_rejection	NA	0
13	Single	82	406	1378	0	1	1	1160140	692	1	hit	393	0
13	Single	83	407	1379	8	0	0	1160849	691	0	correct_rejection	NA	0
13	Single	84	408	1380	4	0	0	1161557	692	0	correct_rejection	NA	0
13	Single	85	409	1381	9	0	0	1162266	692	0	correct_rejection	NA	0
13	Single	86	410	1382	7	0	0	1162974	692	0	correct_rejection	NA	0
13	Single	87	411	1383	4	0	0	1163683	692	0	correct_rejection	NA	0
13	Single	88	412	1384	8	0	0	1164392	691	0	correct_rejection	NA	0
13	Single	89	413	1385	9	0	0	1165100	692	0	correct_rejection	NA	0
13	Single	90	414	1386	4	0	0	1165809	691	0	correct_rejection	NA	0
13	Single	91	415	1387	7	0	0	1166517	692	0	correct_rejection	NA	0
13	Single	92	416	1388	6	0	0	1167226	692	0	correct_rejection	NA	0
13	Single	93	417	1389	6	0	0	1167934	692	0	correct_rejection	NA	0
13	Single	94	418	1390	0	1	1	1168643	692	1	hit	364	0
13	Single	95	419	1391	8	0	0	1169352	691	0	correct_rejection	NA	0
13	Single	96	420	1392	8	0	0	1170060	692	0	correct_rejection	NA	0
13	Single	97	421	1393	5	0	0	1170769	691	0	correct_rejection	NA	0
13	Single	98	422	1394	5	0	0	1171477	692	0	correct_rejection	NA	0
13	Single	99	423	1395	6	0	0	1172186	691	0	correct_rejection	NA	0
13	Single	100	424	1396	0	1	1	1172894	692	1	hit	347	0
13	Single	101	425	1397	7	0	0	1173603	692	0	correct_rejection	NA	0
13	Single	102	426	1398	9	0	0	1174312	691	0	correct_rejection	NA	0
13	Single	103	427	1399	6	0	0	1175020	692	0	correct_rejection	NA	0
13	Single	104	428	1400	4	0	0	1175729	691	0	correct_rejection	NA	0
13	Single	105	429	1401	4	0	0	1176437	692	0	correct_rejection	NA	0
13	Single	106	430	1402	6	0	0	1177146	691	0	correct_rejection	NA	0
13	Single	107	431	1403	9	0	0	1177854	692	0	correct_rejection	NA	0
13	Single	108	432	1404	5	0	0	1178563	692	0	correct_rejection	NA	0
13	Single	109	433	1405	4	0	0	1179271	692	0	correct_rejection	NA	0
13	Single	110	434	1406	5	0	0	1179980	692	0	correct_rejection	NA	0
13	Single	111	435	1407	9	0	0	1180689	691	0	correct_rejection	NA	0
13	Single	112	436	1408	9	0	0	1181397	692	0	correct_rejection	NA	0
13	Single	113	437	1409	8	0	0	1182106	691	0	correct_rejection	NA	0
13	Single	114	438	1410	7	0	0	1182814	692	0	correct_rejection	NA	0
13	Single	115	439	1411	8	0	0	1183523	692	0	correct_rejection	NA	0
13	Single	116	440	1412	6	0	0	1184231	692	0	correct_rejection	NA	0
13	Single	117	441	1413	5	0	0	1184940	692	0	correct_rejection	NA	0
13	Single	118	442	1414	7	0	0	1185649	691	0	correct_rejection	NA	0
13	Single	119	443	1415	7	0	0	1186357	692	0	correct_rejection	NA	0
13	Single	120	444	1416	5	0	0	1187066	691	0	correct_rejection	NA	0
13	Single	121	445	1417	8	0	0	1187774	692	0	correct_rejection	NA	0
13	Single	122	446	1418	7	0	0	1188483	692	0	correct_rejection	NA	0
13	Single	123	447	1419	9	0	0	1189191	692	0	correct_rejection	NA	0
13	Single	124	448	1420	0	1	1	1189900	692	1	hit	329	0
13	Single	125	449	1421	9	0	0	1190609	691	0	correct_rejection	NA	0
13	Single	126	450	1422	6	0	0	1191317	692	0	correct_rejection	NA	0
13	Single	127	451	1423	0	1	1	1192026	691	1	hit	475	0
13	Single	128	452	1424	5	0	0	1192734	692	0	correct_rejection	NA	0
13	Single	129	453	1425	5	0	0	1193443	691	0	correct_rejection	NA	0
13	Single	130	454	1426	9	0	0	1194151	692	0	correct_rejection	NA	0
13	Single	131	455	1427	4	0	0	1194860	692	0	correct_rejection	NA	0
13	Single	132	456	1428	9	0	0	1195569	691	0	correct_rejection	NA	0
13	Single	133	457	1429	5	0	0	1196277	692	0	correct_rejection	NA	0
13	Single	134	458	1430	7	0	0	1196986	691	0	correct_rejection	NA	0
13	Single	135	459	1431	4	0	0	1197694	692	0	correct_rejection	NA	0
13	Single	136	460	1432	4	0	0	1198403	691	0	correct_rejection	NA	0
13	Single	137	461	1433	5	0	0	1199111	692	0	correct_rejection	NA	0
13	Single	138	462	1434	8	0	0	1199820	692	0	correct_rejection	NA	0
13	Single	139	463	1435	8	0	0	1200528	692	0	correct_rejection	NA	0
13	Single	140	464	1436	0	1	1	1201237	692	1	hit	441	0
13	Single	141	465	1437	9	0	0	1201946	691	0	correct_rejection	NA	0
13	Single	142	466	1438	7	0	0	1202654	692	0	correct_rejection	NA	0
13	Single	143	467	1439	8	0	0	1203363	691	0	correct_rejection	NA	0
13	Single	144	468	1440	4	0	0	1204071	692	0	correct_rejection	NA	0
13	Single	145	469	1441	8	0	0	1204780	692	0	correct_rejection	NA	0
13	Single	146	470	1442	6	0	0	1205488	692	0	correct_rejection	NA	0
13	Single	147	471	1443	9	0	0	1206197	692	0	correct_rejection	NA	0
13	Single	148	472	1444	8	0	0	1206906	691	0	correct_rejection	NA	0
13	Single	149	473	1445	0	1	1	1207614	692	1	hit	329	0
13	Single	150	474	1446	5	0	0	1208323	691	0	correct_rejection	NA	0
13	Single	151	475	1447	4	0	0	1209031	692	0	correct_rejection	NA	0
13	Single	152	476	1448	0	1	1	1209740	692	1	hit	339	0
13	Single	153	477	1449	7	0	0	1210448	692	0	correct_rejection	NA	0
13	Single	154	478	1450	5	0	0	1211157	692	0	correct_rejection	NA	0
13	Single	155	479	1451	0	1	1	1211866	691	1	hit	537	0
13	Single	156	480	1452	6	0	0	1212574	692	0	correct_rejection	NA	0
13	Single	157	481	1453	6	0	0	1213283	691	0	correct_rejection	NA	0
13	Single	158	482	1454	7	0	0	1213991	692	0	correct_rejection	NA	0
13	Single	159	483	1455	7	0	0	1214700	692	0	correct_rejection	NA	0
13	Single	160	484	1456	6	0	0	1215408	692	0	correct_rejection	NA	0
13	Single	161	485	1457	4	0	0	1216117	692	0	correct_rejection	NA	0
13	Single	162	486	1458	6	0	0	1216826	691	0	correct_rejection	NA	0
13	Triplet	1	325	1459	6	0	0	1225503	692	0	correct_rejection	NA	6378
13	Triplet	2	326	1460	5	0	0	1226212	692	0	correct_rejection	NA	0
13	Triplet	3	327	1461	4	0	0	1226921	691	0	correct_rejection	NA	0
13	Triplet	4	328	1462	6	0	0	1227629	692	0	correct_rejection	NA	0
13	Triplet	5	329	1463	5	0	0	1228338	691	0	correct_rejection	NA	0
13	Triplet	6	330	1464	4	0	0	1229046	692	0	correct_rejection	NA	0
13	Triplet	7	331	1465	9	0	0	1229755	691	0	correct_rejection	NA	0
13	Triplet	8	332	1466	8	0	0	1230463	692	0	correct_rejection	NA	0
13	Triplet	9	333	1467	7	0	0	1231172	692	0	correct_rejection	NA	0
13	Triplet	10	334	1468	9	0	0	1231880	692	0	correct_rejection	NA	0
13	Triplet	11	335	1469	8	0	0	1232589	692	0	correct_rejection	NA	0
13	Triplet	12	336	1470	7	0	0	1233298	691	0	correct_rejection	NA	0
13	Triplet	13	337	1471	7	0	0	1234006	692	0	correct_rejection	NA	0
13	Triplet	14	338	1472	0	1	1	1234715	691	1	hit	358	0
13	Triplet	15	339	1473	8	0	0	1235423	692	0	correct_rejection	NA	0
13	Triplet	16	340	1474	9	0	0	1236132	692	0	correct_rejection	NA	0
13	Triplet	17	341	1475	9	0	0	1236840	692	0	correct_rejection	NA	0
13	Triplet	18	342	1476	8	0	0	1237549	692	0	correct_rejection	NA	0
13	Triplet	19	343	1477	7	0	0	1238258	691	0	correct_rejection	NA	0
13	Triplet	20	344	1478	6	0	0	1238966	692	0	correct_rejection	NA	0
13	Triplet	21	345	1479	5	0	0	1239675	691	0	correct_rejection	NA	0
13	Triplet	22	346	1480	4	0	0	1240383	692	0	correct_rejection	NA	0
13	Triplet	23	347	1481	7	0	0	1241092	692	0	correct_rejection	NA	0
13	Triplet	24	348	1482	8	0	0	1241800	692	0	correct_rejection	NA	0
13	Triplet	25	349	1483	9	0	0	1242509	692	0	correct_rejection	NA	0
13	Triplet	26	350	1484	4	0	0	1243218	691	0	correct_rejection	NA	0
13	Triplet	27	351	1485	5	0	0	1243926	692	0	correct_rejection	NA	0
13	Triplet	28	352	1486	6	0	0	1244635	691	0	correct_rejection	NA	0
13	Triplet	29	353	1487	6	0	0	1245343	692	0	correct_rejection	NA	0
13	Triplet	30	354	1488	0	1	1	1246052	692	1	hit	331	0
13	Triplet	31	355	1489	5	0	0	1246760	692	0	correct_rejection	NA	0
13	Triplet	32	356	1490	4	0	0	1247469	692	0	correct_rejection	NA	0
13	Triplet	33	357	1491	4	0	0	1248178	691	0	correct_rejection	NA	0
13	Triplet	34	358	1492	5	0	0	1248886	692	0	correct_rejection	NA	0
13	Triplet	35	359	1493	6	0	0	1249595	691	0	correct_rejection	NA	0
13	Triplet	36	360	1494	9	0	0	1250303	692	0	correct_rejection	NA	0
13	Triplet	37	361	1495	8	0	0	1251012	691	0	correct_rejection	NA	0
13	Triplet	38	362	1496	7	0	0	1251720	692	0	correct_rejection	NA	0
13	Triplet	39	363	1497	4	0	0	1252429	692	0	correct_rejection	NA	0
13	Triplet	40	364	1498	5	0	0	1253137	692	0	correct_rejection	NA	0
13	Triplet	41	365	1499	6	0	0	1253846	692	0	correct_rejection	NA	0
13	Triplet	42	366	1500	4	0	0	1254555	691	0	correct_rejection	NA	0
13	Triplet	43	367	1501	0	1	1	1255263	692	1	hit	335	0
13	Triplet	44	368	1502	5	0	0	1255972	691	0	correct_rejection	NA	0
13	Triplet	45	369	1503	6	0	0	1256680	692	0	correct_rejection	NA	0
13	Triplet	46	370	1504	7	0	0	1257389	692	0	correct_rejection	NA	0
13	Triplet	47	371	1505	8	0	0	1258097	692	0	correct_rejection	NA	0
13	Triplet	48	372	1506	9	0	0	1258806	692	0	correct_rejection	NA	0
13	Triplet	49	373	1507	7	0	0	1259515	691	0	correct_rejection	NA	0
13	Triplet	50	374	1508	8	0	0	1260223	692	0	correct_rejection	NA	0
13	Triplet	51	375	1509	9	0	0	1260932	691	0	correct_rejection	NA	0
13	Triplet	52	376	1510	0	1	2	1261640	692	1	hit	319	0
13	Triplet	53	377	1511	6	0	0	1262349	692	0	correct_rejection	NA	0
13	Triplet	54	378	1512	5	0	0	1263057	692	0	correct_rejection	NA	0
13	Triplet	55	379	1513	4	0	0	1263766	692	0	correct_rejection	NA	0
13	Triplet	56	380	1514	0	1	2	1264475	691	1	hit	370	0
13	Triplet	57	381	1515	7	0	0	1265183	692	0	correct_rejection	NA	0
13	Triplet	58	382	1516	8	0	0	1265892	691	0	correct_rejection	NA	0
13	Triplet	59	383	1517	9	0	0	1266600	692	0	correct_rejection	NA	0
13	Triplet	60	384	1518	9	0	0	1267309	692	0	correct_rejection	NA	0
13	Triplet	61	385	1519	8	0	0	1268017	692	0	correct_rejection	NA	0
13	Triplet	62	386	1520	7	0	0	1268726	692	0	correct_rejection	NA	0
13	Triplet	63	387	1521	4	0	0	1269435	691	0	correct_rejection	NA	0
13	Triplet	64	388	1522	5	0	0	1270143	692	0	correct_rejection	NA	0
13	Triplet	65	389	1523	6	0	0	1270852	691	0	correct_rejection	NA	0
13	Triplet	66	390	1524	7	0	0	1271560	692	0	correct_rejection	NA	0
13	Triplet	67	391	1525	8	0	0	1272269	691	0	correct_rejection	NA	0
13	Triplet	68	392	1526	0	1	1	1272977	692	1	hit	353	0
13	Triplet	69	393	1527	9	0	0	1273686	692	0	correct_rejection	NA	0
13	Triplet	70	394	1528	4	0	0	1274394	692	0	correct_rejection	NA	0
13	Triplet	71	395	1529	5	0	0	1275103	692	0	correct_rejection	NA	0
13	Triplet	72	396	1530	0	1	1	1275812	691	1	hit	367	0
13	Triplet	73	397	1531	6	0	0	1276520	692	0	correct_rejection	NA	0
13	Triplet	74	398	1532	4	0	0	1277229	691	0	correct_rejection	NA	0
13	Triplet	75	399	1533	0	1	1	1277937	692	1	hit	406	0
13	Triplet	76	400	1534	5	0	0	1278646	692	0	correct_rejection	NA	0
13	Triplet	77	401	1535	6	0	0	1279354	692	0	correct_rejection	NA	0
13	Triplet	78	402	1536	9	0	0	1280063	692	0	correct_rejection	NA	0
13	Triplet	79	403	1537	0	1	1	1280772	691	1	hit	342	0
13	Triplet	80	404	1538	8	0	0	1281480	692	0	correct_rejection	NA	0
13	Triplet	81	405	1539	7	0	0	1282189	691	0	correct_rejection	NA	0
13	Triplet	82	406	1540	9	0	0	1282897	692	0	correct_rejection	NA	0
13	Triplet	83	407	1541	8	0	0	1283606	692	0	correct_rejection	NA	0
13	Triplet	84	408	1542	7	0	0	1284314	692	0	correct_rejection	NA	0
13	Triplet	85	409	1543	6	0	0	1285023	692	0	correct_rejection	NA	0
13	Triplet	86	410	1544	5	0	0	1285732	691	0	correct_rejection	NA	0
13	Triplet	87	411	1545	4	0	0	1286440	692	0	correct_rejection	NA	0
13	Triplet	88	412	1546	4	0	0	1287149	691	0	correct_rejection	NA	0
13	Triplet	89	413	1547	5	0	0	1287857	692	0	correct_rejection	NA	0
13	Triplet	90	414	1548	6	0	0	1288566	692	0	correct_rejection	NA	0
13	Triplet	91	415	1549	6	0	0	1289274	692	0	correct_rejection	NA	0
13	Triplet	92	416	1550	5	0	0	1289983	692	0	correct_rejection	NA	0
13	Triplet	93	417	1551	4	0	0	1290692	691	0	correct_rejection	NA	0
13	Triplet	94	418	1552	9	0	0	1291400	692	0	correct_rejection	NA	0
13	Triplet	95	419	1553	8	0	0	1292109	691	0	correct_rejection	NA	0
13	Triplet	96	420	1554	7	0	0	1292817	692	0	correct_rejection	NA	0
13	Triplet	97	421	1555	0	1	2	1293526	691	1	hit	435	0
13	Triplet	98	422	1556	7	0	0	1294234	692	0	correct_rejection	NA	0
13	Triplet	99	423	1557	8	0	0	1294943	692	0	correct_rejection	NA	0
13	Triplet	100	424	1558	9	0	0	1295651	692	0	correct_rejection	NA	0
13	Triplet	101	425	1559	7	0	0	1296360	692	0	correct_rejection	NA	0
13	Triplet	102	426	1560	8	0	0	1297069	691	0	correct_rejection	NA	0
13	Triplet	103	427	1561	9	0	0	1297777	692	0	correct_rejection	NA	0
13	Triplet	104	428	1562	6	0	0	1298486	691	0	correct_rejection	NA	0
13	Triplet	105	429	1563	5	0	0	1299194	692	0	correct_rejection	NA	0
13	Triplet	106	430	1564	4	0	0	1299903	692	0	correct_rejection	NA	0
13	Triplet	107	431	1565	0	1	2	1300611	692	1	hit	316	0
13	Triplet	108	432	1566	6	0	0	1301320	692	0	correct_rejection	NA	0
13	Triplet	109	433	1567	5	0	0	1302029	691	0	correct_rejection	NA	0
13	Triplet	110	434	1568	0	1	1	1302737	692	1	hit	442	0
13	Triplet	111	435	1569	4	0	0	1303446	691	0	correct_rejection	NA	0
13	Triplet	112	436	1570	9	0	0	1304154	692	0	correct_rejection	NA	0
13	Triplet	113	437	1571	8	0	0	1304863	692	0	correct_rejection	NA	0
13	Triplet	114	438	1572	7	0	0	1305571	692	0	correct_rejection	NA	0
13	Triplet	115	439	1573	4	0	0	1306280	692	0	correct_rejection	NA	0
13	Triplet	116	440	1574	5	0	0	1306989	691	0	correct_rejection	NA	0
13	Triplet	117	441	1575	6	0	0	1307697	692	0	correct_rejection	NA	0
13	Triplet	118	442	1576	9	0	0	1308406	691	0	correct_rejection	NA	0
13	Triplet	119	443	1577	8	0	0	1309114	692	0	correct_rejection	NA	0
13	Triplet	120	444	1578	7	0	0	1309823	692	0	correct_rejection	NA	0
13	Triplet	121	445	1579	7	0	0	1310531	692	0	correct_rejection	NA	0
13	Triplet	122	446	1580	8	0	0	1311240	692	0	correct_rejection	NA	0
13	Triplet	123	447	1581	9	0	0	1311949	691	0	correct_rejection	NA	0
13	Triplet	124	448	1582	6	0	0	1312657	692	0	correct_rejection	NA	0
13	Triplet	125	449	1583	5	0	0	1313366	691	0	correct_rejection	NA	0
13	Triplet	126	450	1584	4	0	0	1314074	692	0	correct_rejection	NA	0
13	Triplet	127	451	1585	4	0	0	1314783	691	0	correct_rejection	NA	0
13	Triplet	128	452	1586	0	1	1	1315491	692	1	hit	327	0
13	Triplet	129	453	1587	5	0	0	1316200	692	0	correct_rejection	NA	0
13	Triplet	130	454	1588	6	0	0	1316909	691	0	correct_rejection	NA	0
13	Triplet	131	455	1589	0	1	2	1317617	692	1	hit	393	0
13	Triplet	132	456	1590	4	0	0	1318326	691	0	correct_rejection	NA	0
13	Triplet	133	457	1591	5	0	0	1319034	692	0	correct_rejection	NA	0
13	Triplet	134	458	1592	6	0	0	1319743	691	0	correct_rejection	NA	0
13	Triplet	135	459	1593	6	0	0	1320451	692	0	correct_rejection	NA	0
13	Triplet	136	460	1594	5	0	0	1321160	692	0	correct_rejection	NA	0
13	Triplet	137	461	1595	4	0	0	1321868	692	0	correct_rejection	NA	0
13	Triplet	138	462	1596	6	0	0	1322577	692	0	correct_rejection	NA	0
