ID	block	trial_block	trial_cat	trial_total	number	violation	level_violation	onset	duration	Response	Hit_Miss	RT	pre_trial_fixcross_ISI
first_trigger_at: 11399
trigger nr 4 at 14399
14	Triplet	1	1	1	9	0	0	22265	692	0	correct_rejection	NA	7829
14	Triplet	2	2	2	8	0	0	22974	691	0	correct_rejection	NA	0
14	Triplet	3	3	3	7	0	0	23682	692	0	correct_rejection	NA	0
14	Triplet	4	4	4	6	0	0	24391	692	0	correct_rejection	NA	0
14	Triplet	5	5	5	5	0	0	25099	692	0	correct_rejection	NA	0
14	Triplet	6	6	6	4	0	0	25808	692	0	correct_rejection	NA	0
14	Triplet	7	7	7	7	0	0	26517	691	0	correct_rejection	NA	0
14	Triplet	8	8	8	8	0	0	27225	692	0	correct_rejection	NA	0
14	Triplet	9	9	9	9	0	0	27934	691	0	correct_rejection	NA	0
14	Triplet	10	10	10	7	0	0	28642	692	0	correct_rejection	NA	0
14	Triplet	11	11	11	8	0	0	29351	692	0	correct_rejection	NA	0
14	Triplet	12	12	12	9	0	0	30059	692	0	correct_rejection	NA	0
14	Triplet	13	13	13	0	1	2	30768	692	1	hit	343	0
14	Triplet	14	14	14	4	0	0	31477	691	0	correct_rejection	NA	0
14	Triplet	15	15	15	5	0	0	32185	692	0	correct_rejection	NA	0
14	Triplet	16	16	16	0	1	1	32894	691	1	hit	424	0
14	Triplet	17	17	17	6	0	0	33602	692	0	correct_rejection	NA	0
14	Triplet	18	18	18	6	0	0	34311	692	0	correct_rejection	NA	0
14	Triplet	19	19	19	0	1	1	35019	692	1	hit	418	0
14	Triplet	20	20	20	5	0	0	35728	692	0	correct_rejection	NA	0
14	Triplet	21	21	21	4	0	0	36437	691	0	correct_rejection	NA	0
14	Triplet	22	22	22	4	0	0	37145	692	0	correct_rejection	NA	0
14	Triplet	23	23	23	5	0	0	37854	691	0	correct_rejection	NA	0
14	Triplet	24	24	24	6	0	0	38562	692	0	correct_rejection	NA	0
14	Triplet	25	25	25	0	1	2	39271	691	1	hit	306	0
14	Triplet	26	26	26	7	0	0	39979	692	0	correct_rejection	NA	0
14	Triplet	27	27	27	8	0	0	40688	692	0	correct_rejection	NA	0
14	Triplet	28	28	28	9	0	0	41396	692	0	correct_rejection	NA	0
14	Triplet	29	29	29	9	0	0	42105	692	0	correct_rejection	NA	0
14	Triplet	30	30	30	8	0	0	42814	691	1	false_alarm	49	0
14	Triplet	31	31	31	7	0	0	43522	692	0	correct_rejection	NA	0
14	Triplet	32	32	32	7	0	0	44231	691	0	correct_rejection	NA	0
14	Triplet	33	33	33	8	0	0	44939	692	0	correct_rejection	NA	0
14	Triplet	34	34	34	9	0	0	45648	692	0	correct_rejection	NA	0
14	Triplet	35	35	35	6	0	0	46356	692	0	correct_rejection	NA	0
14	Triplet	36	36	36	5	0	0	47065	692	0	correct_rejection	NA	0
14	Triplet	37	37	37	4	0	0	47774	691	0	correct_rejection	NA	0
14	Triplet	38	38	38	6	0	0	48482	692	0	correct_rejection	NA	0
14	Triplet	39	39	39	5	0	0	49191	691	0	correct_rejection	NA	0
14	Triplet	40	40	40	4	0	0	49899	692	0	correct_rejection	NA	0
14	Triplet	41	41	41	9	0	0	50608	692	0	correct_rejection	NA	0
14	Triplet	42	42	42	8	0	0	51316	692	0	correct_rejection	NA	0
14	Triplet	43	43	43	7	0	0	52025	692	0	correct_rejection	NA	0
14	Triplet	44	44	44	9	0	0	52734	691	0	correct_rejection	NA	0
14	Triplet	45	45	45	8	0	0	53442	692	0	correct_rejection	NA	0
14	Triplet	46	46	46	7	0	0	54151	691	0	correct_rejection	NA	0
14	Triplet	47	47	47	0	1	2	54859	692	1	hit	509	0
14	Triplet	48	48	48	4	0	0	55568	692	0	correct_rejection	NA	0
14	Triplet	49	49	49	5	0	0	56276	692	0	correct_rejection	NA	0
14	Triplet	50	50	50	0	1	1	56985	692	1	hit	554	0
14	Triplet	51	51	51	6	0	0	57694	691	0	correct_rejection	NA	0
14	Triplet	52	52	52	4	0	0	58402	692	0	correct_rejection	NA	0
14	Triplet	53	53	53	5	0	0	59111	691	0	correct_rejection	NA	0
14	Triplet	54	54	54	6	0	0	59819	692	0	correct_rejection	NA	0
14	Triplet	55	55	55	9	0	0	60528	692	0	correct_rejection	NA	0
14	Triplet	56	56	56	8	0	0	61236	692	0	correct_rejection	NA	0
14	Triplet	57	57	57	7	0	0	61945	692	0	correct_rejection	NA	0
14	Triplet	58	58	58	4	0	0	62654	691	0	correct_rejection	NA	0
14	Triplet	59	59	59	5	0	0	63362	692	0	correct_rejection	NA	0
14	Triplet	60	60	60	6	0	0	64071	691	0	correct_rejection	NA	0
14	Triplet	61	61	61	0	1	2	64779	692	1	hit	441	0
14	Triplet	62	62	62	6	0	0	65488	691	0	correct_rejection	NA	0
14	Triplet	63	63	63	5	0	0	66196	692	0	correct_rejection	NA	0
14	Triplet	64	64	64	0	1	1	66905	692	1	hit	399	0
14	Triplet	65	65	65	4	0	0	67613	692	0	correct_rejection	NA	0
14	Triplet	66	66	66	6	0	0	68322	692	0	correct_rejection	NA	0
14	Triplet	67	67	67	5	0	0	69031	691	0	correct_rejection	NA	0
14	Triplet	68	68	68	4	0	0	69739	692	0	correct_rejection	NA	0
14	Triplet	69	69	69	0	1	2	70448	691	1	hit	367	0
14	Triplet	70	70	70	7	0	0	71156	692	0	correct_rejection	NA	0
14	Triplet	71	71	71	8	0	0	71865	692	0	correct_rejection	NA	0
14	Triplet	72	72	72	0	1	1	72573	692	1	hit	430	0
14	Triplet	73	73	73	9	0	0	73282	692	0	correct_rejection	NA	0
14	Triplet	74	74	74	4	0	0	73991	691	0	correct_rejection	NA	0
14	Triplet	75	75	75	0	1	1	74699	692	1	hit	429	0
14	Triplet	76	76	76	5	0	0	75408	691	0	correct_rejection	NA	0
14	Triplet	77	77	77	6	0	0	76116	692	0	correct_rejection	NA	0
14	Triplet	78	78	78	9	0	0	76825	692	0	correct_rejection	NA	0
14	Triplet	79	79	79	8	0	0	77533	692	0	correct_rejection	NA	0
14	Triplet	80	80	80	7	0	0	78242	692	0	correct_rejection	NA	0
14	Triplet	81	81	81	7	0	0	78951	691	0	correct_rejection	NA	0
14	Triplet	82	82	82	8	0	0	79659	692	0	correct_rejection	NA	0
14	Triplet	83	83	83	9	0	0	80368	691	0	correct_rejection	NA	0
14	Triplet	84	84	84	0	1	2	81076	692	1	hit	401	0
14	Triplet	85	85	85	9	0	0	81785	692	0	correct_rejection	NA	0
14	Triplet	86	86	86	8	0	0	82493	692	0	correct_rejection	NA	0
14	Triplet	87	87	87	7	0	0	83202	692	0	correct_rejection	NA	0
14	Triplet	88	88	88	6	0	0	83911	691	0	correct_rejection	NA	0
14	Triplet	89	89	89	5	0	0	84619	692	0	correct_rejection	NA	0
14	Triplet	90	90	90	4	0	0	85328	691	0	correct_rejection	NA	0
14	Triplet	91	91	91	4	0	0	86036	692	0	correct_rejection	NA	0
14	Triplet	92	92	92	5	0	0	86745	692	0	correct_rejection	NA	0
14	Triplet	93	93	93	6	0	0	87453	692	0	correct_rejection	NA	0
14	Triplet	94	94	94	4	0	0	88162	692	0	correct_rejection	NA	0
14	Triplet	95	95	95	0	1	1	88871	691	1	hit	391	0
14	Triplet	96	96	96	5	0	0	89579	692	0	correct_rejection	NA	0
14	Triplet	97	97	97	6	0	0	90288	691	0	correct_rejection	NA	0
14	Triplet	98	98	98	7	0	0	90996	692	0	correct_rejection	NA	0
14	Triplet	99	99	99	8	0	0	91705	691	0	correct_rejection	NA	0
14	Triplet	100	100	100	9	0	0	92413	692	0	correct_rejection	NA	0
14	Triplet	101	101	101	7	0	0	93122	692	0	correct_rejection	NA	0
14	Triplet	102	102	102	8	0	0	93830	692	0	correct_rejection	NA	0
14	Triplet	103	103	103	9	0	0	94539	692	0	correct_rejection	NA	0
14	Triplet	104	104	104	6	0	0	95248	691	0	correct_rejection	NA	0
14	Triplet	105	105	105	5	0	0	95956	692	0	correct_rejection	NA	0
14	Triplet	106	106	106	4	0	0	96665	691	0	correct_rejection	NA	0
14	Triplet	107	107	107	9	0	0	97373	692	0	correct_rejection	NA	0
14	Triplet	108	108	108	8	0	0	98082	692	0	correct_rejection	NA	0
14	Triplet	109	109	109	0	1	1	98790	692	1	hit	390	0
14	Triplet	110	110	110	7	0	0	99499	692	0	correct_rejection	NA	0
14	Triplet	111	111	111	7	0	0	100208	691	0	correct_rejection	NA	0
14	Triplet	112	112	112	8	0	0	100916	692	0	correct_rejection	NA	0
14	Triplet	113	113	113	9	0	0	101625	691	0	correct_rejection	NA	0
14	Triplet	114	114	114	4	0	0	102333	692	0	correct_rejection	NA	0
14	Triplet	115	115	115	5	0	0	103042	692	0	correct_rejection	NA	0
14	Triplet	116	116	116	6	0	0	103750	692	0	correct_rejection	NA	0
14	Triplet	117	117	117	4	0	0	104459	692	0	correct_rejection	NA	0
14	Triplet	118	118	118	5	0	0	105168	691	0	correct_rejection	NA	0
14	Triplet	119	119	119	6	0	0	105876	692	0	correct_rejection	NA	0
14	Triplet	120	120	120	0	1	2	106585	691	1	hit	479	0
14	Triplet	121	121	121	9	0	0	107293	692	0	correct_rejection	NA	0
14	Triplet	122	122	122	8	0	0	108002	692	0	correct_rejection	NA	0
14	Triplet	123	123	123	7	0	0	108710	692	0	correct_rejection	NA	0
14	Triplet	124	124	124	4	0	0	109419	692	0	correct_rejection	NA	0
14	Triplet	125	125	125	5	0	0	110128	691	0	correct_rejection	NA	0
14	Triplet	126	126	126	6	0	0	110836	692	0	correct_rejection	NA	0
14	Triplet	127	127	127	7	0	0	111545	691	0	correct_rejection	NA	0
14	Triplet	128	128	128	8	0	0	112253	692	0	correct_rejection	NA	0
14	Triplet	129	129	129	0	1	1	112962	692	1	hit	521	0
14	Triplet	130	130	130	9	0	0	113670	692	0	correct_rejection	NA	0
14	Triplet	131	131	131	6	0	0	114379	692	0	correct_rejection	NA	0
14	Triplet	132	132	132	5	0	0	115088	691	0	correct_rejection	NA	0
14	Triplet	133	133	133	4	0	0	115796	692	0	correct_rejection	NA	0
14	Triplet	134	134	134	0	1	2	116505	691	1	hit	492	0
14	Triplet	135	135	135	4	0	0	117213	692	0	correct_rejection	NA	0
14	Triplet	136	136	136	5	0	0	117922	691	0	correct_rejection	NA	0
14	Triplet	137	137	137	6	0	0	118630	692	0	correct_rejection	NA	0
14	Triplet	138	138	138	6	0	0	119339	692	0	correct_rejection	NA	0
14	Triplet	139	139	139	5	0	0	120047	692	0	correct_rejection	NA	0
14	Triplet	140	140	140	4	0	0	120756	692	0	correct_rejection	NA	0
14	Triplet	141	141	141	9	0	0	121465	691	0	correct_rejection	NA	0
14	Triplet	142	142	142	8	0	0	122173	692	0	correct_rejection	NA	0
14	Triplet	143	143	143	7	0	0	122882	691	0	correct_rejection	NA	0
14	Triplet	144	144	144	7	0	0	123590	692	0	correct_rejection	NA	0
14	Triplet	145	145	145	8	0	0	124299	692	0	correct_rejection	NA	0
14	Triplet	146	146	146	9	0	0	125007	692	0	correct_rejection	NA	0
14	Triplet	147	147	147	7	0	0	125716	692	0	correct_rejection	NA	0
14	Triplet	148	148	148	8	0	0	126425	691	0	correct_rejection	NA	0
14	Triplet	149	149	149	9	0	0	127133	692	0	correct_rejection	NA	0
14	Triplet	150	150	150	9	0	0	127842	691	0	correct_rejection	NA	0
14	Triplet	151	151	151	0	1	1	128550	692	1	hit	421	0
14	Triplet	152	152	152	8	0	0	129259	692	0	correct_rejection	NA	0
14	Triplet	153	153	153	7	0	0	129967	692	0	correct_rejection	NA	0
14	Triplet	154	154	154	9	0	0	130676	692	0	correct_rejection	NA	0
14	Triplet	155	155	155	8	0	0	131385	691	0	correct_rejection	NA	0
14	Triplet	156	156	156	7	0	0	132093	692	0	correct_rejection	NA	0
14	Triplet	157	157	157	6	0	0	132802	691	0	correct_rejection	NA	0
14	Triplet	158	158	158	5	0	0	133510	692	0	correct_rejection	NA	0
14	Triplet	159	159	159	4	0	0	134219	692	0	correct_rejection	NA	0
14	Triplet	160	160	160	6	0	0	134927	692	0	correct_rejection	NA	0
14	Triplet	161	161	161	5	0	0	135636	692	0	correct_rejection	NA	0
14	Triplet	162	162	162	4	0	0	136345	691	0	correct_rejection	NA	0
14	Correct	1	1	163	4	0	0	145531	692	0	correct_rejection	NA	7099
14	Correct	2	2	164	5	0	0	146239	692	0	correct_rejection	NA	0
14	Correct	3	3	165	6	0	0	146948	692	0	correct_rejection	NA	0
14	Correct	4	4	166	0	1	2	147657	691	1	hit	503	0
14	Correct	5	5	167	4	0	0	148365	692	0	correct_rejection	NA	0
14	Correct	6	6	168	5	0	0	149074	691	0	correct_rejection	NA	0
14	Correct	7	7	169	6	0	0	149782	692	0	correct_rejection	NA	0
14	Correct	8	8	170	4	0	0	150491	692	0	correct_rejection	NA	0
14	Correct	9	9	171	5	0	0	151199	692	0	correct_rejection	NA	0
14	Correct	10	10	172	6	0	0	151908	692	0	correct_rejection	NA	0
14	Correct	11	11	173	0	1	3	152617	691	1	hit	430	0
14	Correct	12	12	174	6	0	0	153325	692	0	correct_rejection	NA	0
14	Correct	13	13	175	5	0	0	154034	691	0	correct_rejection	NA	0
14	Correct	14	14	176	4	0	0	154742	692	0	correct_rejection	NA	0
14	Correct	15	15	177	6	0	0	155451	692	0	correct_rejection	NA	0
14	Correct	16	16	178	0	1	1	156159	692	1	hit	402	0
14	Correct	17	17	179	5	0	0	156868	692	0	correct_rejection	NA	0
14	Correct	18	18	180	4	0	0	157577	691	0	correct_rejection	NA	0
14	Correct	19	19	181	6	0	0	158285	692	0	correct_rejection	NA	0
14	Correct	20	20	182	5	0	0	158994	691	0	correct_rejection	NA	0
14	Correct	21	21	183	4	0	0	159702	692	0	correct_rejection	NA	0
14	Correct	22	22	184	9	0	0	160411	692	0	correct_rejection	NA	0
14	Correct	23	23	185	8	0	0	161119	692	0	correct_rejection	NA	0
14	Correct	24	24	186	7	0	0	161828	692	0	correct_rejection	NA	0
14	Correct	25	25	187	9	0	0	162537	691	0	correct_rejection	NA	0
14	Correct	26	26	188	8	0	0	163245	692	0	correct_rejection	NA	0
14	Correct	27	27	189	7	0	0	163954	691	0	correct_rejection	NA	0
14	Correct	28	28	190	0	1	2	164662	692	1	hit	402	0
14	Correct	29	29	191	9	0	0	165371	692	0	correct_rejection	NA	0
14	Correct	30	30	192	8	0	0	166079	692	0	correct_rejection	NA	0
14	Correct	31	31	193	7	0	0	166788	692	0	correct_rejection	NA	0
14	Correct	32	32	194	7	0	0	167497	691	0	correct_rejection	NA	0
14	Correct	33	33	195	8	0	0	168205	692	0	correct_rejection	NA	0
14	Correct	34	34	196	9	0	0	168914	691	0	correct_rejection	NA	0
14	Correct	35	35	197	7	0	0	169622	692	0	correct_rejection	NA	0
14	Correct	36	36	198	8	0	0	170331	691	0	correct_rejection	NA	0
14	Correct	37	37	199	9	0	0	171039	692	0	correct_rejection	NA	0
14	Correct	38	38	200	7	0	0	171748	692	0	correct_rejection	NA	0
14	Correct	39	39	201	8	0	0	172456	692	0	correct_rejection	NA	0
14	Correct	40	40	202	9	0	0	173165	692	0	correct_rejection	NA	0
14	Correct	41	41	203	0	1	4	173874	691	1	hit	448	0
14	Correct	42	42	204	4	0	0	174582	692	0	correct_rejection	NA	0
14	Correct	43	43	205	5	0	0	175291	691	0	correct_rejection	NA	0
14	Correct	44	44	206	0	1	1	175999	692	1	hit	488	0
14	Correct	45	45	207	6	0	0	176708	692	0	correct_rejection	NA	0
14	Correct	46	46	208	4	0	0	177416	692	0	correct_rejection	NA	0
14	Correct	47	47	209	5	0	0	178125	692	0	correct_rejection	NA	0
14	Correct	48	48	210	6	0	0	178834	691	0	correct_rejection	NA	0
14	Correct	49	49	211	4	0	0	179542	692	0	correct_rejection	NA	0
14	Correct	50	50	212	5	0	0	180251	691	0	correct_rejection	NA	0
14	Correct	51	51	213	6	0	0	180959	692	0	correct_rejection	NA	0
14	Correct	52	52	214	6	0	0	181668	692	0	correct_rejection	NA	0
14	Correct	53	53	215	5	0	0	182376	692	0	correct_rejection	NA	0
14	Correct	54	54	216	4	0	0	183085	692	0	correct_rejection	NA	0
14	Correct	55	55	217	6	0	0	183794	691	0	correct_rejection	NA	0
14	Correct	56	56	218	5	0	0	184502	692	0	correct_rejection	NA	0
14	Correct	57	57	219	4	0	0	185211	691	0	correct_rejection	NA	0
14	Correct	58	58	220	6	0	0	185919	692	0	correct_rejection	NA	0
14	Correct	59	59	221	5	0	0	186628	692	0	correct_rejection	NA	0
14	Correct	60	60	222	4	0	0	187336	692	0	correct_rejection	NA	0
14	Correct	61	61	223	9	0	0	188045	692	0	correct_rejection	NA	0
14	Correct	62	62	224	8	0	0	188754	691	0	correct_rejection	NA	0
14	Correct	63	63	225	7	0	0	189462	692	0	correct_rejection	NA	0
14	Correct	64	64	226	9	0	0	190171	691	0	correct_rejection	NA	0
14	Correct	65	65	227	8	0	0	190879	692	0	correct_rejection	NA	0
14	Correct	66	66	228	7	0	0	191588	692	0	correct_rejection	NA	0
14	Correct	67	67	229	9	0	0	192296	692	0	correct_rejection	NA	0
14	Correct	68	68	230	8	0	0	193005	692	0	correct_rejection	NA	0
14	Correct	69	69	231	7	0	0	193714	691	0	correct_rejection	NA	0
14	Correct	70	70	232	7	0	0	194422	692	0	correct_rejection	NA	0
14	Correct	71	71	233	8	0	0	195131	691	0	correct_rejection	NA	0
14	Correct	72	72	234	9	0	0	195839	692	0	correct_rejection	NA	0
14	Correct	73	73	235	7	0	0	196548	691	0	correct_rejection	NA	0
14	Correct	74	74	236	8	0	0	197256	692	0	correct_rejection	NA	0
14	Correct	75	75	237	9	0	0	197965	692	0	correct_rejection	NA	0
14	Correct	76	76	238	7	0	0	198673	692	0	correct_rejection	NA	0
14	Correct	77	77	239	8	0	0	199382	692	0	correct_rejection	NA	0
14	Correct	78	78	240	9	0	0	200091	691	0	correct_rejection	NA	0
14	Correct	79	79	241	4	0	0	200799	692	0	correct_rejection	NA	0
14	Correct	80	80	242	0	1	1	201508	691	1	hit	533	0
14	Correct	81	81	243	5	0	0	202216	692	0	correct_rejection	NA	0
14	Correct	82	82	244	6	0	0	202925	692	0	correct_rejection	NA	0
14	Correct	83	83	245	4	0	0	203633	692	0	correct_rejection	NA	0
14	Correct	84	84	246	5	0	0	204342	692	0	correct_rejection	NA	0
14	Correct	85	85	247	6	0	0	205051	691	0	correct_rejection	NA	0
14	Correct	86	86	248	4	0	0	205759	692	0	correct_rejection	NA	0
14	Correct	87	87	249	0	1	1	206468	691	1	hit	451	0
14	Correct	88	88	250	5	0	0	207176	692	0	correct_rejection	NA	0
14	Correct	89	89	251	6	0	0	207885	692	0	correct_rejection	NA	0
14	Correct	90	90	252	6	0	0	208593	692	0	correct_rejection	NA	0
14	Correct	91	91	253	5	0	0	209302	692	0	correct_rejection	NA	0
14	Correct	92	92	254	0	1	1	210011	691	1	hit	545	0
14	Correct	93	93	255	4	0	0	210719	692	0	correct_rejection	NA	0
14	Correct	94	94	256	6	0	0	211428	691	0	correct_rejection	NA	0
14	Correct	95	95	257	5	0	0	212136	692	0	correct_rejection	NA	0
14	Correct	96	96	258	0	1	1	212845	692	1	hit	542	0
14	Correct	97	97	259	4	0	0	213553	692	0	correct_rejection	NA	0
14	Correct	98	98	260	6	0	0	214262	692	0	correct_rejection	NA	0
14	Correct	99	99	261	5	0	0	214971	691	0	correct_rejection	NA	0
14	Correct	100	100	262	4	0	0	215679	692	0	correct_rejection	NA	0
14	Correct	101	101	263	9	0	0	216388	691	0	correct_rejection	NA	0
14	Correct	102	102	264	0	1	1	217096	692	1	hit	394	0
14	Correct	103	103	265	8	0	0	217805	692	0	correct_rejection	NA	0
14	Correct	104	104	266	7	0	0	218513	692	0	correct_rejection	NA	0
14	Correct	105	105	267	9	0	0	219222	692	0	correct_rejection	NA	0
14	Correct	106	106	268	8	0	0	219931	691	0	correct_rejection	NA	0
14	Correct	107	107	269	7	0	0	220639	692	0	correct_rejection	NA	0
14	Correct	108	108	270	9	0	0	221348	691	0	correct_rejection	NA	0
14	Correct	109	109	271	8	0	0	222056	692	0	correct_rejection	NA	0
14	Correct	110	110	272	0	1	1	222765	691	1	hit	447	0
14	Correct	111	111	273	7	0	0	223473	692	0	correct_rejection	NA	0
14	Correct	112	112	274	7	0	0	224182	692	0	correct_rejection	NA	0
14	Correct	113	113	275	8	0	0	224890	692	0	correct_rejection	NA	0
14	Correct	114	114	276	9	0	0	225599	692	0	correct_rejection	NA	0
14	Correct	115	115	277	7	0	0	226308	691	0	correct_rejection	NA	0
14	Correct	116	116	278	8	0	0	227016	692	0	correct_rejection	NA	0
14	Correct	117	117	279	9	0	0	227725	691	0	correct_rejection	NA	0
14	Correct	118	118	280	7	0	0	228433	692	0	correct_rejection	NA	0
14	Correct	119	119	281	8	0	0	229142	692	0	correct_rejection	NA	0
14	Correct	120	120	282	0	1	1	229850	692	1	hit	427	0
14	Correct	121	121	283	9	0	0	230559	692	0	correct_rejection	NA	0
14	Correct	122	122	284	4	0	0	231268	691	0	correct_rejection	NA	0
14	Correct	123	123	285	5	0	0	231976	692	0	correct_rejection	NA	0
14	Correct	124	124	286	6	0	0	232685	691	0	correct_rejection	NA	0
14	Correct	125	125	287	4	0	0	233393	692	0	correct_rejection	NA	0
14	Correct	126	126	288	5	0	0	234102	692	0	correct_rejection	NA	0
14	Correct	127	127	289	6	0	0	234810	692	0	correct_rejection	NA	0
14	Correct	128	128	290	4	0	0	235519	692	0	correct_rejection	NA	0
14	Correct	129	129	291	5	0	0	236228	691	0	correct_rejection	NA	0
14	Correct	130	130	292	0	1	1	236936	692	1	hit	375	0
14	Correct	131	131	293	6	0	0	237645	691	0	correct_rejection	NA	0
14	Correct	132	132	294	6	0	0	238353	692	0	correct_rejection	NA	0
14	Correct	133	133	295	0	1	1	239062	692	1	hit	442	0
14	Correct	134	134	296	5	0	0	239770	692	0	correct_rejection	NA	0
14	Correct	135	135	297	4	0	0	240479	692	0	correct_rejection	NA	0
14	Correct	136	136	298	6	0	0	241188	691	0	correct_rejection	NA	0
14	Correct	137	137	299	5	0	0	241896	692	0	correct_rejection	NA	0
14	Correct	138	138	300	4	0	0	242605	691	0	correct_rejection	NA	0
14	Correct	139	139	301	0	1	2	243313	692	1	hit	374	0
14	Correct	140	140	302	6	0	0	244022	692	0	correct_rejection	NA	0
14	Correct	141	141	303	5	0	0	244730	692	0	correct_rejection	NA	0
14	Correct	142	142	304	4	0	0	245439	692	0	correct_rejection	NA	0
14	Correct	143	143	305	9	0	0	246148	691	0	correct_rejection	NA	0
14	Correct	144	144	306	8	0	0	246856	692	0	correct_rejection	NA	0
14	Correct	145	145	307	7	0	0	247565	691	0	correct_rejection	NA	0
14	Correct	146	146	308	9	0	0	248273	692	0	correct_rejection	NA	0
14	Correct	147	147	309	8	0	0	248982	691	0	correct_rejection	NA	0
14	Correct	148	148	310	7	0	0	249690	692	0	correct_rejection	NA	0
14	Correct	149	149	311	9	0	0	250399	692	0	correct_rejection	NA	0
14	Correct	150	150	312	0	1	1	251107	692	1	hit	515	0
14	Correct	151	151	313	8	0	0	251816	692	0	correct_rejection	NA	0
14	Correct	152	152	314	7	0	0	252525	691	0	correct_rejection	NA	0
14	Correct	153	153	315	7	0	0	253233	692	0	correct_rejection	NA	0
14	Correct	154	154	316	8	0	0	253942	691	0	correct_rejection	NA	0
14	Correct	155	155	317	9	0	0	254650	692	0	correct_rejection	NA	0
14	Correct	156	156	318	0	1	2	255359	692	1	hit	398	0
14	Correct	157	157	319	7	0	0	256067	692	0	correct_rejection	NA	0
14	Correct	158	158	320	8	0	0	256776	692	0	correct_rejection	NA	0
14	Correct	159	159	321	9	0	0	257485	691	0	correct_rejection	NA	0
14	Correct	160	160	322	7	0	0	258193	692	0	correct_rejection	NA	0
14	Correct	161	161	323	8	0	0	258902	691	0	correct_rejection	NA	0
14	Correct	162	162	324	9	0	0	259610	692	0	correct_rejection	NA	0
14	Nonet	1	325	325	4	0	0	268963	692	0	correct_rejection	NA	7529
14	Nonet	2	326	326	5	0	0	269672	692	0	correct_rejection	NA	0
14	Nonet	3	327	327	6	0	0	270381	691	0	correct_rejection	NA	0
14	Nonet	4	328	328	4	0	0	271089	692	0	correct_rejection	NA	0
14	Nonet	5	329	329	5	0	0	271798	691	0	correct_rejection	NA	0
14	Nonet	6	330	330	6	0	0	272506	692	0	correct_rejection	NA	0
14	Nonet	7	331	331	0	1	2	273215	691	1	hit	408	0
14	Nonet	8	332	332	4	0	0	273923	692	0	correct_rejection	NA	0
14	Nonet	9	333	333	5	0	0	274632	692	0	correct_rejection	NA	0
14	Nonet	10	334	334	6	0	0	275340	692	0	correct_rejection	NA	0
14	Nonet	11	335	335	6	0	0	276049	692	0	correct_rejection	NA	0
14	Nonet	12	336	336	0	1	1	276758	691	1	hit	477	0
14	Nonet	13	337	337	5	0	0	277466	692	0	correct_rejection	NA	0
14	Nonet	14	338	338	4	0	0	278175	691	0	correct_rejection	NA	0
14	Nonet	15	339	339	6	0	0	278883	692	0	correct_rejection	NA	0
14	Nonet	16	340	340	5	0	0	279592	692	0	correct_rejection	NA	0
14	Nonet	17	341	341	4	0	0	280300	692	0	correct_rejection	NA	0
14	Nonet	18	342	342	6	0	0	281009	692	0	correct_rejection	NA	0
14	Nonet	19	343	343	5	0	0	281718	691	0	correct_rejection	NA	0
14	Nonet	20	344	344	4	0	0	282426	692	0	correct_rejection	NA	0
14	Nonet	21	345	345	4	0	0	283135	691	0	correct_rejection	NA	0
14	Nonet	22	346	346	5	0	0	283843	692	0	correct_rejection	NA	0
14	Nonet	23	347	347	6	0	0	284552	692	0	correct_rejection	NA	0
14	Nonet	24	348	348	4	0	0	285260	692	0	correct_rejection	NA	0
14	Nonet	25	349	349	0	1	1	285969	692	1	hit	525	0
14	Nonet	26	350	350	5	0	0	286678	691	0	correct_rejection	NA	0
14	Nonet	27	351	351	6	0	0	287386	692	0	correct_rejection	NA	0
14	Nonet	28	352	352	4	0	0	288095	691	0	correct_rejection	NA	0
14	Nonet	29	353	353	5	0	0	288803	692	0	correct_rejection	NA	0
14	Nonet	30	354	354	6	0	0	289512	692	0	correct_rejection	NA	0
14	Nonet	31	355	355	9	0	0	290220	692	0	correct_rejection	NA	0
14	Nonet	32	356	356	8	0	0	290929	692	0	correct_rejection	NA	0
14	Nonet	33	357	357	7	0	0	291638	691	0	correct_rejection	NA	0
14	Nonet	34	358	358	9	0	0	292346	692	0	correct_rejection	NA	0
14	Nonet	35	359	359	8	0	0	293055	691	0	correct_rejection	NA	0
14	Nonet	36	360	360	7	0	0	293763	692	0	correct_rejection	NA	0
14	Nonet	37	361	361	9	0	0	294472	692	0	correct_rejection	NA	0
14	Nonet	38	362	362	8	0	0	295180	692	0	correct_rejection	NA	0
14	Nonet	39	363	363	7	0	0	295889	692	0	correct_rejection	NA	0
14	Nonet	40	364	364	4	0	0	296598	691	0	correct_rejection	NA	0
14	Nonet	41	365	365	5	0	0	297306	692	0	correct_rejection	NA	0
14	Nonet	42	366	366	6	0	0	298015	691	0	correct_rejection	NA	0
14	Nonet	43	367	367	4	0	0	298723	692	0	correct_rejection	NA	0
14	Nonet	44	368	368	5	0	0	299432	691	0	correct_rejection	NA	0
14	Nonet	45	369	369	0	1	1	300140	692	1	hit	542	0
14	Nonet	46	370	370	6	0	0	300849	692	0	correct_rejection	NA	0
14	Nonet	47	371	371	4	0	0	301557	692	0	correct_rejection	NA	0
14	Nonet	48	372	372	5	0	0	302266	692	0	correct_rejection	NA	0
14	Nonet	49	373	373	6	0	0	302975	691	0	correct_rejection	NA	0
14	Nonet	50	374	374	7	0	0	303683	692	0	correct_rejection	NA	0
14	Nonet	51	375	375	0	1	1	304392	691	1	hit	480	0
14	Nonet	52	376	376	8	0	0	305100	692	0	correct_rejection	NA	0
14	Nonet	53	377	377	9	0	0	305809	692	0	correct_rejection	NA	0
14	Nonet	54	378	378	7	0	0	306517	692	0	correct_rejection	NA	0
14	Nonet	55	379	379	8	0	0	307226	692	0	correct_rejection	NA	0
14	Nonet	56	380	380	9	0	0	307935	691	0	correct_rejection	NA	0
14	Nonet	57	381	381	7	0	0	308643	692	0	correct_rejection	NA	0
14	Nonet	58	382	382	8	0	0	309352	691	0	correct_rejection	NA	0
14	Nonet	59	383	383	9	0	0	310060	692	0	correct_rejection	NA	0
14	Nonet	60	384	384	9	0	0	310769	692	0	correct_rejection	NA	0
14	Nonet	61	385	385	8	0	0	311477	692	0	correct_rejection	NA	0
14	Nonet	62	386	386	7	0	0	312186	692	0	correct_rejection	NA	0
14	Nonet	63	387	387	9	0	0	312895	691	0	correct_rejection	NA	0
14	Nonet	64	388	388	8	0	0	313603	692	0	correct_rejection	NA	0
14	Nonet	65	389	389	0	1	1	314312	691	1	hit	419	0
14	Nonet	66	390	390	7	0	0	315020	692	0	correct_rejection	NA	0
14	Nonet	67	391	391	9	0	0	315729	692	0	correct_rejection	NA	0
14	Nonet	68	392	392	8	0	0	316437	692	0	correct_rejection	NA	0
14	Nonet	69	393	393	7	0	0	317146	692	0	correct_rejection	NA	0
14	Nonet	70	394	394	0	1	3	317855	691	1	hit	413	0
14	Nonet	71	395	395	9	0	0	318563	692	0	correct_rejection	NA	0
14	Nonet	72	396	396	8	0	0	319272	691	0	correct_rejection	NA	0
14	Nonet	73	397	397	7	0	0	319980	692	0	correct_rejection	NA	0
14	Nonet	74	398	398	9	0	0	320689	692	0	correct_rejection	NA	0
14	Nonet	75	399	399	8	0	0	321397	692	0	correct_rejection	NA	0
14	Nonet	76	400	400	7	0	0	322106	692	0	correct_rejection	NA	0
14	Nonet	77	401	401	9	0	0	322815	691	0	correct_rejection	NA	0
14	Nonet	78	402	402	0	1	1	323523	692	1	hit	402	0
14	Nonet	79	403	403	8	0	0	324232	691	0	correct_rejection	NA	0
14	Nonet	80	404	404	7	0	0	324940	692	0	correct_rejection	NA	0
14	Nonet	81	405	405	6	0	0	325649	691	0	correct_rejection	NA	0
14	Nonet	82	406	406	5	0	0	326357	692	0	correct_rejection	NA	0
14	Nonet	83	407	407	4	0	0	327066	692	0	correct_rejection	NA	0
14	Nonet	84	408	408	0	1	2	327774	692	1	hit	463	0
14	Nonet	85	409	409	6	0	0	328483	692	0	correct_rejection	NA	0
14	Nonet	86	410	410	5	0	0	329192	691	0	correct_rejection	NA	0
14	Nonet	87	411	411	4	0	0	329900	692	0	correct_rejection	NA	0
14	Nonet	88	412	412	6	0	0	330609	691	0	correct_rejection	NA	0
14	Nonet	89	413	413	5	0	0	331317	692	0	correct_rejection	NA	0
14	Nonet	90	414	414	4	0	0	332026	692	0	correct_rejection	NA	0
14	Nonet	91	415	415	7	0	0	332734	692	0	correct_rejection	NA	0
14	Nonet	92	416	416	8	0	0	333443	692	0	correct_rejection	NA	0
14	Nonet	93	417	417	9	0	0	334152	691	0	correct_rejection	NA	0
14	Nonet	94	418	418	7	0	0	334860	692	0	correct_rejection	NA	0
14	Nonet	95	419	419	8	0	0	335569	691	0	correct_rejection	NA	0
14	Nonet	96	420	420	9	0	0	336277	692	0	correct_rejection	NA	0
14	Nonet	97	421	421	7	0	0	336986	692	0	correct_rejection	NA	0
14	Nonet	98	422	422	8	0	0	337694	692	0	correct_rejection	NA	0
14	Nonet	99	423	423	9	0	0	338403	692	0	correct_rejection	NA	0
14	Nonet	100	424	424	6	0	0	339112	691	0	correct_rejection	NA	0
14	Nonet	101	425	425	0	1	1	339820	692	1	hit	436	0
14	Nonet	102	426	426	5	0	0	340529	691	0	correct_rejection	NA	0
14	Nonet	103	427	427	4	0	0	341237	692	0	correct_rejection	NA	0
14	Nonet	104	428	428	6	0	0	341946	692	0	correct_rejection	NA	0
14	Nonet	105	429	429	5	0	0	342654	692	0	correct_rejection	NA	0
14	Nonet	106	430	430	4	0	0	343363	692	0	correct_rejection	NA	0
14	Nonet	107	431	431	6	0	0	344072	691	0	correct_rejection	NA	0
14	Nonet	108	432	432	5	0	0	344780	692	0	correct_rejection	NA	0
14	Nonet	109	433	433	4	0	0	345489	691	0	correct_rejection	NA	0
14	Nonet	110	434	434	0	1	3	346197	692	1	hit	397	0
14	Nonet	111	435	435	6	0	0	346906	692	0	correct_rejection	NA	0
14	Nonet	112	436	436	5	0	0	347614	692	0	correct_rejection	NA	0
14	Nonet	113	437	437	0	1	1	348323	692	1	hit	510	0
14	Nonet	114	438	438	4	0	0	349032	691	0	correct_rejection	NA	0
14	Nonet	115	439	439	6	0	0	349740	692	0	correct_rejection	NA	0
14	Nonet	116	440	440	5	0	0	350449	691	0	correct_rejection	NA	0
14	Nonet	117	441	441	4	0	0	351157	692	0	correct_rejection	NA	0
14	Nonet	118	442	442	6	0	0	351866	692	0	correct_rejection	NA	0
14	Nonet	119	443	443	5	0	0	352574	692	0	correct_rejection	NA	0
14	Nonet	120	444	444	4	0	0	353283	692	0	correct_rejection	NA	0
14	Nonet	121	445	445	9	0	0	353991	692	0	correct_rejection	NA	0
14	Nonet	122	446	446	8	0	0	354700	692	0	correct_rejection	NA	0
14	Nonet	123	447	447	0	1	1	355409	691	1	hit	416	0
14	Nonet	124	448	448	7	0	0	356117	692	0	correct_rejection	NA	0
14	Nonet	125	449	449	9	0	0	356826	691	0	correct_rejection	NA	0
14	Nonet	126	450	450	8	0	0	357534	692	0	correct_rejection	NA	0
14	Nonet	127	451	451	7	0	0	358243	692	0	correct_rejection	NA	0
14	Nonet	128	452	452	9	0	0	358951	692	0	correct_rejection	NA	0
14	Nonet	129	453	453	8	0	0	359660	692	0	correct_rejection	NA	0
14	Nonet	130	454	454	7	0	0	360369	691	0	correct_rejection	NA	0
14	Nonet	131	455	455	0	1	3	361077	692	1	hit	490	0
14	Nonet	132	456	456	7	0	0	361786	691	0	correct_rejection	NA	0
14	Nonet	133	457	457	8	0	0	362494	692	0	correct_rejection	NA	0
14	Nonet	134	458	458	9	0	0	363203	692	0	correct_rejection	NA	0
14	Nonet	135	459	459	7	0	0	363911	692	0	correct_rejection	NA	0
14	Nonet	136	460	460	8	0	0	364620	692	0	correct_rejection	NA	0
14	Nonet	137	461	461	0	1	1	365329	691	1	hit	413	0
14	Nonet	138	462	462	9	0	0	366037	692	0	correct_rejection	NA	0
14	Nonet	139	463	463	7	0	0	366746	691	0	correct_rejection	NA	0
14	Nonet	140	464	464	8	0	0	367454	692	0	correct_rejection	NA	0
14	Nonet	141	465	465	9	0	0	368163	692	0	correct_rejection	NA	0
14	Nonet	142	466	466	0	1	3	368871	692	0	miss	NA	0
14	Nonet	143	467	467	7	0	0	369580	692	0	correct_rejection	NA	0
14	Nonet	144	468	468	8	0	0	370289	691	0	correct_rejection	NA	0
14	Nonet	145	469	469	9	0	0	370997	692	0	correct_rejection	NA	0
14	Nonet	146	470	470	7	0	0	371706	691	0	correct_rejection	NA	0
14	Nonet	147	471	471	8	0	0	372414	692	0	correct_rejection	NA	0
14	Nonet	148	472	472	9	0	0	373123	692	0	correct_rejection	NA	0
14	Nonet	149	473	473	7	0	0	373831	692	0	correct_rejection	NA	0
14	Nonet	150	474	474	8	0	0	374540	692	0	correct_rejection	NA	0
14	Nonet	151	475	475	9	0	0	375249	691	0	correct_rejection	NA	0
14	Nonet	152	476	476	4	0	0	375957	692	0	correct_rejection	NA	0
14	Nonet	153	477	477	5	0	0	376666	691	0	correct_rejection	NA	0
14	Nonet	154	478	478	0	1	1	377374	692	1	hit	385	0
14	Nonet	155	479	479	6	0	0	378083	691	0	correct_rejection	NA	0
14	Nonet	156	480	480	4	0	0	378791	692	0	correct_rejection	NA	0
14	Nonet	157	481	481	0	1	1	379500	692	1	hit	380	0
14	Nonet	158	482	482	5	0	0	380209	691	0	correct_rejection	NA	0
14	Nonet	159	483	483	6	0	0	380917	692	0	correct_rejection	NA	0
14	Nonet	160	484	484	4	0	0	381626	691	0	correct_rejection	NA	0
14	Nonet	161	485	485	5	0	0	382334	692	0	correct_rejection	NA	0
14	Nonet	162	486	486	6	0	0	383043	691	0	correct_rejection	NA	0
14	Triplet	1	649	487	4	0	0	393146	692	0	correct_rejection	NA	7719
14	Triplet	2	650	488	5	0	0	393855	691	0	correct_rejection	NA	0
14	Triplet	3	651	489	6	0	0	394563	692	0	correct_rejection	NA	0
14	Triplet	4	652	490	6	0	0	395272	692	0	correct_rejection	NA	0
14	Triplet	5	653	491	5	0	0	395980	692	0	correct_rejection	NA	0
14	Triplet	6	654	492	4	0	0	396689	692	0	correct_rejection	NA	0
14	Triplet	7	655	493	4	0	0	397398	691	0	correct_rejection	NA	0
14	Triplet	8	656	494	5	0	0	398106	692	0	correct_rejection	NA	0
14	Triplet	9	657	495	6	0	0	398815	691	0	correct_rejection	NA	0
14	Triplet	10	658	496	9	0	0	399523	692	0	correct_rejection	NA	0
14	Triplet	11	659	497	0	1	1	400232	691	1	hit	655	0
14	Triplet	12	660	498	8	0	0	400940	692	0	correct_rejection	NA	0
14	Triplet	13	661	499	7	0	0	401649	692	0	correct_rejection	NA	0
14	Triplet	14	662	500	6	0	0	402357	692	0	correct_rejection	NA	0
14	Triplet	15	663	501	0	1	1	403066	692	1	hit	386	0
14	Triplet	16	664	502	5	0	0	403775	691	0	correct_rejection	NA	0
14	Triplet	17	665	503	4	0	0	404483	692	0	correct_rejection	NA	0
14	Triplet	18	666	504	6	0	0	405192	691	0	correct_rejection	NA	0
14	Triplet	19	667	505	5	0	0	405900	692	0	correct_rejection	NA	0
14	Triplet	20	668	506	4	0	0	406609	692	0	correct_rejection	NA	0
14	Triplet	21	669	507	7	0	0	407317	692	0	correct_rejection	NA	0
14	Triplet	22	670	508	8	0	0	408026	692	0	correct_rejection	NA	0
14	Triplet	23	671	509	9	0	0	408735	691	0	correct_rejection	NA	0
14	Triplet	24	672	510	6	0	0	409443	692	0	correct_rejection	NA	0
14	Triplet	25	673	511	0	1	1	410152	691	1	hit	333	0
14	Triplet	26	674	512	5	0	0	410860	692	0	correct_rejection	NA	0
14	Triplet	27	675	513	4	0	0	411569	692	0	correct_rejection	NA	0
14	Triplet	28	676	514	9	0	0	412277	692	0	correct_rejection	NA	0
14	Triplet	29	677	515	8	0	0	412986	692	0	correct_rejection	NA	0
14	Triplet	30	678	516	7	0	0	413695	691	0	correct_rejection	NA	0
14	Triplet	31	679	517	7	0	0	414403	692	0	correct_rejection	NA	0
14	Triplet	32	680	518	8	0	0	415112	691	0	correct_rejection	NA	0
14	Triplet	33	681	519	9	0	0	415820	692	0	correct_rejection	NA	0
14	Triplet	34	682	520	4	0	0	416529	692	0	correct_rejection	NA	0
14	Triplet	35	683	521	5	0	0	417237	692	0	correct_rejection	NA	0
14	Triplet	36	684	522	6	0	0	417946	692	0	correct_rejection	NA	0
14	Triplet	37	685	523	4	0	0	418655	691	0	correct_rejection	NA	0
14	Triplet	38	686	524	5	0	0	419363	692	0	correct_rejection	NA	0
14	Triplet	39	687	525	0	1	1	420072	691	1	hit	456	0
14	Triplet	40	688	526	6	0	0	420780	692	0	correct_rejection	NA	0
14	Triplet	41	689	527	7	0	0	421489	692	0	correct_rejection	NA	0
14	Triplet	42	690	528	8	0	0	422197	692	0	correct_rejection	NA	0
14	Triplet	43	691	529	9	0	0	422906	692	0	correct_rejection	NA	0
14	Triplet	44	692	530	7	0	0	423615	691	0	correct_rejection	NA	0
14	Triplet	45	693	531	8	0	0	424323	692	0	correct_rejection	NA	0
14	Triplet	46	694	532	9	0	0	425032	691	0	correct_rejection	NA	0
14	Triplet	47	695	533	9	0	0	425740	692	0	correct_rejection	NA	0
14	Triplet	48	696	534	8	0	0	426449	691	0	correct_rejection	NA	0
14	Triplet	49	697	535	0	1	1	427157	692	1	hit	440	0
14	Triplet	50	698	536	7	0	0	427866	692	0	correct_rejection	NA	0
14	Triplet	51	699	537	9	0	0	428574	692	0	correct_rejection	NA	0
14	Triplet	52	700	538	8	0	0	429283	692	0	correct_rejection	NA	0
14	Triplet	53	701	539	7	0	0	429992	691	0	correct_rejection	NA	0
14	Triplet	54	702	540	7	0	0	430700	692	0	correct_rejection	NA	0
14	Triplet	55	703	541	0	1	1	431409	691	1	hit	479	0
14	Triplet	56	704	542	8	0	0	432117	692	0	correct_rejection	NA	0
14	Triplet	57	705	543	9	0	0	432826	692	0	correct_rejection	NA	0
14	Triplet	58	706	544	7	0	0	433534	692	0	correct_rejection	NA	0
14	Triplet	59	707	545	8	0	0	434243	692	0	correct_rejection	NA	0
14	Triplet	60	708	546	0	1	1	434952	691	1	hit	472	0
14	Triplet	61	709	547	9	0	0	435660	692	0	correct_rejection	NA	0
14	Triplet	62	710	548	6	0	0	436369	691	0	correct_rejection	NA	0
14	Triplet	63	711	549	5	0	0	437077	692	0	correct_rejection	NA	0
14	Triplet	64	712	550	4	0	0	437786	692	0	correct_rejection	NA	0
14	Triplet	65	713	551	6	0	0	438494	692	0	correct_rejection	NA	0
14	Triplet	66	714	552	5	0	0	439203	692	0	correct_rejection	NA	0
14	Triplet	67	715	553	4	0	0	439912	691	0	correct_rejection	NA	0
14	Triplet	68	716	554	0	1	2	440620	692	1	hit	362	0
14	Triplet	69	717	555	4	0	0	441329	691	0	correct_rejection	NA	0
14	Triplet	70	718	556	5	0	0	442037	692	0	correct_rejection	NA	0
14	Triplet	71	719	557	6	0	0	442746	692	0	correct_rejection	NA	0
14	Triplet	72	720	558	4	0	0	443454	692	0	correct_rejection	NA	0
14	Triplet	73	721	559	5	0	0	444163	692	0	correct_rejection	NA	0
14	Triplet	74	722	560	6	0	0	444872	691	0	correct_rejection	NA	0
14	Triplet	75	723	561	6	0	0	445580	692	0	correct_rejection	NA	0
14	Triplet	76	724	562	5	0	0	446289	691	0	correct_rejection	NA	0
14	Triplet	77	725	563	0	1	1	446997	692	1	hit	494	0
14	Triplet	78	726	564	4	0	0	447706	692	0	correct_rejection	NA	0
14	Triplet	79	727	565	7	0	0	448414	692	0	correct_rejection	NA	0
14	Triplet	80	728	566	8	0	0	449123	692	0	correct_rejection	NA	0
14	Triplet	81	729	567	9	0	0	449832	691	0	correct_rejection	NA	0
14	Triplet	82	730	568	4	0	0	450540	692	0	correct_rejection	NA	0
14	Triplet	83	731	569	5	0	0	451249	691	0	correct_rejection	NA	0
14	Triplet	84	732	570	6	0	0	451957	692	0	correct_rejection	NA	0
14	Triplet	85	733	571	9	0	0	452666	691	0	correct_rejection	NA	0
14	Triplet	86	734	572	8	0	0	453374	692	0	correct_rejection	NA	0
14	Triplet	87	735	573	7	0	0	454083	692	0	correct_rejection	NA	0
14	Triplet	88	736	574	9	0	0	454791	692	0	correct_rejection	NA	0
14	Triplet	89	737	575	8	0	0	455500	692	0	correct_rejection	NA	0
14	Triplet	90	738	576	7	0	0	456209	691	0	correct_rejection	NA	0
14	Triplet	91	739	577	7	0	0	456917	692	0	correct_rejection	NA	0
14	Triplet	92	740	578	8	0	0	457626	691	0	correct_rejection	NA	0
14	Triplet	93	741	579	9	0	0	458334	692	0	correct_rejection	NA	0
14	Triplet	94	742	580	9	0	0	459043	692	0	correct_rejection	NA	0
14	Triplet	95	743	581	8	0	0	459751	692	0	correct_rejection	NA	0
14	Triplet	96	744	582	7	0	0	460460	692	0	correct_rejection	NA	0
14	Triplet	97	745	583	6	0	0	461169	691	0	correct_rejection	NA	0
14	Triplet	98	746	584	5	0	0	461877	692	0	correct_rejection	NA	0
14	Triplet	99	747	585	4	0	0	462586	691	0	correct_rejection	NA	0
14	Triplet	100	748	586	9	0	0	463294	692	0	correct_rejection	NA	0
14	Triplet	101	749	587	8	0	0	464003	692	0	correct_rejection	NA	0
14	Triplet	102	750	588	0	1	1	464711	692	1	hit	448	0
14	Triplet	103	751	589	7	0	0	465420	692	0	correct_rejection	NA	0
14	Triplet	104	752	590	4	0	0	466129	691	0	correct_rejection	NA	0
14	Triplet	105	753	591	5	0	0	466837	692	0	correct_rejection	NA	0
14	Triplet	106	754	592	6	0	0	467546	691	0	correct_rejection	NA	0
14	Triplet	107	755	593	7	0	0	468254	692	0	correct_rejection	NA	0
14	Triplet	108	756	594	8	0	0	468963	692	0	correct_rejection	NA	0
14	Triplet	109	757	595	9	0	0	469671	692	0	correct_rejection	NA	0
14	Triplet	110	758	596	0	1	2	470380	692	1	hit	423	0
14	Triplet	111	759	597	9	0	0	471089	691	0	correct_rejection	NA	0
14	Triplet	112	760	598	8	0	0	471797	692	0	correct_rejection	NA	0
14	Triplet	113	761	599	7	0	0	472506	691	0	correct_rejection	NA	0
14	Triplet	114	762	600	4	0	0	473214	692	0	correct_rejection	NA	0
14	Triplet	115	763	601	5	0	0	473923	692	0	correct_rejection	NA	0
14	Triplet	116	764	602	6	0	0	474631	692	0	correct_rejection	NA	0
14	Triplet	117	765	603	0	1	2	475340	692	1	hit	422	0
14	Triplet	118	766	604	4	0	0	476049	691	0	correct_rejection	NA	0
14	Triplet	119	767	605	5	0	0	476757	692	0	correct_rejection	NA	0
14	Triplet	120	768	606	6	0	0	477466	691	0	correct_rejection	NA	0
14	Triplet	121	769	607	9	0	0	478174	692	0	correct_rejection	NA	0
14	Triplet	122	770	608	8	0	0	478883	691	0	correct_rejection	NA	0
14	Triplet	123	771	609	0	1	1	479591	692	1	hit	412	0
14	Triplet	124	772	610	7	0	0	480300	692	0	correct_rejection	NA	0
14	Triplet	125	773	611	7	0	0	481008	692	0	correct_rejection	NA	0
14	Triplet	126	774	612	8	0	0	481717	692	0	correct_rejection	NA	0
14	Triplet	127	775	613	9	0	0	482426	691	0	correct_rejection	NA	0
14	Triplet	128	776	614	0	1	2	483134	692	1	hit	370	0
14	Triplet	129	777	615	6	0	0	483843	691	0	correct_rejection	NA	0
14	Triplet	130	778	616	5	0	0	484551	692	0	correct_rejection	NA	0
14	Triplet	131	779	617	4	0	0	485260	692	0	correct_rejection	NA	0
14	Triplet	132	780	618	7	0	0	485968	692	0	correct_rejection	NA	0
14	Triplet	133	781	619	8	0	0	486677	692	0	correct_rejection	NA	0
14	Triplet	134	782	620	9	0	0	487386	691	0	correct_rejection	NA	0
14	Triplet	135	783	621	7	0	0	488094	692	0	correct_rejection	NA	0
14	Triplet	136	784	622	8	0	0	488803	691	0	correct_rejection	NA	0
14	Triplet	137	785	623	9	0	0	489511	692	0	correct_rejection	NA	0
14	Triplet	138	786	624	4	0	0	490220	692	0	correct_rejection	NA	0
14	Triplet	139	787	625	0	1	1	490928	692	1	hit	410	0
14	Triplet	140	788	626	5	0	0	491637	692	0	correct_rejection	NA	0
14	Triplet	141	789	627	6	0	0	492346	691	0	correct_rejection	NA	0
14	Triplet	142	790	628	0	1	2	493054	692	1	hit	559	0
14	Triplet	143	791	629	6	0	0	493763	691	0	correct_rejection	NA	0
14	Triplet	144	792	630	5	0	0	494471	692	0	correct_rejection	NA	0
14	Triplet	145	793	631	4	0	0	495180	692	0	correct_rejection	NA	0
14	Triplet	146	794	632	6	0	0	495888	692	0	correct_rejection	NA	0
14	Triplet	147	795	633	5	0	0	496597	692	0	correct_rejection	NA	0
14	Triplet	148	796	634	4	0	0	497306	691	0	correct_rejection	NA	0
14	Triplet	149	797	635	0	1	2	498014	692	1	hit	402	0
14	Triplet	150	798	636	9	0	0	498723	691	0	correct_rejection	NA	0
14	Triplet	151	799	637	8	0	0	499431	692	0	correct_rejection	NA	0
14	Triplet	152	800	638	7	0	0	500140	692	0	correct_rejection	NA	0
14	Triplet	153	801	639	0	1	2	500848	692	1	hit	519	0
14	Triplet	154	802	640	9	0	0	501557	692	0	correct_rejection	NA	0
14	Triplet	155	803	641	8	0	0	502266	691	0	correct_rejection	NA	0
14	Triplet	156	804	642	7	0	0	502974	692	0	correct_rejection	NA	0
14	Triplet	157	805	643	6	0	0	503683	691	0	correct_rejection	NA	0
14	Triplet	158	806	644	5	0	0	504391	692	0	correct_rejection	NA	0
14	Triplet	159	807	645	4	0	0	505100	691	0	correct_rejection	NA	0
14	Triplet	160	808	646	4	0	0	505808	692	0	correct_rejection	NA	0
14	Triplet	161	809	647	5	0	0	506517	692	0	correct_rejection	NA	0
14	Triplet	162	810	648	6	0	0	507225	692	0	correct_rejection	NA	0
14	Single	1	649	649	8	0	0	516754	691	0	correct_rejection	NA	7329
14	Single	2	650	650	9	0	0	517462	692	0	correct_rejection	NA	0
14	Single	3	651	651	8	0	0	518171	691	0	correct_rejection	NA	0
14	Single	4	652	652	5	0	0	518879	692	0	correct_rejection	NA	0
14	Single	5	653	653	4	0	0	519588	692	0	correct_rejection	NA	0
14	Single	6	654	654	4	0	0	520296	692	0	correct_rejection	NA	0
14	Single	7	655	655	9	0	0	521005	692	0	correct_rejection	NA	0
14	Single	8	656	656	9	0	0	521714	691	0	correct_rejection	NA	0
14	Single	9	657	657	4	0	0	522422	692	0	correct_rejection	NA	0
14	Single	10	658	658	7	0	0	523131	691	0	correct_rejection	NA	0
14	Single	11	659	659	4	0	0	523839	692	0	correct_rejection	NA	0
14	Single	12	660	660	5	0	0	524548	692	0	correct_rejection	NA	0
14	Single	13	661	661	7	0	0	525256	692	0	correct_rejection	NA	0
14	Single	14	662	662	6	0	0	525965	692	0	correct_rejection	NA	0
14	Single	15	663	663	8	0	0	526674	691	0	correct_rejection	NA	0
14	Single	16	664	664	7	0	0	527382	692	0	correct_rejection	NA	0
14	Single	17	665	665	5	0	0	528091	691	0	correct_rejection	NA	0
14	Single	18	666	666	5	0	0	528799	692	0	correct_rejection	NA	0
14	Single	19	667	667	9	0	0	529508	692	0	correct_rejection	NA	0
14	Single	20	668	668	5	0	0	530216	692	0	correct_rejection	NA	0
14	Single	21	669	669	0	1	1	530925	692	1	hit	452	0
14	Single	22	670	670	8	0	0	531634	691	0	correct_rejection	NA	0
14	Single	23	671	671	6	0	0	532342	692	0	correct_rejection	NA	0
14	Single	24	672	672	5	0	0	533051	691	0	correct_rejection	NA	0
14	Single	25	673	673	6	0	0	533759	692	0	correct_rejection	NA	0
14	Single	26	674	674	6	0	0	534468	692	0	correct_rejection	NA	0
14	Single	27	675	675	7	0	0	535176	692	0	correct_rejection	NA	0
14	Single	28	676	676	9	0	0	535885	692	0	correct_rejection	NA	0
14	Single	29	677	677	6	0	0	536594	691	0	correct_rejection	NA	0
14	Single	30	678	678	9	0	0	537302	692	0	correct_rejection	NA	0
14	Single	31	679	679	7	0	0	538011	691	0	correct_rejection	NA	0
14	Single	32	680	680	7	0	0	538719	692	0	correct_rejection	NA	0
14	Single	33	681	681	0	1	1	539428	691	1	hit	430	0
14	Single	34	682	682	8	0	0	540136	692	0	correct_rejection	NA	0
14	Single	35	683	683	8	0	0	540845	692	0	correct_rejection	NA	0
14	Single	36	684	684	4	0	0	541554	691	0	correct_rejection	NA	0
14	Single	37	685	685	6	0	0	542262	692	0	correct_rejection	NA	0
14	Single	38	686	686	4	0	0	542971	691	0	correct_rejection	NA	0
14	Single	39	687	687	7	0	0	543679	692	0	correct_rejection	NA	0
14	Single	40	688	688	9	0	0	544388	691	0	correct_rejection	NA	0
14	Single	41	689	689	5	0	0	545096	692	0	correct_rejection	NA	0
14	Single	42	690	690	9	0	0	545805	692	0	correct_rejection	NA	0
14	Single	43	691	691	4	0	0	546513	692	0	correct_rejection	NA	0
14	Single	44	692	692	8	0	0	547222	692	0	correct_rejection	NA	0
14	Single	45	693	693	4	0	0	547931	691	0	correct_rejection	NA	0
14	Single	46	694	694	9	0	0	548639	692	0	correct_rejection	NA	0
14	Single	47	695	695	7	0	0	549348	691	0	correct_rejection	NA	0
14	Single	48	696	696	8	0	0	550056	692	0	correct_rejection	NA	0
14	Single	49	697	697	9	0	0	550765	692	0	correct_rejection	NA	0
14	Single	50	698	698	6	0	0	551473	692	0	correct_rejection	NA	0
14	Single	51	699	699	8	0	0	552182	692	0	correct_rejection	NA	0
14	Single	52	700	700	8	0	0	552891	691	0	correct_rejection	NA	0
14	Single	53	701	701	5	0	0	553599	692	0	correct_rejection	NA	0
14	Single	54	702	702	8	0	0	554308	691	0	correct_rejection	NA	0
14	Single	55	703	703	7	0	0	555016	692	0	correct_rejection	NA	0
14	Single	56	704	704	7	0	0	555725	692	0	correct_rejection	NA	0
14	Single	57	705	705	4	0	0	556433	692	0	correct_rejection	NA	0
14	Single	58	706	706	0	1	1	557142	692	1	hit	454	0
14	Single	59	707	707	4	0	0	557851	691	0	correct_rejection	NA	0
14	Single	60	708	708	6	0	0	558559	692	0	correct_rejection	NA	0
14	Single	61	709	709	5	0	0	559268	691	0	correct_rejection	NA	0
14	Single	62	710	710	4	0	0	559976	692	0	correct_rejection	NA	0
14	Single	63	711	711	7	0	0	560685	692	0	correct_rejection	NA	0
14	Single	64	712	712	6	0	0	561393	692	0	correct_rejection	NA	0
14	Single	65	713	713	6	0	0	562102	692	0	correct_rejection	NA	0
14	Single	66	714	714	9	0	0	562811	691	0	correct_rejection	NA	0
14	Single	67	715	715	0	1	1	563519	692	1	hit	482	0
14	Single	68	716	716	9	0	0	564228	691	0	correct_rejection	NA	0
14	Single	69	717	717	8	0	0	564936	692	0	correct_rejection	NA	0
14	Single	70	718	718	0	1	1	565645	691	1	hit	522	0
14	Single	71	719	719	6	0	0	566353	692	0	correct_rejection	NA	0
14	Single	72	720	720	4	0	0	567062	692	0	correct_rejection	NA	0
14	Single	73	721	721	5	0	0	567771	691	0	correct_rejection	NA	0
14	Single	74	722	722	5	0	0	568479	692	0	correct_rejection	NA	0
14	Single	75	723	723	0	1	1	569188	691	1	hit	434	0
14	Single	76	724	724	6	0	0	569896	692	0	correct_rejection	NA	0
14	Single	77	725	725	7	0	0	570605	691	0	correct_rejection	NA	0
14	Single	78	726	726	0	1	1	571313	692	1	hit	506	0
14	Single	79	727	727	5	0	0	572022	692	0	correct_rejection	NA	0
14	Single	80	728	728	5	0	0	572730	692	0	correct_rejection	NA	0
14	Single	81	729	729	4	0	0	573439	692	0	correct_rejection	NA	0
14	Single	82	730	730	0	1	1	574148	691	1	hit	436	0
14	Single	83	731	731	9	0	0	574856	692	0	correct_rejection	NA	0
14	Single	84	732	732	5	0	0	575565	691	0	correct_rejection	NA	0
14	Single	85	733	733	6	0	0	576273	692	0	correct_rejection	NA	0
14	Single	86	734	734	4	0	0	576982	692	0	correct_rejection	NA	0
14	Single	87	735	735	0	1	1	577690	692	1	hit	471	0
14	Single	88	736	736	7	0	0	578399	692	0	correct_rejection	NA	0
14	Single	89	737	737	9	0	0	579108	691	0	correct_rejection	NA	0
14	Single	90	738	738	8	0	0	579816	692	0	correct_rejection	NA	0
14	Single	91	739	739	8	0	0	580525	691	0	correct_rejection	NA	0
14	Single	92	740	740	7	0	0	581233	692	0	correct_rejection	NA	0
14	Single	93	741	741	8	0	0	581942	692	0	correct_rejection	NA	0
14	Single	94	742	742	0	1	1	582650	692	1	hit	421	0
14	Single	95	743	743	4	0	0	583359	692	0	correct_rejection	NA	0
14	Single	96	744	744	8	0	0	584068	691	0	correct_rejection	NA	0
14	Single	97	745	745	5	0	0	584776	692	0	correct_rejection	NA	0
14	Single	98	746	746	5	0	0	585485	691	0	correct_rejection	NA	0
14	Single	99	747	747	8	0	0	586193	692	0	correct_rejection	NA	0
14	Single	100	748	748	9	0	0	586902	692	0	correct_rejection	NA	0
14	Single	101	749	749	4	0	0	587610	692	0	correct_rejection	NA	0
14	Single	102	750	750	4	0	0	588319	692	0	correct_rejection	NA	0
14	Single	103	751	751	0	1	1	589028	691	1	hit	372	0
14	Single	104	752	752	5	0	0	589736	692	0	correct_rejection	NA	0
14	Single	105	753	753	9	0	0	590445	691	0	correct_rejection	NA	0
14	Single	106	754	754	9	0	0	591153	692	0	correct_rejection	NA	0
14	Single	107	755	755	7	0	0	591862	692	0	correct_rejection	NA	0
14	Single	108	756	756	6	0	0	592570	692	0	correct_rejection	NA	0
14	Single	109	757	757	7	0	0	593279	692	0	correct_rejection	NA	0
14	Single	110	758	758	7	0	0	593988	691	0	correct_rejection	NA	0
14	Single	111	759	759	5	0	0	594696	692	0	correct_rejection	NA	0
14	Single	112	760	760	0	1	1	595405	691	1	hit	419	0
14	Single	113	761	761	7	0	0	596113	692	0	correct_rejection	NA	0
14	Single	114	762	762	4	0	0	596822	691	0	correct_rejection	NA	0
14	Single	115	763	763	6	0	0	597530	692	0	correct_rejection	NA	0
14	Single	116	764	764	9	0	0	598239	692	0	correct_rejection	NA	0
14	Single	117	765	765	6	0	0	598947	692	0	correct_rejection	NA	0
14	Single	118	766	766	6	0	0	599656	692	0	correct_rejection	NA	0
14	Single	119	767	767	8	0	0	600365	691	0	correct_rejection	NA	0
14	Single	120	768	768	6	0	0	601073	692	0	correct_rejection	NA	0
14	Single	121	769	769	0	1	1	601782	691	1	hit	357	0
14	Single	122	770	770	7	0	0	602490	692	0	correct_rejection	NA	0
14	Single	123	771	771	7	0	0	603199	692	0	correct_rejection	NA	0
14	Single	124	772	772	8	0	0	603907	692	0	correct_rejection	NA	0
14	Single	125	773	773	7	0	0	604616	692	0	correct_rejection	NA	0
14	Single	126	774	774	6	0	0	605325	691	0	correct_rejection	NA	0
14	Single	127	775	775	9	0	0	606033	692	0	correct_rejection	NA	0
14	Single	128	776	776	7	0	0	606742	691	0	correct_rejection	NA	0
14	Single	129	777	777	0	1	1	607450	692	1	hit	372	0
14	Single	130	778	778	4	0	0	608159	692	0	correct_rejection	NA	0
14	Single	131	779	779	9	0	0	608867	692	0	correct_rejection	NA	0
14	Single	132	780	780	6	0	0	609576	692	0	correct_rejection	NA	0
14	Single	133	781	781	5	0	0	610285	691	0	correct_rejection	NA	0
14	Single	134	782	782	6	0	0	610993	692	0	correct_rejection	NA	0
14	Single	135	783	783	0	1	1	611702	691	1	hit	382	0
14	Single	136	784	784	6	0	0	612410	692	0	correct_rejection	NA	0
14	Single	137	785	785	7	0	0	613119	692	0	correct_rejection	NA	0
14	Single	138	786	786	9	0	0	613827	692	0	correct_rejection	NA	0
14	Single	139	787	787	9	0	0	614536	692	0	correct_rejection	NA	0
14	Single	140	788	788	4	0	0	615245	691	0	correct_rejection	NA	0
14	Single	141	789	789	5	0	0	615953	692	0	correct_rejection	NA	0
14	Single	142	790	790	8	0	0	616662	691	0	correct_rejection	NA	0
14	Single	143	791	791	6	0	0	617370	692	0	correct_rejection	NA	0
14	Single	144	792	792	8	0	0	618079	691	0	correct_rejection	NA	0
14	Single	145	793	793	9	0	0	618787	692	0	correct_rejection	NA	0
14	Single	146	794	794	5	0	0	619496	692	0	correct_rejection	NA	0
14	Single	147	795	795	7	0	0	620205	691	0	correct_rejection	NA	0
14	Single	148	796	796	5	0	0	620913	692	0	correct_rejection	NA	0
14	Single	149	797	797	5	0	0	621622	691	0	correct_rejection	NA	0
14	Single	150	798	798	9	0	0	622330	692	0	correct_rejection	NA	0
14	Single	151	799	799	8	0	0	623039	691	0	correct_rejection	NA	0
14	Single	152	800	800	0	1	1	623747	692	1	hit	366	0
14	Single	153	801	801	5	0	0	624456	692	0	correct_rejection	NA	0
14	Single	154	802	802	4	0	0	625164	692	0	correct_rejection	NA	0
14	Single	155	803	803	6	0	0	625873	692	0	correct_rejection	NA	0
14	Single	156	804	804	0	1	1	626582	691	1	hit	508	0
14	Single	157	805	805	4	0	0	627290	692	0	correct_rejection	NA	0
14	Single	158	806	806	4	0	0	627999	691	0	correct_rejection	NA	0
14	Single	159	807	807	8	0	0	628707	692	0	correct_rejection	NA	0
14	Single	160	808	808	0	1	1	629416	692	1	hit	437	0
14	Single	161	809	809	8	0	0	630124	692	0	correct_rejection	NA	0
14	Single	162	810	810	4	0	0	630833	692	0	correct_rejection	NA	0
trigger nr 623 at 633385
trigger nr 628 at 709068
14	Nonet	1	163	811	4	0	0	716770	691	0	correct_rejection	NA	7659
14	Nonet	2	164	812	5	0	0	717478	692	0	correct_rejection	NA	0
14	Nonet	3	165	813	6	0	0	718187	692	0	correct_rejection	NA	0
14	Nonet	4	166	814	4	0	0	718895	692	0	correct_rejection	NA	0
14	Nonet	5	167	815	5	0	0	719604	692	0	correct_rejection	NA	0
14	Nonet	6	168	816	6	0	0	720313	691	0	correct_rejection	NA	0
14	Nonet	7	169	817	4	0	0	721021	692	0	correct_rejection	NA	0
14	Nonet	8	170	818	5	0	0	721730	691	0	correct_rejection	NA	0
14	Nonet	9	171	819	0	1	1	722438	692	1	hit	341	0
14	Nonet	10	172	820	6	0	0	723147	692	0	correct_rejection	NA	0
14	Nonet	11	173	821	4	0	0	723855	692	0	correct_rejection	NA	0
14	Nonet	12	174	822	5	0	0	724564	692	0	correct_rejection	NA	0
14	Nonet	13	175	823	6	0	0	725273	691	0	correct_rejection	NA	0
14	Nonet	14	176	824	4	0	0	725981	692	0	correct_rejection	NA	0
14	Nonet	15	177	825	5	0	0	726690	691	0	correct_rejection	NA	0
14	Nonet	16	178	826	6	0	0	727398	692	0	correct_rejection	NA	0
14	Nonet	17	179	827	4	0	0	728107	692	0	correct_rejection	NA	0
14	Nonet	18	180	828	5	0	0	728815	692	0	correct_rejection	NA	0
14	Nonet	19	181	829	6	0	0	729524	692	0	correct_rejection	NA	0
14	Nonet	20	182	830	7	0	0	730233	691	0	correct_rejection	NA	0
14	Nonet	21	183	831	8	0	0	730941	692	0	correct_rejection	NA	0
14	Nonet	22	184	832	9	0	0	731650	691	0	correct_rejection	NA	0
14	Nonet	23	185	833	7	0	0	732358	692	0	correct_rejection	NA	0
14	Nonet	24	186	834	8	0	0	733067	692	0	correct_rejection	NA	0
14	Nonet	25	187	835	9	0	0	733775	692	0	correct_rejection	NA	0
14	Nonet	26	188	836	7	0	0	734484	692	0	correct_rejection	NA	0
14	Nonet	27	189	837	0	1	1	735193	691	1	hit	429	0
14	Nonet	28	190	838	8	0	0	735901	692	0	correct_rejection	NA	0
14	Nonet	29	191	839	9	0	0	736610	691	0	correct_rejection	NA	0
14	Nonet	30	192	840	0	1	3	737318	692	1	hit	496	0
14	Nonet	31	193	841	7	0	0	738027	691	0	correct_rejection	NA	0
14	Nonet	32	194	842	8	0	0	738735	692	0	correct_rejection	NA	0
14	Nonet	33	195	843	9	0	0	739444	692	0	correct_rejection	NA	0
14	Nonet	34	196	844	7	0	0	740152	692	0	correct_rejection	NA	0
14	Nonet	35	197	845	0	1	1	740861	692	1	hit	411	0
14	Nonet	36	198	846	8	0	0	741570	691	0	correct_rejection	NA	0
14	Nonet	37	199	847	9	0	0	742278	692	0	correct_rejection	NA	0
14	Nonet	38	200	848	7	0	0	742987	691	0	correct_rejection	NA	0
14	Nonet	39	201	849	8	0	0	743695	692	0	correct_rejection	NA	0
14	Nonet	40	202	850	9	0	0	744404	692	0	correct_rejection	NA	0
14	Nonet	41	203	851	6	0	0	745112	692	0	correct_rejection	NA	0
14	Nonet	42	204	852	5	0	0	745821	692	0	correct_rejection	NA	0
14	Nonet	43	205	853	4	0	0	746530	691	0	correct_rejection	NA	0
14	Nonet	44	206	854	6	0	0	747238	692	0	correct_rejection	NA	0
14	Nonet	45	207	855	5	0	0	747947	691	0	correct_rejection	NA	0
14	Nonet	46	208	856	4	0	0	748655	692	0	correct_rejection	NA	0
14	Nonet	47	209	857	6	0	0	749364	692	0	correct_rejection	NA	0
14	Nonet	48	210	858	5	0	0	750072	692	0	correct_rejection	NA	0
14	Nonet	49	211	859	0	1	1	750781	692	1	hit	436	0
14	Nonet	50	212	860	4	0	0	751490	691	0	correct_rejection	NA	0
14	Nonet	51	213	861	6	0	0	752198	692	0	correct_rejection	NA	0
14	Nonet	52	214	862	5	0	0	752907	691	0	correct_rejection	NA	0
14	Nonet	53	215	863	4	0	0	753615	692	0	correct_rejection	NA	0
14	Nonet	54	216	864	6	0	0	754324	692	0	correct_rejection	NA	0
14	Nonet	55	217	865	0	1	1	755032	692	1	hit	414	0
14	Nonet	56	218	866	5	0	0	755741	692	0	correct_rejection	NA	0
14	Nonet	57	219	867	4	0	0	756450	691	0	correct_rejection	NA	0
14	Nonet	58	220	868	6	0	0	757158	692	0	correct_rejection	NA	0
14	Nonet	59	221	869	5	0	0	757867	691	0	correct_rejection	NA	0
14	Nonet	60	222	870	4	0	0	758575	692	0	correct_rejection	NA	0
14	Nonet	61	223	871	4	0	0	759284	692	0	correct_rejection	NA	0
14	Nonet	62	224	872	0	1	1	759992	692	1	hit	648	0
14	Nonet	63	225	873	5	0	0	760701	692	0	correct_rejection	NA	0
14	Nonet	64	226	874	6	0	0	761410	691	0	correct_rejection	NA	0
14	Nonet	65	227	875	4	0	0	762118	692	0	correct_rejection	NA	0
14	Nonet	66	228	876	5	0	0	762827	691	0	correct_rejection	NA	0
14	Nonet	67	229	877	6	0	0	763535	692	0	correct_rejection	NA	0
14	Nonet	68	230	878	4	0	0	764244	691	0	correct_rejection	NA	0
14	Nonet	69	231	879	5	0	0	764952	692	0	correct_rejection	NA	0
14	Nonet	70	232	880	6	0	0	765661	692	0	correct_rejection	NA	0
14	Nonet	71	233	881	6	0	0	766369	692	0	correct_rejection	NA	0
14	Nonet	72	234	882	5	0	0	767078	692	0	correct_rejection	NA	0
14	Nonet	73	235	883	4	0	0	767787	691	0	correct_rejection	NA	0
14	Nonet	74	236	884	6	0	0	768495	692	0	correct_rejection	NA	0
14	Nonet	75	237	885	0	1	1	769204	691	1	hit	410	0
14	Nonet	76	238	886	5	0	0	769912	692	0	correct_rejection	NA	0
14	Nonet	77	239	887	4	0	0	770621	692	0	correct_rejection	NA	0
14	Nonet	78	240	888	0	1	2	771329	692	1	hit	408	0
14	Nonet	79	241	889	6	0	0	772038	692	0	correct_rejection	NA	0
14	Nonet	80	242	890	5	0	0	772747	691	0	correct_rejection	NA	0
14	Nonet	81	243	891	4	0	0	773455	692	0	correct_rejection	NA	0
14	Nonet	82	244	892	9	0	0	774164	691	0	correct_rejection	NA	0
14	Nonet	83	245	893	0	1	1	774872	692	1	hit	419	0
14	Nonet	84	246	894	8	0	0	775581	692	0	correct_rejection	NA	0
14	Nonet	85	247	895	7	0	0	776289	692	0	correct_rejection	NA	0
14	Nonet	86	248	896	9	0	0	776998	692	0	correct_rejection	NA	0
14	Nonet	87	249	897	8	0	0	777707	691	0	correct_rejection	NA	0
14	Nonet	88	250	898	7	0	0	778415	692	0	correct_rejection	NA	0
14	Nonet	89	251	899	9	0	0	779124	691	0	correct_rejection	NA	0
14	Nonet	90	252	900	8	0	0	779832	692	0	correct_rejection	NA	0
14	Nonet	91	253	901	7	0	0	780541	692	0	correct_rejection	NA	0
14	Nonet	92	254	902	4	0	0	781249	692	0	correct_rejection	NA	0
14	Nonet	93	255	903	5	0	0	781958	692	0	correct_rejection	NA	0
14	Nonet	94	256	904	6	0	0	782667	691	0	correct_rejection	NA	0
14	Nonet	95	257	905	0	1	2	783375	692	1	hit	432	0
14	Nonet	96	258	906	4	0	0	784084	691	0	correct_rejection	NA	0
14	Nonet	97	259	907	5	0	0	784792	692	0	correct_rejection	NA	0
14	Nonet	98	260	908	6	0	0	785501	692	0	correct_rejection	NA	0
14	Nonet	99	261	909	4	0	0	786209	692	0	correct_rejection	NA	0
14	Nonet	100	262	910	0	1	1	786918	692	1	hit	418	0
14	Nonet	101	263	911	5	0	0	787627	691	0	correct_rejection	NA	0
14	Nonet	102	264	912	6	0	0	788335	692	0	correct_rejection	NA	0
14	Nonet	103	265	913	9	0	0	789044	691	0	correct_rejection	NA	0
14	Nonet	104	266	914	0	1	1	789752	692	1	hit	440	0
14	Nonet	105	267	915	8	0	0	790461	691	0	correct_rejection	NA	0
14	Nonet	106	268	916	7	0	0	791169	692	0	correct_rejection	NA	0
14	Nonet	107	269	917	9	0	0	791878	692	0	correct_rejection	NA	0
14	Nonet	108	270	918	0	1	1	792586	692	1	hit	407	0
14	Nonet	109	271	919	8	0	0	793295	692	0	correct_rejection	NA	0
14	Nonet	110	272	920	7	0	0	794004	691	0	correct_rejection	NA	0
14	Nonet	111	273	921	9	0	0	794712	692	0	correct_rejection	NA	0
14	Nonet	112	274	922	8	0	0	795421	691	0	correct_rejection	NA	0
14	Nonet	113	275	923	7	0	0	796129	692	0	correct_rejection	NA	0
14	Nonet	114	276	924	0	1	3	796838	692	1	hit	424	0
14	Nonet	115	277	925	7	0	0	797546	692	0	correct_rejection	NA	0
14	Nonet	116	278	926	8	0	0	798255	692	0	correct_rejection	NA	0
14	Nonet	117	279	927	9	0	0	798964	691	0	correct_rejection	NA	0
14	Nonet	118	280	928	7	0	0	799672	692	0	correct_rejection	NA	0
14	Nonet	119	281	929	8	0	0	800381	691	0	correct_rejection	NA	0
14	Nonet	120	282	930	9	0	0	801089	692	0	correct_rejection	NA	0
14	Nonet	121	283	931	7	0	0	801798	692	0	correct_rejection	NA	0
14	Nonet	122	284	932	8	0	0	802506	692	0	correct_rejection	NA	0
14	Nonet	123	285	933	9	0	0	803215	692	0	correct_rejection	NA	0
14	Nonet	124	286	934	9	0	0	803924	691	0	correct_rejection	NA	0
14	Nonet	125	287	935	8	0	0	804632	692	0	correct_rejection	NA	0
14	Nonet	126	288	936	7	0	0	805341	691	0	correct_rejection	NA	0
14	Nonet	127	289	937	9	0	0	806049	692	0	correct_rejection	NA	0
14	Nonet	128	290	938	8	0	0	806758	692	0	correct_rejection	NA	0
14	Nonet	129	291	939	7	0	0	807466	692	0	correct_rejection	NA	0
14	Nonet	130	292	940	9	0	0	808175	692	0	correct_rejection	NA	0
14	Nonet	131	293	941	8	0	0	808884	691	0	correct_rejection	NA	0
14	Nonet	132	294	942	7	0	0	809592	692	0	correct_rejection	NA	0
14	Nonet	133	295	943	0	1	3	810301	691	1	hit	453	0
14	Nonet	134	296	944	9	0	0	811009	692	0	correct_rejection	NA	0
14	Nonet	135	297	945	8	0	0	811718	692	0	correct_rejection	NA	0
14	Nonet	136	298	946	7	0	0	812426	692	0	correct_rejection	NA	0
14	Nonet	137	299	947	9	0	0	813135	692	0	correct_rejection	NA	0
14	Nonet	138	300	948	8	0	0	813844	691	0	correct_rejection	NA	0
14	Nonet	139	301	949	7	0	0	814552	692	0	correct_rejection	NA	0
14	Nonet	140	302	950	9	0	0	815261	691	0	correct_rejection	NA	0
14	Nonet	141	303	951	8	0	0	815969	692	0	correct_rejection	NA	0
14	Nonet	142	304	952	7	0	0	816678	691	0	correct_rejection	NA	0
14	Nonet	143	305	953	6	0	0	817386	692	0	correct_rejection	NA	0
14	Nonet	144	306	954	5	0	0	818095	692	0	correct_rejection	NA	0
14	Nonet	145	307	955	4	0	0	818803	692	0	correct_rejection	NA	0
14	Nonet	146	308	956	0	1	2	819512	692	1	hit	448	0
14	Nonet	147	309	957	6	0	0	820221	691	0	correct_rejection	NA	0
14	Nonet	148	310	958	5	0	0	820929	692	0	correct_rejection	NA	0
14	Nonet	149	311	959	4	0	0	821638	691	0	correct_rejection	NA	0
14	Nonet	150	312	960	6	0	0	822346	692	0	correct_rejection	NA	0
14	Nonet	151	313	961	5	0	0	823055	692	0	correct_rejection	NA	0
14	Nonet	152	314	962	4	0	0	823763	692	0	correct_rejection	NA	0
14	Nonet	153	315	963	7	0	0	824472	692	0	correct_rejection	NA	0
14	Nonet	154	316	964	8	0	0	825181	691	0	correct_rejection	NA	0
14	Nonet	155	317	965	0	1	1	825889	692	1	hit	459	0
14	Nonet	156	318	966	9	0	0	826598	691	0	correct_rejection	NA	0
14	Nonet	157	319	967	7	0	0	827306	692	0	correct_rejection	NA	0
14	Nonet	158	320	968	8	0	0	828015	692	0	correct_rejection	NA	0
14	Nonet	159	321	969	9	0	0	828723	692	0	correct_rejection	NA	0
14	Nonet	160	322	970	7	0	0	829432	692	0	correct_rejection	NA	0
14	Nonet	161	323	971	8	0	0	830141	691	0	correct_rejection	NA	0
14	Nonet	162	324	972	9	0	0	830849	692	0	correct_rejection	NA	0
14	Correct	1	163	973	4	0	0	839594	691	0	correct_rejection	NA	6489
14	Correct	2	164	974	5	0	0	840302	692	0	correct_rejection	NA	0
14	Correct	3	165	975	6	0	0	841011	692	0	correct_rejection	NA	0
14	Correct	4	166	976	4	0	0	841719	692	0	correct_rejection	NA	0
14	Correct	5	167	977	5	0	0	842428	692	0	correct_rejection	NA	0
14	Correct	6	168	978	6	0	0	843137	691	0	correct_rejection	NA	0
14	Correct	7	169	979	4	0	0	843845	692	0	correct_rejection	NA	0
14	Correct	8	170	980	0	1	1	844554	691	1	hit	549	0
14	Correct	9	171	981	5	0	0	845262	692	0	correct_rejection	NA	0
14	Correct	10	172	982	6	0	0	845971	691	0	correct_rejection	NA	0
14	Correct	11	173	983	6	0	0	846679	692	0	correct_rejection	NA	0
14	Correct	12	174	984	5	0	0	847388	692	0	correct_rejection	NA	0
14	Correct	13	175	985	4	0	0	848097	691	0	correct_rejection	NA	0
14	Correct	14	176	986	0	1	2	848805	692	1	hit	379	0
14	Correct	15	177	987	6	0	0	849514	691	0	correct_rejection	NA	0
14	Correct	16	178	988	5	0	0	850222	692	0	correct_rejection	NA	0
14	Correct	17	179	989	4	0	0	850931	691	0	correct_rejection	NA	0
14	Correct	18	180	990	6	0	0	851639	692	0	correct_rejection	NA	0
14	Correct	19	181	991	5	0	0	852348	692	0	correct_rejection	NA	0
14	Correct	20	182	992	4	0	0	853056	692	0	correct_rejection	NA	0
14	Correct	21	183	993	0	1	3	853765	692	1	hit	377	0
14	Correct	22	184	994	9	0	0	854474	691	0	correct_rejection	NA	0
14	Correct	23	185	995	8	0	0	855182	692	0	correct_rejection	NA	0
14	Correct	24	186	996	7	0	0	855891	691	0	correct_rejection	NA	0
14	Correct	25	187	997	0	1	2	856599	692	1	hit	657	0
14	Correct	26	188	998	9	0	0	857308	692	0	correct_rejection	NA	0
14	Correct	27	189	999	8	0	0	858016	692	0	correct_rejection	NA	0
14	Correct	28	190	1000	0	1	1	858725	692	1	hit	408	0
14	Correct	29	191	1001	7	0	0	859434	691	0	correct_rejection	NA	0
14	Correct	30	192	1002	9	0	0	860142	692	0	correct_rejection	NA	0
14	Correct	31	193	1003	8	0	0	860851	691	0	correct_rejection	NA	0
14	Correct	32	194	1004	7	0	0	861559	692	0	correct_rejection	NA	0
14	Correct	33	195	1005	0	1	3	862268	692	1	hit	349	0
14	Correct	34	196	1006	7	0	0	862976	692	0	correct_rejection	NA	0
14	Correct	35	197	1007	8	0	0	863685	692	0	correct_rejection	NA	0
14	Correct	36	198	1008	9	0	0	864394	691	0	correct_rejection	NA	0
14	Correct	37	199	1009	7	0	0	865102	692	0	correct_rejection	NA	0
14	Correct	38	200	1010	8	0	0	865811	691	0	correct_rejection	NA	0
14	Correct	39	201	1011	9	0	0	866519	692	0	correct_rejection	NA	0
14	Correct	40	202	1012	7	0	0	867228	692	0	correct_rejection	NA	0
14	Correct	41	203	1013	8	0	0	867936	692	0	correct_rejection	NA	0
14	Correct	42	204	1014	9	0	0	868645	692	0	correct_rejection	NA	0
14	Correct	43	205	1015	4	0	0	869354	691	0	correct_rejection	NA	0
14	Correct	44	206	1016	5	0	0	870062	692	0	correct_rejection	NA	0
14	Correct	45	207	1017	6	0	0	870771	691	0	correct_rejection	NA	0
14	Correct	46	208	1018	4	0	0	871479	692	0	correct_rejection	NA	0
14	Correct	47	209	1019	5	0	0	872188	691	0	correct_rejection	NA	0
14	Correct	48	210	1020	6	0	0	872896	692	0	correct_rejection	NA	0
14	Correct	49	211	1021	4	0	0	873605	692	0	correct_rejection	NA	0
14	Correct	50	212	1022	5	0	0	874314	691	0	correct_rejection	NA	0
14	Correct	51	213	1023	6	0	0	875022	692	0	correct_rejection	NA	0
14	Correct	52	214	1024	6	0	0	875731	691	0	correct_rejection	NA	0
14	Correct	53	215	1025	5	0	0	876439	692	0	correct_rejection	NA	0
14	Correct	54	216	1026	4	0	0	877148	691	0	correct_rejection	NA	0
14	Correct	55	217	1027	6	0	0	877856	692	0	correct_rejection	NA	0
14	Correct	56	218	1028	5	0	0	878565	692	0	correct_rejection	NA	0
14	Correct	57	219	1029	4	0	0	879273	692	0	correct_rejection	NA	0
14	Correct	58	220	1030	6	0	0	879982	692	0	correct_rejection	NA	0
14	Correct	59	221	1031	5	0	0	880691	691	0	correct_rejection	NA	0
14	Correct	60	222	1032	0	1	1	881399	692	1	hit	402	0
14	Correct	61	223	1033	4	0	0	882108	691	0	correct_rejection	NA	0
14	Correct	62	224	1034	9	0	0	882816	692	0	correct_rejection	NA	0
14	Correct	63	225	1035	0	1	1	883525	692	1	hit	411	0
14	Correct	64	226	1036	8	0	0	884233	692	0	correct_rejection	NA	0
14	Correct	65	227	1037	7	0	0	884942	692	0	correct_rejection	NA	0
14	Correct	66	228	1038	9	0	0	885651	691	0	correct_rejection	NA	0
14	Correct	67	229	1039	8	0	0	886359	692	0	correct_rejection	NA	0
14	Correct	68	230	1040	7	0	0	887068	691	0	correct_rejection	NA	0
14	Correct	69	231	1041	9	0	0	887776	692	0	correct_rejection	NA	0
14	Correct	70	232	1042	8	0	0	888485	692	0	correct_rejection	NA	0
14	Correct	71	233	1043	7	0	0	889193	692	0	correct_rejection	NA	0
14	Correct	72	234	1044	7	0	0	889902	692	0	correct_rejection	NA	0
14	Correct	73	235	1045	8	0	0	890611	691	0	correct_rejection	NA	0
14	Correct	74	236	1046	0	1	1	891319	692	1	hit	505	0
14	Correct	75	237	1047	9	0	0	892028	691	0	correct_rejection	NA	0
14	Correct	76	238	1048	7	0	0	892736	692	0	correct_rejection	NA	0
14	Correct	77	239	1049	0	1	1	893445	692	0	miss	NA	0
14	Correct	78	240	1050	8	0	0	894153	692	1	false_alarm	38	0
14	Correct	79	241	1051	9	0	0	894862	692	0	correct_rejection	NA	0
14	Correct	80	242	1052	7	0	0	895571	691	0	correct_rejection	NA	0
14	Correct	81	243	1053	0	1	1	896279	692	1	hit	353	0
14	Correct	82	244	1054	8	0	0	896988	691	0	correct_rejection	NA	0
14	Correct	83	245	1055	9	0	0	897696	692	0	correct_rejection	NA	0
14	Correct	84	246	1056	4	0	0	898405	691	0	correct_rejection	NA	0
14	Correct	85	247	1057	5	0	0	899113	692	0	correct_rejection	NA	0
14	Correct	86	248	1058	6	0	0	899822	692	0	correct_rejection	NA	0
14	Correct	87	249	1059	0	1	2	900531	691	1	hit	493	0
14	Correct	88	250	1060	4	0	0	901239	692	0	correct_rejection	NA	0
14	Correct	89	251	1061	5	0	0	901948	691	0	correct_rejection	NA	0
14	Correct	90	252	1062	6	0	0	902656	692	0	correct_rejection	NA	0
14	Correct	91	253	1063	4	0	0	903365	691	0	correct_rejection	NA	0
14	Correct	92	254	1064	5	0	0	904073	692	0	correct_rejection	NA	0
14	Correct	93	255	1065	6	0	0	904782	692	0	correct_rejection	NA	0
14	Correct	94	256	1066	6	0	0	905490	692	0	correct_rejection	NA	0
14	Correct	95	257	1067	0	1	1	906199	692	1	hit	434	0
14	Correct	96	258	1068	5	0	0	906908	691	0	correct_rejection	NA	0
14	Correct	97	259	1069	4	0	0	907616	692	0	correct_rejection	NA	0
14	Correct	98	260	1070	6	0	0	908325	691	0	correct_rejection	NA	0
14	Correct	99	261	1071	5	0	0	909033	692	0	correct_rejection	NA	0
14	Correct	100	262	1072	4	0	0	909742	692	0	correct_rejection	NA	0
14	Correct	101	263	1073	6	0	0	910450	692	0	correct_rejection	NA	0
14	Correct	102	264	1074	5	0	0	911159	692	0	correct_rejection	NA	0
14	Correct	103	265	1075	4	0	0	911868	691	0	correct_rejection	NA	0
14	Correct	104	266	1076	9	0	0	912576	692	0	correct_rejection	NA	0
14	Correct	105	267	1077	8	0	0	913285	691	0	correct_rejection	NA	0
14	Correct	106	268	1078	7	0	0	913993	692	0	correct_rejection	NA	0
14	Correct	107	269	1079	9	0	0	914702	692	0	correct_rejection	NA	0
14	Correct	108	270	1080	8	0	0	915410	692	0	correct_rejection	NA	0
14	Correct	109	271	1081	7	0	0	916119	692	0	correct_rejection	NA	0
14	Correct	110	272	1082	9	0	0	916828	691	0	correct_rejection	NA	0
14	Correct	111	273	1083	8	0	0	917536	692	0	correct_rejection	NA	0
14	Correct	112	274	1084	7	0	0	918245	691	0	correct_rejection	NA	0
14	Correct	113	275	1085	7	0	0	918953	692	0	correct_rejection	NA	0
14	Correct	114	276	1086	8	0	0	919662	692	0	correct_rejection	NA	0
14	Correct	115	277	1087	0	1	1	920370	692	1	hit	427	0
14	Correct	116	278	1088	9	0	0	921079	692	0	correct_rejection	NA	0
14	Correct	117	279	1089	7	0	0	921788	691	0	correct_rejection	NA	0
14	Correct	118	280	1090	8	0	0	922496	692	0	correct_rejection	NA	0
14	Correct	119	281	1091	9	0	0	923205	691	0	correct_rejection	NA	0
14	Correct	120	282	1092	0	1	2	923913	692	1	hit	557	0
14	Correct	121	283	1093	7	0	0	924622	691	0	correct_rejection	NA	0
14	Correct	122	284	1094	8	0	0	925330	692	0	correct_rejection	NA	0
14	Correct	123	285	1095	9	0	0	926039	692	0	correct_rejection	NA	0
14	Correct	124	286	1096	4	0	0	926748	691	0	correct_rejection	NA	0
14	Correct	125	287	1097	5	0	0	927456	692	0	correct_rejection	NA	0
14	Correct	126	288	1098	0	1	1	928165	691	1	hit	427	0
14	Correct	127	289	1099	6	0	0	928873	692	0	correct_rejection	NA	0
14	Correct	128	290	1100	4	0	0	929582	691	0	correct_rejection	NA	0
14	Correct	129	291	1101	5	0	0	930290	692	0	correct_rejection	NA	0
14	Correct	130	292	1102	6	0	0	930999	692	0	correct_rejection	NA	0
14	Correct	131	293	1103	4	0	0	931707	692	0	correct_rejection	NA	0
14	Correct	132	294	1104	5	0	0	932416	692	0	correct_rejection	NA	0
14	Correct	133	295	1105	6	0	0	933125	691	0	correct_rejection	NA	0
14	Correct	134	296	1106	6	0	0	933833	692	0	correct_rejection	NA	0
14	Correct	135	297	1107	5	0	0	934542	691	0	correct_rejection	NA	0
14	Correct	136	298	1108	4	0	0	935250	692	0	correct_rejection	NA	0
14	Correct	137	299	1109	6	0	0	935959	692	0	correct_rejection	NA	0
14	Correct	138	300	1110	5	0	0	936667	692	0	correct_rejection	NA	0
14	Correct	139	301	1111	4	0	0	937376	692	0	correct_rejection	NA	0
14	Correct	140	302	1112	6	0	0	938085	691	0	correct_rejection	NA	0
14	Correct	141	303	1113	5	0	0	938793	692	0	correct_rejection	NA	0
14	Correct	142	304	1114	4	0	0	939502	691	0	correct_rejection	NA	0
14	Correct	143	305	1115	9	0	0	940210	692	0	correct_rejection	NA	0
14	Correct	144	306	1116	8	0	0	940919	692	0	correct_rejection	NA	0
14	Correct	145	307	1117	7	0	0	941627	692	0	correct_rejection	NA	0
14	Correct	146	308	1118	9	0	0	942336	692	0	correct_rejection	NA	0
14	Correct	147	309	1119	8	0	0	943045	691	0	correct_rejection	NA	0
14	Correct	148	310	1120	0	1	1	943753	692	1	hit	430	0
14	Correct	149	311	1121	7	0	0	944462	691	0	correct_rejection	NA	0
14	Correct	150	312	1122	9	0	0	945170	692	0	correct_rejection	NA	0
14	Correct	151	313	1123	8	0	0	945879	692	0	correct_rejection	NA	0
14	Correct	152	314	1124	7	0	0	946587	692	0	correct_rejection	NA	0
14	Correct	153	315	1125	7	0	0	947296	692	0	correct_rejection	NA	0
14	Correct	154	316	1126	0	1	1	948005	691	1	hit	480	0
14	Correct	155	317	1127	8	0	0	948713	692	0	correct_rejection	NA	0
14	Correct	156	318	1128	9	0	0	949422	691	0	correct_rejection	NA	0
14	Correct	157	319	1129	7	0	0	950130	692	0	correct_rejection	NA	0
14	Correct	158	320	1130	8	0	0	950839	691	0	correct_rejection	NA	0
14	Correct	159	321	1131	9	0	0	951547	692	0	correct_rejection	NA	0
14	Correct	160	322	1132	7	0	0	952256	692	0	correct_rejection	NA	0
14	Correct	161	323	1133	8	0	0	952965	691	0	correct_rejection	NA	0
14	Correct	162	324	1134	9	0	0	953673	692	0	correct_rejection	NA	0
14	Single	1	1	1135	9	0	0	964060	692	0	correct_rejection	NA	7959
14	Single	2	2	1136	5	0	0	964768	692	0	correct_rejection	NA	0
14	Single	3	3	1137	4	0	0	965477	692	0	correct_rejection	NA	0
14	Single	4	4	1138	7	0	0	966186	691	0	correct_rejection	NA	0
14	Single	5	5	1139	9	0	0	966894	692	0	correct_rejection	NA	0
14	Single	6	6	1140	4	0	0	967603	691	0	correct_rejection	NA	0
14	Single	7	7	1141	4	0	0	968311	692	0	correct_rejection	NA	0
14	Single	8	8	1142	5	0	0	969020	692	0	correct_rejection	NA	0
14	Single	9	9	1143	0	1	1	969728	692	1	hit	511	0
14	Single	10	10	1144	8	0	0	970437	692	0	correct_rejection	NA	0
14	Single	11	11	1145	7	0	0	971146	691	0	correct_rejection	NA	0
14	Single	12	12	1146	5	0	0	971854	692	0	correct_rejection	NA	0
14	Single	13	13	1147	7	0	0	972563	691	0	correct_rejection	NA	0
14	Single	14	14	1148	0	1	1	973271	692	1	hit	495	0
14	Single	15	15	1149	7	0	0	973980	691	0	correct_rejection	NA	0
14	Single	16	16	1150	8	0	0	974688	692	0	correct_rejection	NA	0
14	Single	17	17	1151	9	0	0	975397	692	0	correct_rejection	NA	0
14	Single	18	18	1152	8	0	0	976105	692	0	correct_rejection	NA	0
14	Single	19	19	1153	6	0	0	976814	692	0	correct_rejection	NA	0
14	Single	20	20	1154	4	0	0	977523	691	0	correct_rejection	NA	0
14	Single	21	21	1155	0	1	1	978231	692	1	hit	631	0
14	Single	22	22	1156	9	0	0	978940	691	0	correct_rejection	NA	0
14	Single	23	23	1157	9	0	0	979648	692	0	correct_rejection	NA	0
14	Single	24	24	1158	7	0	0	980357	692	0	correct_rejection	NA	0
14	Single	25	25	1159	0	1	1	981065	692	1	hit	601	0
14	Single	26	26	1160	6	0	0	981774	692	0	correct_rejection	NA	0
14	Single	27	27	1161	6	0	0	982483	691	0	correct_rejection	NA	0
14	Single	28	28	1162	8	0	0	983191	692	0	correct_rejection	NA	0
14	Single	29	29	1163	5	0	0	983900	691	0	correct_rejection	NA	0
14	Single	30	30	1164	6	0	0	984608	692	0	correct_rejection	NA	0
14	Single	31	31	1165	0	1	1	985317	692	1	hit	362	0
14	Single	32	32	1166	7	0	0	986025	692	0	correct_rejection	NA	0
14	Single	33	33	1167	4	0	0	986734	692	0	correct_rejection	NA	0
14	Single	34	34	1168	8	0	0	987443	691	0	correct_rejection	NA	0
14	Single	35	35	1169	8	0	0	988151	692	0	correct_rejection	NA	0
14	Single	36	36	1170	4	0	0	988860	691	0	correct_rejection	NA	0
14	Single	37	37	1171	6	0	0	989568	692	0	correct_rejection	NA	0
14	Single	38	38	1172	5	0	0	990277	692	0	correct_rejection	NA	0
14	Single	39	39	1173	5	0	0	990985	692	0	correct_rejection	NA	0
14	Single	40	40	1174	9	0	0	991694	692	0	correct_rejection	NA	0
14	Single	41	41	1175	6	0	0	992403	691	0	correct_rejection	NA	0
14	Single	42	42	1176	4	0	0	993111	692	0	correct_rejection	NA	0
14	Single	43	43	1177	9	0	0	993820	691	0	correct_rejection	NA	0
14	Single	44	44	1178	8	0	0	994528	692	0	correct_rejection	NA	0
14	Single	45	45	1179	8	0	0	995237	691	0	correct_rejection	NA	0
14	Single	46	46	1180	6	0	0	995945	692	0	correct_rejection	NA	0
14	Single	47	47	1181	9	0	0	996654	692	0	correct_rejection	NA	0
14	Single	48	48	1182	6	0	0	997363	691	0	correct_rejection	NA	0
14	Single	49	49	1183	6	0	0	998071	692	0	correct_rejection	NA	0
14	Single	50	50	1184	7	0	0	998780	691	0	correct_rejection	NA	0
14	Single	51	51	1185	5	0	0	999488	692	0	correct_rejection	NA	0
14	Single	52	52	1186	6	0	0	1000197	691	0	correct_rejection	NA	0
14	Single	53	53	1187	5	0	0	1000905	692	0	correct_rejection	NA	0
14	Single	54	54	1188	8	0	0	1001614	692	0	correct_rejection	NA	0
14	Single	55	55	1189	4	0	0	1002322	692	0	correct_rejection	NA	0
14	Single	56	56	1190	5	0	0	1003031	692	0	correct_rejection	NA	0
14	Single	57	57	1191	4	0	0	1003740	691	0	correct_rejection	NA	0
14	Single	58	58	1192	8	0	0	1004448	692	0	correct_rejection	NA	0
14	Single	59	59	1193	7	0	0	1005157	691	0	correct_rejection	NA	0
14	Single	60	60	1194	7	0	0	1005865	692	0	correct_rejection	NA	0
14	Single	61	61	1195	6	0	0	1006574	692	0	correct_rejection	NA	0
14	Single	62	62	1196	8	0	0	1007282	692	0	correct_rejection	NA	0
14	Single	63	63	1197	9	0	0	1007991	692	0	correct_rejection	NA	0
14	Single	64	64	1198	7	0	0	1008700	691	0	correct_rejection	NA	0
14	Single	65	65	1199	9	0	0	1009408	692	0	correct_rejection	NA	0
14	Single	66	66	1200	5	0	0	1010117	691	0	correct_rejection	NA	0
14	Single	67	67	1201	5	0	0	1010825	692	0	correct_rejection	NA	0
14	Single	68	68	1202	7	0	0	1011534	692	0	correct_rejection	NA	0
14	Single	69	69	1203	4	0	0	1012242	692	0	correct_rejection	NA	0
14	Single	70	70	1204	6	0	0	1012951	692	0	correct_rejection	NA	0
14	Single	71	71	1205	4	0	0	1013660	691	0	correct_rejection	NA	0
14	Single	72	72	1206	0	1	1	1014368	692	1	hit	427	0
14	Single	73	73	1207	4	0	0	1015077	691	0	correct_rejection	NA	0
14	Single	74	74	1208	7	0	0	1015785	692	0	correct_rejection	NA	0
14	Single	75	75	1209	0	1	1	1016494	692	1	hit	413	0
14	Single	76	76	1210	8	0	0	1017202	692	0	correct_rejection	NA	0
14	Single	77	77	1211	5	0	0	1017911	692	0	correct_rejection	NA	0
14	Single	78	78	1212	9	0	0	1018620	691	0	correct_rejection	NA	0
14	Single	79	79	1213	9	0	0	1019328	692	0	correct_rejection	NA	0
14	Single	80	80	1214	4	0	0	1020037	691	0	correct_rejection	NA	0
14	Single	81	81	1215	9	0	0	1020745	692	0	correct_rejection	NA	0
14	Single	82	82	1216	0	1	1	1021454	692	1	hit	399	0
14	Single	83	83	1217	6	0	0	1022162	692	0	correct_rejection	NA	0
14	Single	84	84	1218	4	0	0	1022871	692	0	correct_rejection	NA	0
14	Single	85	85	1219	6	0	0	1023580	691	0	correct_rejection	NA	0
14	Single	86	86	1220	8	0	0	1024288	692	0	correct_rejection	NA	0
14	Single	87	87	1221	0	1	1	1024997	691	1	hit	421	0
14	Single	88	88	1222	8	0	0	1025705	692	0	correct_rejection	NA	0
14	Single	89	89	1223	5	0	0	1026414	691	0	correct_rejection	NA	0
14	Single	90	90	1224	7	0	0	1027122	692	0	correct_rejection	NA	0
14	Single	91	91	1225	8	0	0	1027831	692	0	correct_rejection	NA	0
14	Single	92	92	1226	6	0	0	1028539	692	0	correct_rejection	NA	0
14	Single	93	93	1227	7	0	0	1029248	692	0	correct_rejection	NA	0
14	Single	94	94	1228	9	0	0	1029957	691	0	correct_rejection	NA	0
14	Single	95	95	1229	8	0	0	1030665	692	0	correct_rejection	NA	0
14	Single	96	96	1230	7	0	0	1031374	691	0	correct_rejection	NA	0
14	Single	97	97	1231	6	0	0	1032082	692	0	correct_rejection	NA	0
14	Single	98	98	1232	9	0	0	1032791	692	0	correct_rejection	NA	0
14	Single	99	99	1233	0	1	1	1033499	692	1	hit	407	0
14	Single	100	100	1234	7	0	0	1034208	692	0	correct_rejection	NA	0
14	Single	101	101	1235	7	0	0	1034917	691	0	correct_rejection	NA	0
14	Single	102	102	1236	4	0	0	1035625	692	0	correct_rejection	NA	0
14	Single	103	103	1237	5	0	0	1036334	691	0	correct_rejection	NA	0
14	Single	104	104	1238	5	0	0	1037042	692	0	correct_rejection	NA	0
14	Single	105	105	1239	8	0	0	1037751	692	0	correct_rejection	NA	0
14	Single	106	106	1240	9	0	0	1038459	692	0	correct_rejection	NA	0
14	Single	107	107	1241	0	1	1	1039168	692	1	hit	367	0
14	Single	108	108	1242	9	0	0	1039877	691	0	correct_rejection	NA	0
14	Single	109	109	1243	4	0	0	1040585	692	0	correct_rejection	NA	0
14	Single	110	110	1244	0	1	1	1041294	691	1	hit	414	0
14	Single	111	111	1245	8	0	0	1042002	692	0	correct_rejection	NA	0
14	Single	112	112	1246	4	0	0	1042711	692	0	correct_rejection	NA	0
14	Single	113	113	1247	0	1	1	1043419	692	1	hit	508	0
14	Single	114	114	1248	7	0	0	1044128	692	0	correct_rejection	NA	0
14	Single	115	115	1249	5	0	0	1044837	691	0	correct_rejection	NA	0
14	Single	116	116	1250	9	0	0	1045545	692	0	correct_rejection	NA	0
14	Single	117	117	1251	5	0	0	1046254	691	0	correct_rejection	NA	0
14	Single	118	118	1252	6	0	0	1046962	692	0	correct_rejection	NA	0
14	Single	119	119	1253	6	0	0	1047671	692	0	correct_rejection	NA	0
14	Single	120	120	1254	5	0	0	1048379	692	0	correct_rejection	NA	0
14	Single	121	121	1255	0	1	1	1049088	692	1	hit	365	0
14	Single	122	122	1256	4	0	0	1049797	691	0	correct_rejection	NA	0
14	Single	123	123	1257	9	0	0	1050505	692	0	correct_rejection	NA	0
14	Single	124	124	1258	7	0	0	1051214	691	0	correct_rejection	NA	0
14	Single	125	125	1259	6	0	0	1051922	692	0	correct_rejection	NA	0
14	Single	126	126	1260	4	0	0	1052631	691	0	correct_rejection	NA	0
14	Single	127	127	1261	9	0	0	1053339	692	0	correct_rejection	NA	0
14	Single	128	128	1262	4	0	0	1054048	692	0	correct_rejection	NA	0
14	Single	129	129	1263	4	0	0	1054756	692	0	correct_rejection	NA	0
14	Single	130	130	1264	8	0	0	1055465	692	0	correct_rejection	NA	0
14	Single	131	131	1265	5	0	0	1056174	691	0	correct_rejection	NA	0
14	Single	132	132	1266	8	0	0	1056882	692	0	correct_rejection	NA	0
14	Single	133	133	1267	6	0	0	1057591	691	0	correct_rejection	NA	0
14	Single	134	134	1268	8	0	0	1058299	692	0	correct_rejection	NA	0
14	Single	135	135	1269	4	0	0	1059008	692	0	correct_rejection	NA	0
14	Single	136	136	1270	6	0	0	1059716	692	0	correct_rejection	NA	0
14	Single	137	137	1271	0	1	1	1060425	692	1	hit	423	0
14	Single	138	138	1272	6	0	0	1061134	691	0	correct_rejection	NA	0
14	Single	139	139	1273	9	0	0	1061842	692	0	correct_rejection	NA	0
14	Single	140	140	1274	5	0	0	1062551	691	0	correct_rejection	NA	0
14	Single	141	141	1275	4	0	0	1063259	692	0	correct_rejection	NA	0
14	Single	142	142	1276	5	0	0	1063968	692	0	correct_rejection	NA	0
14	Single	143	143	1277	0	1	1	1064676	692	1	hit	412	0
14	Single	144	144	1278	6	0	0	1065385	692	0	correct_rejection	NA	0
14	Single	145	145	1279	7	0	0	1066094	691	0	correct_rejection	NA	0
14	Single	146	146	1280	8	0	0	1066802	692	0	correct_rejection	NA	0
14	Single	147	147	1281	8	0	0	1067511	691	0	correct_rejection	NA	0
14	Single	148	148	1282	7	0	0	1068219	692	0	correct_rejection	NA	0
14	Single	149	149	1283	4	0	0	1068928	692	0	correct_rejection	NA	0
14	Single	150	150	1284	7	0	0	1069636	692	0	correct_rejection	NA	0
14	Single	151	151	1285	9	0	0	1070345	692	0	correct_rejection	NA	0
14	Single	152	152	1286	6	0	0	1071054	691	0	correct_rejection	NA	0
14	Single	153	153	1287	5	0	0	1071762	692	0	correct_rejection	NA	0
14	Single	154	154	1288	0	1	1	1072471	691	1	hit	356	0
14	Single	155	155	1289	7	0	0	1073179	692	0	correct_rejection	NA	0
14	Single	156	156	1290	7	0	0	1073888	692	0	correct_rejection	NA	0
14	Single	157	157	1291	0	1	1	1074596	692	1	hit	447	0
14	Single	158	158	1292	5	0	0	1075305	692	0	correct_rejection	NA	0
14	Single	159	159	1293	5	0	0	1076014	691	0	correct_rejection	NA	0
14	Single	160	160	1294	9	0	0	1076722	692	0	correct_rejection	NA	0
14	Single	161	161	1295	8	0	0	1077431	691	0	correct_rejection	NA	0
14	Single	162	162	1296	9	0	0	1078139	692	0	correct_rejection	NA	0
14	Triplet	1	325	1297	6	0	0	1086475	692	0	correct_rejection	NA	6378
14	Triplet	2	326	1298	5	0	0	1087184	692	0	correct_rejection	NA	0
14	Triplet	3	327	1299	4	0	0	1087892	692	0	correct_rejection	NA	0
14	Triplet	4	328	1300	6	0	0	1088601	692	0	correct_rejection	NA	0
14	Triplet	5	329	1301	5	0	0	1089310	691	0	correct_rejection	NA	0
14	Triplet	6	330	1302	4	0	0	1090018	692	0	correct_rejection	NA	0
14	Triplet	7	331	1303	9	0	0	1090727	691	0	correct_rejection	NA	0
14	Triplet	8	332	1304	8	0	0	1091435	692	0	correct_rejection	NA	0
14	Triplet	9	333	1305	7	0	0	1092144	692	0	correct_rejection	NA	0
14	Triplet	10	334	1306	9	0	0	1092852	692	0	correct_rejection	NA	0
14	Triplet	11	335	1307	8	0	0	1093561	692	0	correct_rejection	NA	0
14	Triplet	12	336	1308	7	0	0	1094270	691	0	correct_rejection	NA	0
14	Triplet	13	337	1309	7	0	0	1094978	692	0	correct_rejection	NA	0
14	Triplet	14	338	1310	0	1	1	1095687	691	1	hit	441	0
14	Triplet	15	339	1311	8	0	0	1096395	692	0	correct_rejection	NA	0
14	Triplet	16	340	1312	9	0	0	1097104	692	0	correct_rejection	NA	0
14	Triplet	17	341	1313	9	0	0	1097812	692	0	correct_rejection	NA	0
14	Triplet	18	342	1314	8	0	0	1098521	692	0	correct_rejection	NA	0
14	Triplet	19	343	1315	7	0	0	1099230	691	0	correct_rejection	NA	0
14	Triplet	20	344	1316	6	0	0	1099938	692	0	correct_rejection	NA	0
14	Triplet	21	345	1317	5	0	0	1100647	691	0	correct_rejection	NA	0
14	Triplet	22	346	1318	4	0	0	1101355	692	0	correct_rejection	NA	0
14	Triplet	23	347	1319	7	0	0	1102064	691	0	correct_rejection	NA	0
14	Triplet	24	348	1320	8	0	0	1102772	692	0	correct_rejection	NA	0
14	Triplet	25	349	1321	9	0	0	1103481	692	0	correct_rejection	NA	0
14	Triplet	26	350	1322	4	0	0	1104189	692	0	correct_rejection	NA	0
14	Triplet	27	351	1323	5	0	0	1104898	692	0	correct_rejection	NA	0
14	Triplet	28	352	1324	6	0	0	1105607	691	0	correct_rejection	NA	0
14	Triplet	29	353	1325	6	0	0	1106315	692	0	correct_rejection	NA	0
14	Triplet	30	354	1326	0	1	1	1107024	691	1	hit	434	0
14	Triplet	31	355	1327	5	0	0	1107732	692	0	correct_rejection	NA	0
14	Triplet	32	356	1328	4	0	0	1108441	692	0	correct_rejection	NA	0
14	Triplet	33	357	1329	4	0	0	1109149	692	0	correct_rejection	NA	0
14	Triplet	34	358	1330	5	0	0	1109858	692	0	correct_rejection	NA	0
14	Triplet	35	359	1331	6	0	0	1110567	691	0	correct_rejection	NA	0
14	Triplet	36	360	1332	9	0	0	1111275	692	0	correct_rejection	NA	0
14	Triplet	37	361	1333	8	0	0	1111984	691	0	correct_rejection	NA	0
14	Triplet	38	362	1334	7	0	0	1112692	692	0	correct_rejection	NA	0
14	Triplet	39	363	1335	4	0	0	1113401	692	0	correct_rejection	NA	0
14	Triplet	40	364	1336	5	0	0	1114109	692	0	correct_rejection	NA	0
14	Triplet	41	365	1337	6	0	0	1114818	692	0	correct_rejection	NA	0
14	Triplet	42	366	1338	4	0	0	1115527	691	0	correct_rejection	NA	0
14	Triplet	43	367	1339	0	1	1	1116235	692	1	hit	350	0
14	Triplet	44	368	1340	5	0	0	1116944	691	0	correct_rejection	NA	0
14	Triplet	45	369	1341	6	0	0	1117652	692	0	correct_rejection	NA	0
14	Triplet	46	370	1342	7	0	0	1118361	692	0	correct_rejection	NA	0
14	Triplet	47	371	1343	8	0	0	1119069	692	0	correct_rejection	NA	0
14	Triplet	48	372	1344	9	0	0	1119778	692	0	correct_rejection	NA	0
14	Triplet	49	373	1345	7	0	0	1120487	691	0	correct_rejection	NA	0
14	Triplet	50	374	1346	8	0	0	1121195	692	0	correct_rejection	NA	0
14	Triplet	51	375	1347	9	0	0	1121904	691	0	correct_rejection	NA	0
14	Triplet	52	376	1348	0	1	2	1122612	692	1	hit	353	0
14	Triplet	53	377	1349	6	0	0	1123321	692	0	correct_rejection	NA	0
14	Triplet	54	378	1350	5	0	0	1124029	692	0	correct_rejection	NA	0
14	Triplet	55	379	1351	4	0	0	1124738	692	0	correct_rejection	NA	0
14	Triplet	56	380	1352	0	1	2	1125447	691	1	hit	433	0
14	Triplet	57	381	1353	7	0	0	1126155	692	0	correct_rejection	NA	0
14	Triplet	58	382	1354	8	0	0	1126864	691	0	correct_rejection	NA	0
14	Triplet	59	383	1355	9	0	0	1127572	692	0	correct_rejection	NA	0
14	Triplet	60	384	1356	9	0	0	1128281	691	0	correct_rejection	NA	0
14	Triplet	61	385	1357	8	0	0	1128989	692	0	correct_rejection	NA	0
14	Triplet	62	386	1358	7	0	0	1129698	692	0	correct_rejection	NA	0
14	Triplet	63	387	1359	4	0	0	1130406	692	0	correct_rejection	NA	0
14	Triplet	64	388	1360	5	0	0	1131115	692	0	correct_rejection	NA	0
14	Triplet	65	389	1361	6	0	0	1131824	691	0	correct_rejection	NA	0
14	Triplet	66	390	1362	7	0	0	1132532	692	0	correct_rejection	NA	0
14	Triplet	67	391	1363	8	0	0	1133241	691	0	correct_rejection	NA	0
14	Triplet	68	392	1364	0	1	1	1133949	692	1	hit	330	0
14	Triplet	69	393	1365	9	0	0	1134658	692	0	correct_rejection	NA	0
14	Triplet	70	394	1366	4	0	0	1135366	692	0	correct_rejection	NA	0
14	Triplet	71	395	1367	5	0	0	1136075	692	0	correct_rejection	NA	0
14	Triplet	72	396	1368	0	1	1	1136784	691	1	hit	349	0
14	Triplet	73	397	1369	6	0	0	1137492	692	0	correct_rejection	NA	0
14	Triplet	74	398	1370	4	0	0	1138201	691	0	correct_rejection	NA	0
14	Triplet	75	399	1371	0	1	1	1138909	692	1	hit	342	0
14	Triplet	76	400	1372	5	0	0	1139618	692	0	correct_rejection	NA	0
14	Triplet	77	401	1373	6	0	0	1140326	692	0	correct_rejection	NA	0
14	Triplet	78	402	1374	9	0	0	1141035	692	0	correct_rejection	NA	0
14	Triplet	79	403	1375	0	1	1	1141744	691	1	hit	345	0
14	Triplet	80	404	1376	8	0	0	1142452	692	0	correct_rejection	NA	0
14	Triplet	81	405	1377	7	0	0	1143161	691	0	correct_rejection	NA	0
14	Triplet	82	406	1378	9	0	0	1143869	692	0	correct_rejection	NA	0
14	Triplet	83	407	1379	8	0	0	1144578	692	0	correct_rejection	NA	0
14	Triplet	84	408	1380	7	0	0	1145286	692	0	correct_rejection	NA	0
14	Triplet	85	409	1381	6	0	0	1145995	692	0	correct_rejection	NA	0
14	Triplet	86	410	1382	5	0	0	1146704	691	0	correct_rejection	NA	0
14	Triplet	87	411	1383	4	0	0	1147412	692	0	correct_rejection	NA	0
14	Triplet	88	412	1384	4	0	0	1148121	691	0	correct_rejection	NA	0
14	Triplet	89	413	1385	5	0	0	1148829	692	0	correct_rejection	NA	0
14	Triplet	90	414	1386	6	0	0	1149538	692	0	correct_rejection	NA	0
14	Triplet	91	415	1387	6	0	0	1150246	692	0	correct_rejection	NA	0
14	Triplet	92	416	1388	5	0	0	1150955	692	0	correct_rejection	NA	0
14	Triplet	93	417	1389	4	0	0	1151664	691	0	correct_rejection	NA	0
14	Triplet	94	418	1390	9	0	0	1152372	692	0	correct_rejection	NA	0
14	Triplet	95	419	1391	8	0	0	1153081	691	0	correct_rejection	NA	0
14	Triplet	96	420	1392	7	0	0	1153789	692	0	correct_rejection	NA	0
14	Triplet	97	421	1393	0	1	2	1154498	691	1	hit	450	0
14	Triplet	98	422	1394	7	0	0	1155206	692	0	correct_rejection	NA	0
14	Triplet	99	423	1395	8	0	0	1155915	692	0	correct_rejection	NA	0
14	Triplet	100	424	1396	9	0	0	1156623	692	0	correct_rejection	NA	0
14	Triplet	101	425	1397	7	0	0	1157332	692	0	correct_rejection	NA	0
14	Triplet	102	426	1398	8	0	0	1158041	691	0	correct_rejection	NA	0
14	Triplet	103	427	1399	9	0	0	1158749	692	0	correct_rejection	NA	0
14	Triplet	104	428	1400	6	0	0	1159458	691	0	correct_rejection	NA	0
14	Triplet	105	429	1401	5	0	0	1160166	692	0	correct_rejection	NA	0
14	Triplet	106	430	1402	4	0	0	1160875	692	0	correct_rejection	NA	0
14	Triplet	107	431	1403	0	1	2	1161583	692	1	hit	336	0
14	Triplet	108	432	1404	6	0	0	1162292	692	0	correct_rejection	NA	0
14	Triplet	109	433	1405	5	0	0	1163001	691	0	correct_rejection	NA	0
14	Triplet	110	434	1406	0	1	1	1163709	692	1	hit	407	0
14	Triplet	111	435	1407	4	0	0	1164418	691	0	correct_rejection	NA	0
14	Triplet	112	436	1408	9	0	0	1165126	692	0	correct_rejection	NA	0
14	Triplet	113	437	1409	8	0	0	1165835	692	0	correct_rejection	NA	0
14	Triplet	114	438	1410	7	0	0	1166543	692	0	correct_rejection	NA	0
14	Triplet	115	439	1411	4	0	0	1167252	692	0	correct_rejection	NA	0
14	Triplet	116	440	1412	5	0	0	1167961	691	0	correct_rejection	NA	0
14	Triplet	117	441	1413	6	0	0	1168669	692	0	correct_rejection	NA	0
14	Triplet	118	442	1414	9	0	0	1169378	691	0	correct_rejection	NA	0
14	Triplet	119	443	1415	8	0	0	1170086	692	0	correct_rejection	NA	0
14	Triplet	120	444	1416	7	0	0	1170795	692	0	correct_rejection	NA	0
14	Triplet	121	445	1417	7	0	0	1171503	692	0	correct_rejection	NA	0
14	Triplet	122	446	1418	8	0	0	1172212	692	0	correct_rejection	NA	0
14	Triplet	123	447	1419	9	0	0	1172921	691	0	correct_rejection	NA	0
14	Triplet	124	448	1420	6	0	0	1173629	692	0	correct_rejection	NA	0
14	Triplet	125	449	1421	5	0	0	1174338	691	0	correct_rejection	NA	0
14	Triplet	126	450	1422	4	0	0	1175046	692	0	correct_rejection	NA	0
14	Triplet	127	451	1423	4	0	0	1175755	692	0	correct_rejection	NA	0
14	Triplet	128	452	1424	0	1	1	1176463	692	1	hit	405	0
14	Triplet	129	453	1425	5	0	0	1177172	692	0	correct_rejection	NA	0
14	Triplet	130	454	1426	6	0	0	1177881	691	0	correct_rejection	NA	0
14	Triplet	131	455	1427	0	1	2	1178589	692	1	hit	519	0
14	Triplet	132	456	1428	4	0	0	1179298	691	0	correct_rejection	NA	0
14	Triplet	133	457	1429	5	0	0	1180006	692	0	correct_rejection	NA	0
14	Triplet	134	458	1430	6	0	0	1180715	691	0	correct_rejection	NA	0
14	Triplet	135	459	1431	6	0	0	1181423	692	0	correct_rejection	NA	0
14	Triplet	136	460	1432	5	0	0	1182132	692	0	correct_rejection	NA	0
14	Triplet	137	461	1433	4	0	0	1182840	692	0	correct_rejection	NA	0
14	Triplet	138	462	1434	6	0	0	1183549	692	0	correct_rejection	NA	0
14	Triplet	139	463	1435	5	0	0	1184258	691	0	correct_rejection	NA	0
14	Triplet	140	464	1436	0	1	1	1184966	692	1	hit	447	0
14	Triplet	141	465	1437	4	0	0	1185675	691	0	correct_rejection	NA	0
14	Triplet	142	466	1438	7	0	0	1186383	692	0	correct_rejection	NA	0
14	Triplet	143	467	1439	8	0	0	1187092	692	0	correct_rejection	NA	0
14	Triplet	144	468	1440	9	0	0	1187800	692	0	correct_rejection	NA	0
14	Triplet	145	469	1441	7	0	0	1188509	692	0	correct_rejection	NA	0
14	Triplet	146	470	1442	8	0	0	1189218	691	0	correct_rejection	NA	0
14	Triplet	147	471	1443	9	0	0	1189926	692	0	correct_rejection	NA	0
14	Triplet	148	472	1444	4	0	0	1190635	691	0	correct_rejection	NA	0
14	Triplet	149	473	1445	5	0	0	1191343	692	0	correct_rejection	NA	0
14	Triplet	150	474	1446	6	0	0	1192052	692	0	correct_rejection	NA	0
14	Triplet	151	475	1447	0	1	2	1192760	692	1	hit	449	0
14	Triplet	152	476	1448	7	0	0	1193469	692	0	correct_rejection	NA	0
14	Triplet	153	477	1449	8	0	0	1194178	691	0	correct_rejection	NA	0
14	Triplet	154	478	1450	0	1	1	1194886	692	0	miss	NA	0
14	Triplet	155	479	1451	9	0	0	1195595	691	0	correct_rejection	NA	0
14	Triplet	156	480	1452	9	0	0	1196303	692	0	correct_rejection	NA	0
14	Triplet	157	481	1453	8	0	0	1197012	692	0	correct_rejection	NA	0
14	Triplet	158	482	1454	7	0	0	1197720	692	0	correct_rejection	NA	0
14	Triplet	159	483	1455	9	0	0	1198429	692	0	correct_rejection	NA	0
14	Triplet	160	484	1456	0	1	1	1199138	691	1	hit	407	0
14	Triplet	161	485	1457	8	0	0	1199846	692	0	correct_rejection	NA	0
14	Triplet	162	486	1458	7	0	0	1200555	691	0	correct_rejection	NA	0
14	Single	1	325	1459	9	0	0	1210708	692	0	correct_rejection	NA	7609
14	Single	2	326	1460	5	0	0	1211417	691	0	correct_rejection	NA	0
14	Single	3	327	1461	7	0	0	1212125	692	0	correct_rejection	NA	0
14	Single	4	328	1462	6	0	0	1212834	691	0	correct_rejection	NA	0
14	Single	5	329	1463	0	1	1	1213542	692	1	hit	346	0
14	Single	6	330	1464	9	0	0	1214251	692	0	correct_rejection	NA	0
14	Single	7	331	1465	4	0	0	1214959	692	0	correct_rejection	NA	0
14	Single	8	332	1466	4	0	0	1215668	692	0	correct_rejection	NA	0
14	Single	9	333	1467	7	0	0	1216377	691	0	correct_rejection	NA	0
14	Single	10	334	1468	8	0	0	1217085	692	0	correct_rejection	NA	0
14	Single	11	335	1469	5	0	0	1217794	691	0	correct_rejection	NA	0
14	Single	12	336	1470	9	0	0	1218502	692	0	correct_rejection	NA	0
14	Single	13	337	1471	0	1	1	1219211	692	1	hit	341	0
14	Single	14	338	1472	8	0	0	1219919	692	0	correct_rejection	NA	0
14	Single	15	339	1473	6	0	0	1220628	692	0	correct_rejection	NA	0
14	Single	16	340	1474	7	0	0	1221337	691	0	correct_rejection	NA	0
14	Single	17	341	1475	4	0	0	1222045	692	0	correct_rejection	NA	0
14	Single	18	342	1476	0	1	1	1222754	691	1	hit	444	0
14	Single	19	343	1477	5	0	0	1223462	692	0	correct_rejection	NA	0
14	Single	20	344	1478	8	0	0	1224171	692	0	correct_rejection	NA	0
14	Single	21	345	1479	8	0	0	1224879	692	0	correct_rejection	NA	0
14	Single	22	346	1480	9	0	0	1225588	692	0	correct_rejection	NA	0
14	Single	23	347	1481	7	0	0	1226297	691	0	correct_rejection	NA	0
14	Single	24	348	1482	5	0	0	1227005	692	0	correct_rejection	NA	0
14	Single	25	349	1483	5	0	0	1227714	691	0	correct_rejection	NA	0
14	Single	26	350	1484	4	0	0	1228422	692	0	correct_rejection	NA	0
14	Single	27	351	1485	9	0	0	1229131	691	0	correct_rejection	NA	0
14	Single	28	352	1486	9	0	0	1229839	692	0	correct_rejection	NA	0
14	Single	29	353	1487	6	0	0	1230548	692	0	correct_rejection	NA	0
14	Single	30	354	1488	8	0	0	1231256	692	0	correct_rejection	NA	0
14	Single	31	355	1489	4	0	0	1231965	692	0	correct_rejection	NA	0
14	Single	32	356	1490	6	0	0	1232674	691	0	correct_rejection	NA	0
14	Single	33	357	1491	0	1	1	1233382	692	1	hit	459	0
14	Single	34	358	1492	6	0	0	1234091	691	0	correct_rejection	NA	0
14	Single	35	359	1493	5	0	0	1234799	692	0	correct_rejection	NA	0
14	Single	36	360	1494	6	0	0	1235508	692	0	correct_rejection	NA	0
14	Single	37	361	1495	4	0	0	1236216	692	0	correct_rejection	NA	0
14	Single	38	362	1496	8	0	0	1236925	692	0	correct_rejection	NA	0
14	Single	39	363	1497	7	0	0	1237634	691	0	correct_rejection	NA	0
14	Single	40	364	1498	7	0	0	1238342	692	0	correct_rejection	NA	0
14	Single	41	365	1499	5	0	0	1239051	691	0	correct_rejection	NA	0
14	Single	42	366	1500	8	0	0	1239759	692	0	correct_rejection	NA	0
14	Single	43	367	1501	4	0	0	1240468	692	0	correct_rejection	NA	0
14	Single	44	368	1502	5	0	0	1241176	692	0	correct_rejection	NA	0
14	Single	45	369	1503	6	0	0	1241885	692	0	correct_rejection	NA	0
14	Single	46	370	1504	8	0	0	1242594	691	0	correct_rejection	NA	0
14	Single	47	371	1505	6	0	0	1243302	692	0	correct_rejection	NA	0
14	Single	48	372	1506	6	0	0	1244011	691	0	correct_rejection	NA	0
14	Single	49	373	1507	0	1	1	1244719	692	1	hit	501	0
14	Single	50	374	1508	4	0	0	1245428	692	0	correct_rejection	NA	0
14	Single	51	375	1509	7	0	0	1246136	692	0	correct_rejection	NA	0
14	Single	52	376	1510	9	0	0	1246845	692	0	correct_rejection	NA	0
14	Single	53	377	1511	0	1	1	1247554	691	1	hit	409	0
14	Single	54	378	1512	7	0	0	1248262	692	0	correct_rejection	NA	0
14	Single	55	379	1513	7	0	0	1248971	691	0	correct_rejection	NA	0
14	Single	56	380	1514	8	0	0	1249679	692	0	correct_rejection	NA	0
14	Single	57	381	1515	0	1	1	1250388	692	1	hit	417	0
14	Single	58	382	1516	7	0	0	1251096	692	0	correct_rejection	NA	0
14	Single	59	383	1517	4	0	0	1251805	692	0	correct_rejection	NA	0
14	Single	60	384	1518	0	1	1	1252514	691	1	hit	314	0
14	Single	61	385	1519	9	0	0	1253222	692	0	correct_rejection	NA	0
14	Single	62	386	1520	8	0	0	1253931	691	0	correct_rejection	NA	0
14	Single	63	387	1521	9	0	0	1254639	692	0	correct_rejection	NA	0
14	Single	64	388	1522	5	0	0	1255348	691	0	correct_rejection	NA	0
14	Single	65	389	1523	5	0	0	1256056	692	0	correct_rejection	NA	0
14	Single	66	390	1524	7	0	0	1256765	692	0	correct_rejection	NA	0
14	Single	67	391	1525	5	0	0	1257473	692	0	correct_rejection	NA	0
14	Single	68	392	1526	9	0	0	1258182	692	0	correct_rejection	NA	0
14	Single	69	393	1527	6	0	0	1258891	691	0	correct_rejection	NA	0
14	Single	70	394	1528	9	0	0	1259599	692	0	correct_rejection	NA	0
14	Single	71	395	1529	9	0	0	1260308	691	0	correct_rejection	NA	0
14	Single	72	396	1530	4	0	0	1261016	692	0	correct_rejection	NA	0
14	Single	73	397	1531	6	0	0	1261725	692	0	correct_rejection	NA	0
14	Single	74	398	1532	7	0	0	1262433	692	0	correct_rejection	NA	0
14	Single	75	399	1533	6	0	0	1263142	692	0	correct_rejection	NA	0
14	Single	76	400	1534	5	0	0	1263851	691	0	correct_rejection	NA	0
14	Single	77	401	1535	0	1	1	1264559	692	1	hit	387	0
14	Single	78	402	1536	4	0	0	1265268	691	0	correct_rejection	NA	0
14	Single	79	403	1537	4	0	0	1265976	692	0	correct_rejection	NA	0
14	Single	80	404	1538	8	0	0	1266685	692	0	correct_rejection	NA	0
14	Single	81	405	1539	8	0	0	1267393	692	0	correct_rejection	NA	0
14	Single	82	406	1540	0	1	1	1268102	692	1	hit	420	0
14	Single	83	407	1541	8	0	0	1268811	691	0	correct_rejection	NA	0
14	Single	84	408	1542	4	0	0	1269519	692	0	correct_rejection	NA	0
14	Single	85	409	1543	9	0	0	1270228	691	0	correct_rejection	NA	0
14	Single	86	410	1544	7	0	0	1270936	692	0	correct_rejection	NA	0
14	Single	87	411	1545	4	0	0	1271645	692	0	correct_rejection	NA	0
14	Single	88	412	1546	8	0	0	1272353	692	0	correct_rejection	NA	0
14	Single	89	413	1547	9	0	0	1273062	692	0	correct_rejection	NA	0
14	Single	90	414	1548	4	0	0	1273771	691	0	correct_rejection	NA	0
14	Single	91	415	1549	7	0	0	1274479	692	0	correct_rejection	NA	0
14	Single	92	416	1550	6	0	0	1275188	691	0	correct_rejection	NA	0
14	Single	93	417	1551	6	0	0	1275896	692	0	correct_rejection	NA	0
14	Single	94	418	1552	0	1	1	1276605	692	0	miss	NA	0
14	Single	95	419	1553	8	0	0	1277313	692	1	false_alarm	57	0
14	Single	96	420	1554	8	0	0	1278022	692	0	correct_rejection	NA	0
14	Single	97	421	1555	5	0	0	1278731	691	0	correct_rejection	NA	0
14	Single	98	422	1556	5	0	0	1279439	692	0	correct_rejection	NA	0
14	Single	99	423	1557	6	0	0	1280148	691	0	correct_rejection	NA	0
14	Single	100	424	1558	0	1	1	1280856	692	1	hit	589	0
14	Single	101	425	1559	7	0	0	1281565	691	0	correct_rejection	NA	0
14	Single	102	426	1560	9	0	0	1282273	692	0	correct_rejection	NA	0
14	Single	103	427	1561	6	0	0	1282982	692	0	correct_rejection	NA	0
14	Single	104	428	1562	4	0	0	1283690	692	0	correct_rejection	NA	0
14	Single	105	429	1563	4	0	0	1284399	692	0	correct_rejection	NA	0
14	Single	106	430	1564	6	0	0	1285108	691	0	correct_rejection	NA	0
14	Single	107	431	1565	9	0	0	1285816	692	0	correct_rejection	NA	0
14	Single	108	432	1566	5	0	0	1286525	691	0	correct_rejection	NA	0
14	Single	109	433	1567	4	0	0	1287233	692	0	correct_rejection	NA	0
14	Single	110	434	1568	5	0	0	1287942	692	0	correct_rejection	NA	0
14	Single	111	435	1569	9	0	0	1288650	692	0	correct_rejection	NA	0
14	Single	112	436	1570	9	0	0	1289359	692	0	correct_rejection	NA	0
14	Single	113	437	1571	8	0	0	1290068	691	0	correct_rejection	NA	0
14	Single	114	438	1572	7	0	0	1290776	692	0	correct_rejection	NA	0
14	Single	115	439	1573	8	0	0	1291485	691	0	correct_rejection	NA	0
14	Single	116	440	1574	6	0	0	1292193	692	0	correct_rejection	NA	0
14	Single	117	441	1575	5	0	0	1292902	692	0	correct_rejection	NA	0
14	Single	118	442	1576	7	0	0	1293610	692	0	correct_rejection	NA	0
14	Single	119	443	1577	7	0	0	1294319	692	0	correct_rejection	NA	0
14	Single	120	444	1578	5	0	0	1295028	691	0	correct_rejection	NA	0
14	Single	121	445	1579	8	0	0	1295736	692	0	correct_rejection	NA	0
14	Single	122	446	1580	7	0	0	1296445	691	0	correct_rejection	NA	0
14	Single	123	447	1581	9	0	0	1297153	692	0	correct_rejection	NA	0
14	Single	124	448	1582	0	1	1	1297862	692	1	hit	470	0
14	Single	125	449	1583	9	0	0	1298570	692	0	correct_rejection	NA	0
14	Single	126	450	1584	6	0	0	1299279	692	0	correct_rejection	NA	0
14	Single	127	451	1585	0	1	1	1299988	691	1	hit	534	0
14	Single	128	452	1586	5	0	0	1300696	692	0	correct_rejection	NA	0
14	Single	129	453	1587	5	0	0	1301405	691	0	correct_rejection	NA	0
14	Single	130	454	1588	9	0	0	1302113	692	0	correct_rejection	NA	0
14	Single	131	455	1589	4	0	0	1302822	692	0	correct_rejection	NA	0
14	Single	132	456	1590	9	0	0	1303530	692	0	correct_rejection	NA	0
14	Single	133	457	1591	5	0	0	1304239	692	0	correct_rejection	NA	0
14	Single	134	458	1592	7	0	0	1304948	691	0	correct_rejection	NA	0
14	Single	135	459	1593	4	0	0	1305656	692	0	correct_rejection	NA	0
14	Single	136	460	1594	4	0	0	1306365	691	0	correct_rejection	NA	0
14	Single	137	461	1595	5	0	0	1307073	692	0	correct_rejection	NA	0
14	Single	138	462	1596	8	0	0	1307782	691	0	correct_rejection	NA	0
