ID	block	trial_block	trial_cat	trial_total	number	violation	level_violation	onset	duration	Response	Hit_Miss	RT	pre_trial_fixcross_ISI
first_trigger_at: 11242
trigger nr 3 at 13242
15	Nonet	1	163	1	4	0	0	20948	692	0	correct_rejection	NA	7659
15	Nonet	2	164	2	5	0	0	21657	691	0	correct_rejection	NA	0
15	Nonet	3	165	3	6	0	0	22365	692	0	correct_rejection	NA	0
15	Nonet	4	166	4	4	0	0	23074	691	0	correct_rejection	NA	0
15	Nonet	5	167	5	5	0	0	23782	692	0	correct_rejection	NA	0
15	Nonet	6	168	6	6	0	0	24491	692	0	correct_rejection	NA	0
15	Nonet	7	169	7	4	0	0	25199	692	0	correct_rejection	NA	0
15	Nonet	8	170	8	5	0	0	25908	692	0	correct_rejection	NA	0
15	Nonet	9	171	9	0	1	1	26617	691	1	hit	348	0
15	Nonet	10	172	10	6	0	0	27325	692	0	correct_rejection	NA	0
15	Nonet	11	173	11	4	0	0	28034	691	0	correct_rejection	NA	0
15	Nonet	12	174	12	5	0	0	28742	692	0	correct_rejection	NA	0
15	Nonet	13	175	13	6	0	0	29451	692	0	correct_rejection	NA	0
15	Nonet	14	176	14	4	0	0	30159	692	0	correct_rejection	NA	0
15	Nonet	15	177	15	5	0	0	30868	692	0	correct_rejection	NA	0
15	Nonet	16	178	16	6	0	0	31577	691	0	correct_rejection	NA	0
15	Nonet	17	179	17	4	0	0	32285	692	0	correct_rejection	NA	0
15	Nonet	18	180	18	5	0	0	32994	691	0	correct_rejection	NA	0
15	Nonet	19	181	19	6	0	0	33702	692	0	correct_rejection	NA	0
15	Nonet	20	182	20	7	0	0	34411	692	0	correct_rejection	NA	0
15	Nonet	21	183	21	8	0	0	35119	692	0	correct_rejection	NA	0
15	Nonet	22	184	22	9	0	0	35828	692	0	correct_rejection	NA	0
15	Nonet	23	185	23	7	0	0	36537	691	0	correct_rejection	NA	0
15	Nonet	24	186	24	8	0	0	37245	692	0	correct_rejection	NA	0
15	Nonet	25	187	25	9	0	0	37954	691	0	correct_rejection	NA	0
15	Nonet	26	188	26	7	0	0	38662	692	0	correct_rejection	NA	0
15	Nonet	27	189	27	0	1	1	39371	692	1	hit	349	0
15	Nonet	28	190	28	8	0	0	40079	692	0	correct_rejection	NA	0
15	Nonet	29	191	29	9	0	0	40788	692	0	correct_rejection	NA	0
15	Nonet	30	192	30	0	1	3	41497	691	1	hit	337	0
15	Nonet	31	193	31	7	0	0	42205	692	0	correct_rejection	NA	0
15	Nonet	32	194	32	8	0	0	42914	691	0	correct_rejection	NA	0
15	Nonet	33	195	33	9	0	0	43622	692	0	correct_rejection	NA	0
15	Nonet	34	196	34	7	0	0	44331	692	0	correct_rejection	NA	0
15	Nonet	35	197	35	0	1	1	45039	692	1	hit	402	0
15	Nonet	36	198	36	8	0	0	45748	692	0	correct_rejection	NA	0
15	Nonet	37	199	37	9	0	0	46457	691	0	correct_rejection	NA	0
15	Nonet	38	200	38	7	0	0	47165	692	0	correct_rejection	NA	0
15	Nonet	39	201	39	8	0	0	47874	691	0	correct_rejection	NA	0
15	Nonet	40	202	40	9	0	0	48582	692	0	correct_rejection	NA	0
15	Nonet	41	203	41	6	0	0	49291	691	0	correct_rejection	NA	0
15	Nonet	42	204	42	5	0	0	49999	692	0	correct_rejection	NA	0
15	Nonet	43	205	43	4	0	0	50708	692	0	correct_rejection	NA	0
15	Nonet	44	206	44	6	0	0	51417	691	0	correct_rejection	NA	0
15	Nonet	45	207	45	5	0	0	52125	692	0	correct_rejection	NA	0
15	Nonet	46	208	46	4	0	0	52834	691	0	correct_rejection	NA	0
15	Nonet	47	209	47	6	0	0	53542	692	0	correct_rejection	NA	0
15	Nonet	48	210	48	5	0	0	54251	691	0	correct_rejection	NA	0
15	Nonet	49	211	49	0	1	1	54959	692	1	hit	348	0
15	Nonet	50	212	50	4	0	0	55668	692	0	correct_rejection	NA	0
15	Nonet	51	213	51	6	0	0	56376	692	0	correct_rejection	NA	0
15	Nonet	52	214	52	5	0	0	57085	692	0	correct_rejection	NA	0
15	Nonet	53	215	53	4	0	0	57794	691	0	correct_rejection	NA	0
15	Nonet	54	216	54	6	0	0	58502	692	0	correct_rejection	NA	0
15	Nonet	55	217	55	0	1	1	59211	691	1	hit	347	0
15	Nonet	56	218	56	5	0	0	59919	692	0	correct_rejection	NA	0
15	Nonet	57	219	57	4	0	0	60628	692	0	correct_rejection	NA	0
15	Nonet	58	220	58	6	0	0	61336	692	0	correct_rejection	NA	0
15	Nonet	59	221	59	5	0	0	62045	692	0	correct_rejection	NA	0
15	Nonet	60	222	60	4	0	0	62754	691	0	correct_rejection	NA	0
15	Nonet	61	223	61	4	0	0	63462	692	0	correct_rejection	NA	0
15	Nonet	62	224	62	0	1	1	64171	691	1	hit	318	0
15	Nonet	63	225	63	5	0	0	64879	692	0	correct_rejection	NA	0
15	Nonet	64	226	64	6	0	0	65588	692	0	correct_rejection	NA	0
15	Nonet	65	227	65	4	0	0	66296	692	0	correct_rejection	NA	0
15	Nonet	66	228	66	5	0	0	67005	692	0	correct_rejection	NA	0
15	Nonet	67	229	67	6	0	0	67714	691	0	correct_rejection	NA	0
15	Nonet	68	230	68	4	0	0	68422	692	0	correct_rejection	NA	0
15	Nonet	69	231	69	5	0	0	69131	691	0	correct_rejection	NA	0
15	Nonet	70	232	70	6	0	0	69839	692	0	correct_rejection	NA	0
15	Nonet	71	233	71	6	0	0	70548	692	0	correct_rejection	NA	0
15	Nonet	72	234	72	5	0	0	71256	692	0	correct_rejection	NA	0
15	Nonet	73	235	73	4	0	0	71965	692	0	correct_rejection	NA	0
15	Nonet	74	236	74	6	0	0	72674	691	0	correct_rejection	NA	0
15	Nonet	75	237	75	0	1	1	73382	692	1	hit	355	0
15	Nonet	76	238	76	5	0	0	74091	691	0	correct_rejection	NA	0
15	Nonet	77	239	77	4	0	0	74799	692	0	correct_rejection	NA	0
15	Nonet	78	240	78	0	1	2	75508	692	1	hit	425	0
15	Nonet	79	241	79	6	0	0	76216	692	0	correct_rejection	NA	0
15	Nonet	80	242	80	5	0	0	76925	692	0	correct_rejection	NA	0
15	Nonet	81	243	81	4	0	0	77634	691	0	correct_rejection	NA	0
15	Nonet	82	244	82	9	0	0	78342	692	0	correct_rejection	NA	0
15	Nonet	83	245	83	0	1	1	79051	691	1	hit	440	0
15	Nonet	84	246	84	8	0	0	79759	692	0	correct_rejection	NA	0
15	Nonet	85	247	85	7	0	0	80468	691	0	correct_rejection	NA	0
15	Nonet	86	248	86	9	0	0	81176	692	0	correct_rejection	NA	0
15	Nonet	87	249	87	8	0	0	81885	692	0	correct_rejection	NA	0
15	Nonet	88	250	88	7	0	0	82594	691	0	correct_rejection	NA	0
15	Nonet	89	251	89	9	0	0	83302	692	0	correct_rejection	NA	0
15	Nonet	90	252	90	8	0	0	84011	691	0	correct_rejection	NA	0
15	Nonet	91	253	91	7	0	0	84719	692	0	correct_rejection	NA	0
15	Nonet	92	254	92	4	0	0	85428	691	0	correct_rejection	NA	0
15	Nonet	93	255	93	5	0	0	86136	692	0	correct_rejection	NA	0
15	Nonet	94	256	94	6	0	0	86845	692	0	correct_rejection	NA	0
15	Nonet	95	257	95	0	1	2	87553	692	1	hit	325	0
15	Nonet	96	258	96	4	0	0	88262	692	0	correct_rejection	NA	0
15	Nonet	97	259	97	5	0	0	88971	691	0	correct_rejection	NA	0
15	Nonet	98	260	98	6	0	0	89679	692	0	correct_rejection	NA	0
15	Nonet	99	261	99	4	0	0	90388	691	0	correct_rejection	NA	0
15	Nonet	100	262	100	0	1	1	91096	692	1	hit	301	0
15	Nonet	101	263	101	5	0	0	91805	692	0	correct_rejection	NA	0
15	Nonet	102	264	102	6	0	0	92513	692	0	correct_rejection	NA	0
15	Nonet	103	265	103	9	0	0	93222	692	0	correct_rejection	NA	0
15	Nonet	104	266	104	0	1	1	93931	691	1	hit	447	0
15	Nonet	105	267	105	8	0	0	94639	692	0	correct_rejection	NA	0
15	Nonet	106	268	106	7	0	0	95348	691	0	correct_rejection	NA	0
15	Nonet	107	269	107	9	0	0	96056	692	0	correct_rejection	NA	0
15	Nonet	108	270	108	0	1	1	96765	692	1	hit	409	0
15	Nonet	109	271	109	8	0	0	97473	692	0	correct_rejection	NA	0
15	Nonet	110	272	110	7	0	0	98182	692	0	correct_rejection	NA	0
15	Nonet	111	273	111	9	0	0	98891	691	0	correct_rejection	NA	0
15	Nonet	112	274	112	8	0	0	99599	692	0	correct_rejection	NA	0
15	Nonet	113	275	113	7	0	0	100308	691	0	correct_rejection	NA	0
15	Nonet	114	276	114	0	1	3	101016	692	1	hit	323	0
15	Nonet	115	277	115	7	0	0	101725	692	0	correct_rejection	NA	0
15	Nonet	116	278	116	8	0	0	102433	692	0	correct_rejection	NA	0
15	Nonet	117	279	117	9	0	0	103142	692	0	correct_rejection	NA	0
15	Nonet	118	280	118	7	0	0	103851	691	0	correct_rejection	NA	0
15	Nonet	119	281	119	8	0	0	104559	692	0	correct_rejection	NA	0
15	Nonet	120	282	120	9	0	0	105268	691	0	correct_rejection	NA	0
15	Nonet	121	283	121	7	0	0	105976	692	0	correct_rejection	NA	0
15	Nonet	122	284	122	8	0	0	106685	692	0	correct_rejection	NA	0
15	Nonet	123	285	123	9	0	0	107393	692	0	correct_rejection	NA	0
15	Nonet	124	286	124	9	0	0	108102	692	0	correct_rejection	NA	0
15	Nonet	125	287	125	8	0	0	108811	691	0	correct_rejection	NA	0
15	Nonet	126	288	126	7	0	0	109519	692	0	correct_rejection	NA	0
15	Nonet	127	289	127	9	0	0	110228	691	0	correct_rejection	NA	0
15	Nonet	128	290	128	8	0	0	110936	692	0	correct_rejection	NA	0
15	Nonet	129	291	129	7	0	0	111645	691	0	correct_rejection	NA	0
15	Nonet	130	292	130	9	0	0	112353	692	0	correct_rejection	NA	0
15	Nonet	131	293	131	8	0	0	113062	692	0	correct_rejection	NA	0
15	Nonet	132	294	132	7	0	0	113770	692	0	correct_rejection	NA	0
15	Nonet	133	295	133	0	1	3	114479	692	1	hit	351	0
15	Nonet	134	296	134	9	0	0	115188	691	0	correct_rejection	NA	0
15	Nonet	135	297	135	8	0	0	115896	692	0	correct_rejection	NA	0
15	Nonet	136	298	136	7	0	0	116605	691	0	correct_rejection	NA	0
15	Nonet	137	299	137	9	0	0	117313	692	0	correct_rejection	NA	0
15	Nonet	138	300	138	8	0	0	118022	692	0	correct_rejection	NA	0
15	Nonet	139	301	139	7	0	0	118730	692	0	correct_rejection	NA	0
15	Nonet	140	302	140	9	0	0	119439	692	0	correct_rejection	NA	0
15	Nonet	141	303	141	8	0	0	120148	691	0	correct_rejection	NA	0
15	Nonet	142	304	142	7	0	0	120856	692	0	correct_rejection	NA	0
15	Nonet	143	305	143	6	0	0	121565	691	0	correct_rejection	NA	0
15	Nonet	144	306	144	5	0	0	122273	692	0	correct_rejection	NA	0
15	Nonet	145	307	145	4	0	0	122982	692	0	correct_rejection	NA	0
15	Nonet	146	308	146	0	1	2	123690	692	1	hit	291	0
15	Nonet	147	309	147	6	0	0	124399	692	0	correct_rejection	NA	0
15	Nonet	148	310	148	5	0	0	125108	691	0	correct_rejection	NA	0
15	Nonet	149	311	149	4	0	0	125816	692	0	correct_rejection	NA	0
15	Nonet	150	312	150	6	0	0	126525	691	0	correct_rejection	NA	0
15	Nonet	151	313	151	5	0	0	127233	692	0	correct_rejection	NA	0
15	Nonet	152	314	152	4	0	0	127942	692	0	correct_rejection	NA	0
15	Nonet	153	315	153	7	0	0	128650	692	0	correct_rejection	NA	0
15	Nonet	154	316	154	8	0	0	129359	692	0	correct_rejection	NA	0
15	Nonet	155	317	155	0	1	1	130068	691	1	hit	318	0
15	Nonet	156	318	156	9	0	0	130776	692	0	correct_rejection	NA	0
15	Nonet	157	319	157	7	0	0	131485	691	0	correct_rejection	NA	0
15	Nonet	158	320	158	8	0	0	132193	692	0	correct_rejection	NA	0
15	Nonet	159	321	159	9	0	0	132902	692	0	correct_rejection	NA	0
15	Nonet	160	322	160	7	0	0	133610	692	0	correct_rejection	NA	0
15	Nonet	161	323	161	8	0	0	134319	692	0	correct_rejection	NA	0
15	Nonet	162	324	162	9	0	0	135028	691	0	correct_rejection	NA	0
15	Single	1	325	163	9	0	0	144889	692	0	correct_rejection	NA	7609
15	Single	2	326	164	5	0	0	145598	691	0	correct_rejection	NA	0
15	Single	3	327	165	7	0	0	146306	692	0	correct_rejection	NA	0
15	Single	4	328	166	6	0	0	147015	692	0	correct_rejection	NA	0
15	Single	5	329	167	0	1	1	147723	692	1	hit	348	0
15	Single	6	330	168	9	0	0	148432	692	0	correct_rejection	NA	0
15	Single	7	331	169	4	0	0	149141	691	0	correct_rejection	NA	0
15	Single	8	332	170	4	0	0	149849	692	0	correct_rejection	NA	0
15	Single	9	333	171	7	0	0	150558	691	0	correct_rejection	NA	0
15	Single	10	334	172	8	0	0	151266	692	0	correct_rejection	NA	0
15	Single	11	335	173	5	0	0	151975	692	0	correct_rejection	NA	0
15	Single	12	336	174	9	0	0	152683	692	0	correct_rejection	NA	0
15	Single	13	337	175	0	1	1	153392	692	1	hit	322	0
15	Single	14	338	176	8	0	0	154101	691	0	correct_rejection	NA	0
15	Single	15	339	177	6	0	0	154809	692	0	correct_rejection	NA	0
15	Single	16	340	178	7	0	0	155518	691	0	correct_rejection	NA	0
15	Single	17	341	179	4	0	0	156226	692	0	correct_rejection	NA	0
15	Single	18	342	180	0	1	1	156935	692	1	hit	452	0
15	Single	19	343	181	5	0	0	157643	692	0	correct_rejection	NA	0
15	Single	20	344	182	8	0	0	158352	692	0	correct_rejection	NA	0
15	Single	21	345	183	8	0	0	159061	691	0	correct_rejection	NA	0
15	Single	22	346	184	9	0	0	159769	692	0	correct_rejection	NA	0
15	Single	23	347	185	7	0	0	160478	691	0	correct_rejection	NA	0
15	Single	24	348	186	5	0	0	161186	692	0	correct_rejection	NA	0
15	Single	25	349	187	5	0	0	161895	691	0	correct_rejection	NA	0
15	Single	26	350	188	4	0	0	162603	692	0	correct_rejection	NA	0
15	Single	27	351	189	9	0	0	163312	692	0	correct_rejection	NA	0
15	Single	28	352	190	9	0	0	164020	692	0	correct_rejection	NA	0
15	Single	29	353	191	6	0	0	164729	692	0	correct_rejection	NA	0
15	Single	30	354	192	8	0	0	165438	691	0	correct_rejection	NA	0
15	Single	31	355	193	4	0	0	166146	692	0	correct_rejection	NA	0
15	Single	32	356	194	6	0	0	166855	691	0	correct_rejection	NA	0
15	Single	33	357	195	0	1	1	167563	692	1	hit	312	0
15	Single	34	358	196	6	0	0	168272	692	0	correct_rejection	NA	0
15	Single	35	359	197	5	0	0	168980	692	0	correct_rejection	NA	0
15	Single	36	360	198	6	0	0	169689	692	0	correct_rejection	NA	0
15	Single	37	361	199	4	0	0	170398	691	0	correct_rejection	NA	0
15	Single	38	362	200	8	0	0	171106	692	0	correct_rejection	NA	0
15	Single	39	363	201	7	0	0	171815	691	0	correct_rejection	NA	0
15	Single	40	364	202	7	0	0	172523	692	0	correct_rejection	NA	0
15	Single	41	365	203	5	0	0	173232	692	0	correct_rejection	NA	0
15	Single	42	366	204	8	0	0	173940	692	0	correct_rejection	NA	0
15	Single	43	367	205	4	0	0	174649	692	0	correct_rejection	NA	0
15	Single	44	368	206	5	0	0	175358	691	0	correct_rejection	NA	0
15	Single	45	369	207	6	0	0	176066	692	0	correct_rejection	NA	0
15	Single	46	370	208	8	0	0	176775	691	0	correct_rejection	NA	0
15	Single	47	371	209	6	0	0	177483	692	0	correct_rejection	NA	0
15	Single	48	372	210	6	0	0	178192	692	0	correct_rejection	NA	0
15	Single	49	373	211	0	1	1	178900	692	1	hit	288	0
15	Single	50	374	212	4	0	0	179609	692	0	correct_rejection	NA	0
15	Single	51	375	213	7	0	0	180318	691	0	correct_rejection	NA	0
15	Single	52	376	214	9	0	0	181026	692	0	correct_rejection	NA	0
15	Single	53	377	215	0	1	1	181735	691	1	hit	323	0
15	Single	54	378	216	7	0	0	182443	692	0	correct_rejection	NA	0
15	Single	55	379	217	7	0	0	183152	692	0	correct_rejection	NA	0
15	Single	56	380	218	8	0	0	183860	692	0	correct_rejection	NA	0
15	Single	57	381	219	0	1	1	184569	692	1	hit	460	0
15	Single	58	382	220	7	0	0	185278	691	0	correct_rejection	NA	0
15	Single	59	383	221	4	0	0	185986	692	0	correct_rejection	NA	0
15	Single	60	384	222	0	1	1	186695	691	1	hit	444	0
15	Single	61	385	223	9	0	0	187403	692	0	correct_rejection	NA	0
15	Single	62	386	224	8	0	0	188112	691	0	correct_rejection	NA	0
15	Single	63	387	225	9	0	0	188820	692	0	correct_rejection	NA	0
15	Single	64	388	226	5	0	0	189529	692	0	correct_rejection	NA	0
15	Single	65	389	227	5	0	0	190238	691	0	correct_rejection	NA	0
15	Single	66	390	228	7	0	0	190946	692	0	correct_rejection	NA	0
15	Single	67	391	229	5	0	0	191655	691	0	correct_rejection	NA	0
15	Single	68	392	230	9	0	0	192363	692	0	correct_rejection	NA	0
15	Single	69	393	231	6	0	0	193072	691	0	correct_rejection	NA	0
15	Single	70	394	232	9	0	0	193780	692	0	correct_rejection	NA	0
15	Single	71	395	233	9	0	0	194489	692	0	correct_rejection	NA	0
15	Single	72	396	234	4	0	0	195197	692	0	correct_rejection	NA	0
15	Single	73	397	235	6	0	0	195906	692	0	correct_rejection	NA	0
15	Single	74	398	236	7	0	0	196615	691	0	correct_rejection	NA	0
15	Single	75	399	237	6	0	0	197323	692	0	correct_rejection	NA	0
15	Single	76	400	238	5	0	0	198032	691	0	correct_rejection	NA	0
15	Single	77	401	239	0	1	1	198740	692	1	hit	323	0
15	Single	78	402	240	4	0	0	199449	692	0	correct_rejection	NA	0
15	Single	79	403	241	4	0	0	200157	692	0	correct_rejection	NA	0
15	Single	80	404	242	8	0	0	200866	692	0	correct_rejection	NA	0
15	Single	81	405	243	8	0	0	201575	691	0	correct_rejection	NA	0
15	Single	82	406	244	0	1	1	202283	692	1	hit	398	0
15	Single	83	407	245	8	0	0	202992	691	0	correct_rejection	NA	0
15	Single	84	408	246	4	0	0	203700	692	0	correct_rejection	NA	0
15	Single	85	409	247	9	0	0	204409	692	0	correct_rejection	NA	0
15	Single	86	410	248	7	0	0	205117	692	0	correct_rejection	NA	0
15	Single	87	411	249	4	0	0	205826	692	0	correct_rejection	NA	0
15	Single	88	412	250	8	0	0	206535	691	0	correct_rejection	NA	0
15	Single	89	413	251	9	0	0	207243	692	0	correct_rejection	NA	0
15	Single	90	414	252	4	0	0	207952	691	0	correct_rejection	NA	0
15	Single	91	415	253	7	0	0	208660	692	0	correct_rejection	NA	0
15	Single	92	416	254	6	0	0	209369	692	0	correct_rejection	NA	0
15	Single	93	417	255	6	0	0	210077	692	0	correct_rejection	NA	0
15	Single	94	418	256	0	1	1	210786	692	1	hit	335	0
15	Single	95	419	257	8	0	0	211495	691	0	correct_rejection	NA	0
15	Single	96	420	258	8	0	0	212203	692	0	correct_rejection	NA	0
15	Single	97	421	259	5	0	0	212912	691	0	correct_rejection	NA	0
15	Single	98	422	260	5	0	0	213620	692	0	correct_rejection	NA	0
15	Single	99	423	261	6	0	0	214329	692	0	correct_rejection	NA	0
15	Single	100	424	262	0	1	1	215037	692	1	hit	311	0
15	Single	101	425	263	7	0	0	215746	692	0	correct_rejection	NA	0
15	Single	102	426	264	9	0	0	216455	691	0	correct_rejection	NA	0
15	Single	103	427	265	6	0	0	217163	692	0	correct_rejection	NA	0
15	Single	104	428	266	4	0	0	217872	691	0	correct_rejection	NA	0
15	Single	105	429	267	4	0	0	218580	692	0	correct_rejection	NA	0
15	Single	106	430	268	6	0	0	219289	691	0	correct_rejection	NA	0
15	Single	107	431	269	9	0	0	219997	692	0	correct_rejection	NA	0
15	Single	108	432	270	5	0	0	220706	692	0	correct_rejection	NA	0
15	Single	109	433	271	4	0	0	221414	692	0	correct_rejection	NA	0
15	Single	110	434	272	5	0	0	222123	692	0	correct_rejection	NA	0
15	Single	111	435	273	9	0	0	222832	691	0	correct_rejection	NA	0
15	Single	112	436	274	9	0	0	223540	692	0	correct_rejection	NA	0
15	Single	113	437	275	8	0	0	224249	691	0	correct_rejection	NA	0
15	Single	114	438	276	7	0	0	224957	692	0	correct_rejection	NA	0
15	Single	115	439	277	8	0	0	225666	692	0	correct_rejection	NA	0
15	Single	116	440	278	6	0	0	226374	692	0	correct_rejection	NA	0
15	Single	117	441	279	5	0	0	227083	692	0	correct_rejection	NA	0
15	Single	118	442	280	7	0	0	227792	691	0	correct_rejection	NA	0
15	Single	119	443	281	7	0	0	228500	692	0	correct_rejection	NA	0
15	Single	120	444	282	5	0	0	229209	691	0	correct_rejection	NA	0
15	Single	121	445	283	8	0	0	229917	692	0	correct_rejection	NA	0
15	Single	122	446	284	7	0	0	230626	692	0	correct_rejection	NA	0
15	Single	123	447	285	9	0	0	231334	692	0	correct_rejection	NA	0
15	Single	124	448	286	0	1	1	232043	692	1	hit	310	0
15	Single	125	449	287	9	0	0	232752	691	0	correct_rejection	NA	0
15	Single	126	450	288	6	0	0	233460	692	0	correct_rejection	NA	0
15	Single	127	451	289	0	1	1	234169	691	1	hit	446	0
15	Single	128	452	290	5	0	0	234877	692	0	correct_rejection	NA	0
15	Single	129	453	291	5	0	0	235586	692	0	correct_rejection	NA	0
15	Single	130	454	292	9	0	0	236294	692	0	correct_rejection	NA	0
15	Single	131	455	293	4	0	0	237003	692	0	correct_rejection	NA	0
15	Single	132	456	294	9	0	0	237712	691	0	correct_rejection	NA	0
15	Single	133	457	295	5	0	0	238420	692	0	correct_rejection	NA	0
15	Single	134	458	296	7	0	0	239129	691	0	correct_rejection	NA	0
15	Single	135	459	297	4	0	0	239837	692	0	correct_rejection	NA	0
15	Single	136	460	298	4	0	0	240546	692	0	correct_rejection	NA	0
15	Single	137	461	299	5	0	0	241254	692	0	correct_rejection	NA	0
15	Single	138	462	300	8	0	0	241963	692	0	correct_rejection	NA	0
15	Single	139	463	301	8	0	0	242672	691	0	correct_rejection	NA	0
15	Single	140	464	302	0	1	1	243380	692	1	hit	321	0
15	Single	141	465	303	9	0	0	244089	691	0	correct_rejection	NA	0
15	Single	142	466	304	7	0	0	244797	692	0	correct_rejection	NA	0
15	Single	143	467	305	8	0	0	245506	692	0	correct_rejection	NA	0
15	Single	144	468	306	4	0	0	246214	692	0	correct_rejection	NA	0
15	Single	145	469	307	8	0	0	246923	692	0	correct_rejection	NA	0
15	Single	146	470	308	6	0	0	247632	691	0	correct_rejection	NA	0
15	Single	147	471	309	9	0	0	248340	692	0	correct_rejection	NA	0
15	Single	148	472	310	8	0	0	249049	691	0	correct_rejection	NA	0
15	Single	149	473	311	0	1	1	249757	692	1	hit	323	0
15	Single	150	474	312	5	0	0	250466	691	0	correct_rejection	NA	0
15	Single	151	475	313	4	0	0	251174	692	0	correct_rejection	NA	0
15	Single	152	476	314	0	1	1	251883	692	1	hit	353	0
15	Single	153	477	315	7	0	0	252591	692	0	correct_rejection	NA	0
15	Single	154	478	316	5	0	0	253300	692	0	correct_rejection	NA	0
15	Single	155	479	317	0	1	1	254009	691	1	hit	344	0
15	Single	156	480	318	6	0	0	254717	692	0	correct_rejection	NA	0
15	Single	157	481	319	6	0	0	255426	691	0	correct_rejection	NA	0
15	Single	158	482	320	7	0	0	256134	692	0	correct_rejection	NA	0
15	Single	159	483	321	7	0	0	256843	692	0	correct_rejection	NA	0
15	Single	160	484	322	6	0	0	257551	692	0	correct_rejection	NA	0
15	Single	161	485	323	4	0	0	258260	692	0	correct_rejection	NA	0
15	Single	162	486	324	6	0	0	258969	691	0	correct_rejection	NA	0
15	Correct	1	1	325	4	0	0	268372	691	0	correct_rejection	NA	7099
15	Correct	2	2	326	5	0	0	269080	692	0	correct_rejection	NA	0
15	Correct	3	3	327	6	0	0	269789	692	0	correct_rejection	NA	0
15	Correct	4	4	328	0	1	2	270497	692	1	hit	334	0
15	Correct	5	5	329	4	0	0	271206	692	0	correct_rejection	NA	0
15	Correct	6	6	330	5	0	0	271915	691	0	correct_rejection	NA	0
15	Correct	7	7	331	6	0	0	272623	692	0	correct_rejection	NA	0
15	Correct	8	8	332	4	0	0	273332	691	0	correct_rejection	NA	0
15	Correct	9	9	333	5	0	0	274040	692	0	correct_rejection	NA	0
15	Correct	10	10	334	6	0	0	274749	692	0	correct_rejection	NA	0
15	Correct	11	11	335	0	1	3	275457	692	1	hit	336	0
15	Correct	12	12	336	6	0	0	276166	692	0	correct_rejection	NA	0
15	Correct	13	13	337	5	0	0	276875	691	0	correct_rejection	NA	0
15	Correct	14	14	338	4	0	0	277583	692	0	correct_rejection	NA	0
15	Correct	15	15	339	6	0	0	278292	691	0	correct_rejection	NA	0
15	Correct	16	16	340	0	1	1	279000	692	1	hit	299	0
15	Correct	17	17	341	5	0	0	279709	692	0	correct_rejection	NA	0
15	Correct	18	18	342	4	0	0	280417	692	0	correct_rejection	NA	0
15	Correct	19	19	343	6	0	0	281126	692	0	correct_rejection	NA	0
15	Correct	20	20	344	5	0	0	281835	691	0	correct_rejection	NA	0
15	Correct	21	21	345	4	0	0	282543	692	0	correct_rejection	NA	0
15	Correct	22	22	346	9	0	0	283252	691	0	correct_rejection	NA	0
15	Correct	23	23	347	8	0	0	283960	692	0	correct_rejection	NA	0
15	Correct	24	24	348	7	0	0	284669	691	0	correct_rejection	NA	0
15	Correct	25	25	349	9	0	0	285377	692	0	correct_rejection	NA	0
15	Correct	26	26	350	8	0	0	286086	692	0	correct_rejection	NA	0
15	Correct	27	27	351	7	0	0	286795	691	0	correct_rejection	NA	0
15	Correct	28	28	352	0	1	2	287503	692	1	hit	356	0
15	Correct	29	29	353	9	0	0	288212	691	0	correct_rejection	NA	0
15	Correct	30	30	354	8	0	0	288920	692	0	correct_rejection	NA	0
15	Correct	31	31	355	7	0	0	289629	691	0	correct_rejection	NA	0
15	Correct	32	32	356	7	0	0	290337	692	0	correct_rejection	NA	0
15	Correct	33	33	357	8	0	0	291046	692	0	correct_rejection	NA	0
15	Correct	34	34	358	9	0	0	291754	692	0	correct_rejection	NA	0
15	Correct	35	35	359	7	0	0	292463	692	0	correct_rejection	NA	0
15	Correct	36	36	360	8	0	0	293172	691	0	correct_rejection	NA	0
15	Correct	37	37	361	9	0	0	293880	692	0	correct_rejection	NA	0
15	Correct	38	38	362	7	0	0	294589	691	0	correct_rejection	NA	0
15	Correct	39	39	363	8	0	0	295297	692	0	correct_rejection	NA	0
15	Correct	40	40	364	9	0	0	296006	692	0	correct_rejection	NA	0
15	Correct	41	41	365	0	1	4	296714	692	1	hit	303	0
15	Correct	42	42	366	4	0	0	297423	692	0	correct_rejection	NA	0
15	Correct	43	43	367	5	0	0	298132	691	0	correct_rejection	NA	0
15	Correct	44	44	368	0	1	1	298840	692	1	hit	326	0
15	Correct	45	45	369	6	0	0	299549	691	0	correct_rejection	NA	0
15	Correct	46	46	370	4	0	0	300257	692	0	correct_rejection	NA	0
15	Correct	47	47	371	5	0	0	300966	692	0	correct_rejection	NA	0
15	Correct	48	48	372	6	0	0	301674	692	0	correct_rejection	NA	0
15	Correct	49	49	373	4	0	0	302383	692	0	correct_rejection	NA	0
15	Correct	50	50	374	5	0	0	303092	691	0	correct_rejection	NA	0
15	Correct	51	51	375	6	0	0	303800	692	0	correct_rejection	NA	0
15	Correct	52	52	376	6	0	0	304509	691	0	correct_rejection	NA	0
15	Correct	53	53	377	5	0	0	305217	692	0	correct_rejection	NA	0
15	Correct	54	54	378	4	0	0	305926	692	0	correct_rejection	NA	0
15	Correct	55	55	379	6	0	0	306634	692	0	correct_rejection	NA	0
15	Correct	56	56	380	5	0	0	307343	692	0	correct_rejection	NA	0
15	Correct	57	57	381	4	0	0	308052	691	0	correct_rejection	NA	0
15	Correct	58	58	382	6	0	0	308760	692	0	correct_rejection	NA	0
15	Correct	59	59	383	5	0	0	309469	691	0	correct_rejection	NA	0
15	Correct	60	60	384	4	0	0	310177	692	0	correct_rejection	NA	0
15	Correct	61	61	385	9	0	0	310886	692	0	correct_rejection	NA	0
15	Correct	62	62	386	8	0	0	311594	692	0	correct_rejection	NA	0
15	Correct	63	63	387	7	0	0	312303	692	0	correct_rejection	NA	0
15	Correct	64	64	388	9	0	0	313012	691	0	correct_rejection	NA	0
15	Correct	65	65	389	8	0	0	313720	692	0	correct_rejection	NA	0
15	Correct	66	66	390	7	0	0	314429	691	0	correct_rejection	NA	0
15	Correct	67	67	391	9	0	0	315137	692	0	correct_rejection	NA	0
15	Correct	68	68	392	8	0	0	315846	691	0	correct_rejection	NA	0
15	Correct	69	69	393	7	0	0	316554	692	0	correct_rejection	NA	0
15	Correct	70	70	394	7	0	0	317263	692	0	correct_rejection	NA	0
15	Correct	71	71	395	8	0	0	317971	692	0	correct_rejection	NA	0
15	Correct	72	72	396	9	0	0	318680	692	0	correct_rejection	NA	0
15	Correct	73	73	397	7	0	0	319389	691	0	correct_rejection	NA	0
15	Correct	74	74	398	8	0	0	320097	692	0	correct_rejection	NA	0
15	Correct	75	75	399	9	0	0	320806	691	0	correct_rejection	NA	0
15	Correct	76	76	400	7	0	0	321514	692	0	correct_rejection	NA	0
15	Correct	77	77	401	8	0	0	322223	692	0	correct_rejection	NA	0
15	Correct	78	78	402	9	0	0	322931	692	0	correct_rejection	NA	0
15	Correct	79	79	403	4	0	0	323640	692	0	correct_rejection	NA	0
15	Correct	80	80	404	0	1	1	324349	691	1	hit	373	0
15	Correct	81	81	405	5	0	0	325057	692	0	correct_rejection	NA	0
15	Correct	82	82	406	6	0	0	325766	691	0	correct_rejection	NA	0
15	Correct	83	83	407	4	0	0	326474	692	0	correct_rejection	NA	0
15	Correct	84	84	408	5	0	0	327183	692	0	correct_rejection	NA	0
15	Correct	85	85	409	6	0	0	327891	692	0	correct_rejection	NA	0
15	Correct	86	86	410	4	0	0	328600	692	0	correct_rejection	NA	0
15	Correct	87	87	411	0	1	1	329309	691	1	hit	344	0
15	Correct	88	88	412	5	0	0	330017	692	0	correct_rejection	NA	0
15	Correct	89	89	413	6	0	0	330726	691	0	correct_rejection	NA	0
15	Correct	90	90	414	6	0	0	331434	692	0	correct_rejection	NA	0
15	Correct	91	91	415	5	0	0	332143	692	0	correct_rejection	NA	0
15	Correct	92	92	416	0	1	1	332851	692	1	hit	358	0
15	Correct	93	93	417	4	0	0	333560	692	0	correct_rejection	NA	0
15	Correct	94	94	418	6	0	0	334269	691	0	correct_rejection	NA	0
15	Correct	95	95	419	5	0	0	334977	692	0	correct_rejection	NA	0
15	Correct	96	96	420	0	1	1	335686	691	1	hit	340	0
15	Correct	97	97	421	4	0	0	336394	692	0	correct_rejection	NA	0
15	Correct	98	98	422	6	0	0	337103	692	0	correct_rejection	NA	0
15	Correct	99	99	423	5	0	0	337811	692	0	correct_rejection	NA	0
15	Correct	100	100	424	4	0	0	338520	692	0	correct_rejection	NA	0
15	Correct	101	101	425	9	0	0	339229	691	0	correct_rejection	NA	0
15	Correct	102	102	426	0	1	1	339937	692	1	hit	454	0
15	Correct	103	103	427	8	0	0	340646	691	0	correct_rejection	NA	0
15	Correct	104	104	428	7	0	0	341354	692	0	correct_rejection	NA	0
15	Correct	105	105	429	9	0	0	342063	692	0	correct_rejection	NA	0
15	Correct	106	106	430	8	0	0	342771	692	0	correct_rejection	NA	0
15	Correct	107	107	431	7	0	0	343480	692	0	correct_rejection	NA	0
15	Correct	108	108	432	9	0	0	344189	691	0	correct_rejection	NA	0
15	Correct	109	109	433	8	0	0	344897	692	0	correct_rejection	NA	0
15	Correct	110	110	434	0	1	1	345606	691	1	hit	344	0
15	Correct	111	111	435	7	0	0	346314	692	0	correct_rejection	NA	0
15	Correct	112	112	436	7	0	0	347023	691	0	correct_rejection	NA	0
15	Correct	113	113	437	8	0	0	347731	692	0	correct_rejection	NA	0
15	Correct	114	114	438	9	0	0	348440	692	0	correct_rejection	NA	0
15	Correct	115	115	439	7	0	0	349148	692	0	correct_rejection	NA	0
15	Correct	116	116	440	8	0	0	349857	692	0	correct_rejection	NA	0
15	Correct	117	117	441	9	0	0	350566	691	0	correct_rejection	NA	0
15	Correct	118	118	442	7	0	0	351274	692	0	correct_rejection	NA	0
15	Correct	119	119	443	8	0	0	351983	691	0	correct_rejection	NA	0
15	Correct	120	120	444	0	1	1	352691	692	1	hit	322	0
15	Correct	121	121	445	9	0	0	353400	692	0	correct_rejection	NA	0
15	Correct	122	122	446	4	0	0	354108	692	0	correct_rejection	NA	0
15	Correct	123	123	447	5	0	0	354817	692	0	correct_rejection	NA	0
15	Correct	124	124	448	6	0	0	355526	691	0	correct_rejection	NA	0
15	Correct	125	125	449	4	0	0	356234	692	0	correct_rejection	NA	0
15	Correct	126	126	450	5	0	0	356943	691	0	correct_rejection	NA	0
15	Correct	127	127	451	6	0	0	357651	692	0	correct_rejection	NA	0
15	Correct	128	128	452	4	0	0	358360	692	0	correct_rejection	NA	0
15	Correct	129	129	453	5	0	0	359068	692	0	correct_rejection	NA	0
15	Correct	130	130	454	0	1	1	359777	692	1	hit	339	0
15	Correct	131	131	455	6	0	0	360486	691	0	correct_rejection	NA	0
15	Correct	132	132	456	6	0	0	361194	692	0	correct_rejection	NA	0
15	Correct	133	133	457	0	1	1	361903	691	1	hit	458	0
15	Correct	134	134	458	5	0	0	362611	692	0	correct_rejection	NA	0
15	Correct	135	135	459	4	0	0	363320	692	0	correct_rejection	NA	0
15	Correct	136	136	460	6	0	0	364028	692	0	correct_rejection	NA	0
15	Correct	137	137	461	5	0	0	364737	692	0	correct_rejection	NA	0
15	Correct	138	138	462	4	0	0	365446	691	0	correct_rejection	NA	0
15	Correct	139	139	463	0	1	2	366154	692	1	hit	359	0
15	Correct	140	140	464	6	0	0	366863	691	0	correct_rejection	NA	0
15	Correct	141	141	465	5	0	0	367571	692	0	correct_rejection	NA	0
15	Correct	142	142	466	4	0	0	368280	692	0	correct_rejection	NA	0
15	Correct	143	143	467	9	0	0	368988	692	0	correct_rejection	NA	0
15	Correct	144	144	468	8	0	0	369697	692	0	correct_rejection	NA	0
15	Correct	145	145	469	7	0	0	370406	691	0	correct_rejection	NA	0
15	Correct	146	146	470	9	0	0	371114	692	0	correct_rejection	NA	0
15	Correct	147	147	471	8	0	0	371823	691	0	correct_rejection	NA	0
15	Correct	148	148	472	7	0	0	372531	692	0	correct_rejection	NA	0
15	Correct	149	149	473	9	0	0	373240	692	0	correct_rejection	NA	0
15	Correct	150	150	474	0	1	1	373948	692	1	hit	443	0
15	Correct	151	151	475	8	0	0	374657	692	0	correct_rejection	NA	0
15	Correct	152	152	476	7	0	0	375366	691	0	correct_rejection	NA	0
15	Correct	153	153	477	7	0	0	376074	692	0	correct_rejection	NA	0
15	Correct	154	154	478	8	0	0	376783	691	0	correct_rejection	NA	0
15	Correct	155	155	479	9	0	0	377491	692	0	correct_rejection	NA	0
15	Correct	156	156	480	0	1	2	378200	691	1	hit	339	0
15	Correct	157	157	481	7	0	0	378908	692	0	correct_rejection	NA	0
15	Correct	158	158	482	8	0	0	379617	692	0	correct_rejection	NA	0
15	Correct	159	159	483	9	0	0	380325	692	0	correct_rejection	NA	0
15	Correct	160	160	484	7	0	0	381034	692	0	correct_rejection	NA	0
15	Correct	161	161	485	8	0	0	381743	691	0	correct_rejection	NA	0
15	Correct	162	162	486	9	0	0	382451	692	0	correct_rejection	NA	0
15	Triplet	1	1	487	9	0	0	392104	692	0	correct_rejection	NA	7829
15	Triplet	2	2	488	8	0	0	392813	692	0	correct_rejection	NA	0
15	Triplet	3	3	489	7	0	0	393522	691	0	correct_rejection	NA	0
15	Triplet	4	4	490	6	0	0	394230	692	0	correct_rejection	NA	0
15	Triplet	5	5	491	5	0	0	394939	691	0	correct_rejection	NA	0
15	Triplet	6	6	492	4	0	0	395647	692	0	correct_rejection	NA	0
15	Triplet	7	7	493	7	0	0	396356	691	0	correct_rejection	NA	0
15	Triplet	8	8	494	8	0	0	397064	692	0	correct_rejection	NA	0
15	Triplet	9	9	495	9	0	0	397773	692	0	correct_rejection	NA	0
15	Triplet	10	10	496	7	0	0	398482	691	0	correct_rejection	NA	0
15	Triplet	11	11	497	8	0	0	399190	692	0	correct_rejection	NA	0
15	Triplet	12	12	498	9	0	0	399899	691	0	correct_rejection	NA	0
15	Triplet	13	13	499	0	1	2	400607	692	1	hit	380	0
15	Triplet	14	14	500	4	0	0	401316	691	0	correct_rejection	NA	0
15	Triplet	15	15	501	5	0	0	402024	692	0	correct_rejection	NA	0
15	Triplet	16	16	502	0	1	1	402733	692	1	hit	348	0
15	Triplet	17	17	503	6	0	0	403441	692	0	correct_rejection	NA	0
15	Triplet	18	18	504	6	0	0	404150	692	0	correct_rejection	NA	0
15	Triplet	19	19	505	0	1	1	404859	691	1	hit	404	0
15	Triplet	20	20	506	5	0	0	405567	692	0	correct_rejection	NA	0
15	Triplet	21	21	507	4	0	0	406276	691	0	correct_rejection	NA	0
15	Triplet	22	22	508	4	0	0	406984	692	0	correct_rejection	NA	0
15	Triplet	23	23	509	5	0	0	407693	692	0	correct_rejection	NA	0
15	Triplet	24	24	510	6	0	0	408401	692	0	correct_rejection	NA	0
15	Triplet	25	25	511	0	1	2	409110	692	1	hit	398	0
15	Triplet	26	26	512	7	0	0	409819	691	0	correct_rejection	NA	0
15	Triplet	27	27	513	8	0	0	410527	692	0	correct_rejection	NA	0
15	Triplet	28	28	514	9	0	0	411236	691	0	correct_rejection	NA	0
15	Triplet	29	29	515	9	0	0	411944	692	0	correct_rejection	NA	0
15	Triplet	30	30	516	8	0	0	412653	692	0	correct_rejection	NA	0
15	Triplet	31	31	517	7	0	0	413361	692	0	correct_rejection	NA	0
15	Triplet	32	32	518	7	0	0	414070	692	0	correct_rejection	NA	0
15	Triplet	33	33	519	8	0	0	414779	691	0	correct_rejection	NA	0
15	Triplet	34	34	520	9	0	0	415487	692	0	correct_rejection	NA	0
15	Triplet	35	35	521	6	0	0	416196	691	0	correct_rejection	NA	0
15	Triplet	36	36	522	5	0	0	416904	692	0	correct_rejection	NA	0
15	Triplet	37	37	523	4	0	0	417613	692	0	correct_rejection	NA	0
15	Triplet	38	38	524	6	0	0	418321	692	0	correct_rejection	NA	0
15	Triplet	39	39	525	5	0	0	419030	692	0	correct_rejection	NA	0
15	Triplet	40	40	526	4	0	0	419739	691	0	correct_rejection	NA	0
15	Triplet	41	41	527	9	0	0	420447	692	0	correct_rejection	NA	0
15	Triplet	42	42	528	8	0	0	421156	691	0	correct_rejection	NA	0
15	Triplet	43	43	529	7	0	0	421864	692	0	correct_rejection	NA	0
15	Triplet	44	44	530	9	0	0	422573	692	0	correct_rejection	NA	0
15	Triplet	45	45	531	8	0	0	423281	692	0	correct_rejection	NA	0
15	Triplet	46	46	532	7	0	0	423990	692	0	correct_rejection	NA	0
15	Triplet	47	47	533	0	1	2	424699	691	1	hit	349	0
15	Triplet	48	48	534	4	0	0	425407	692	0	correct_rejection	NA	0
15	Triplet	49	49	535	5	0	0	426116	691	0	correct_rejection	NA	0
15	Triplet	50	50	536	0	1	1	426824	692	1	hit	305	0
15	Triplet	51	51	537	6	0	0	427533	691	0	correct_rejection	NA	0
15	Triplet	52	52	538	4	0	0	428241	692	0	correct_rejection	NA	0
15	Triplet	53	53	539	5	0	0	428950	692	0	correct_rejection	NA	0
15	Triplet	54	54	540	6	0	0	429659	691	0	correct_rejection	NA	0
15	Triplet	55	55	541	9	0	0	430367	692	0	correct_rejection	NA	0
15	Triplet	56	56	542	8	0	0	431076	691	0	correct_rejection	NA	0
15	Triplet	57	57	543	7	0	0	431784	692	0	correct_rejection	NA	0
15	Triplet	58	58	544	4	0	0	432493	691	0	correct_rejection	NA	0
15	Triplet	59	59	545	5	0	0	433201	692	0	correct_rejection	NA	0
15	Triplet	60	60	546	6	0	0	433910	692	0	correct_rejection	NA	0
15	Triplet	61	61	547	0	1	2	434618	692	1	hit	372	0
15	Triplet	62	62	548	6	0	0	435327	692	0	correct_rejection	NA	0
15	Triplet	63	63	549	5	0	0	436036	691	0	correct_rejection	NA	0
15	Triplet	64	64	550	0	1	1	436744	692	1	hit	319	0
15	Triplet	65	65	551	4	0	0	437453	691	0	correct_rejection	NA	0
15	Triplet	66	66	552	6	0	0	438161	692	0	correct_rejection	NA	0
15	Triplet	67	67	553	5	0	0	438870	692	0	correct_rejection	NA	0
15	Triplet	68	68	554	4	0	0	439578	692	0	correct_rejection	NA	0
15	Triplet	69	69	555	0	1	2	440287	692	1	hit	337	0
15	Triplet	70	70	556	7	0	0	440996	691	0	correct_rejection	NA	0
15	Triplet	71	71	557	8	0	0	441704	692	0	correct_rejection	NA	0
15	Triplet	72	72	558	0	1	1	442413	691	1	hit	374	0
15	Triplet	73	73	559	9	0	0	443121	692	0	correct_rejection	NA	0
15	Triplet	74	74	560	4	0	0	443830	692	0	correct_rejection	NA	0
15	Triplet	75	75	561	0	1	1	444538	692	1	hit	282	0
15	Triplet	76	76	562	5	0	0	445247	692	0	correct_rejection	NA	0
15	Triplet	77	77	563	6	0	0	445956	691	0	correct_rejection	NA	0
15	Triplet	78	78	564	9	0	0	446664	692	0	correct_rejection	NA	0
15	Triplet	79	79	565	8	0	0	447373	691	0	correct_rejection	NA	0
15	Triplet	80	80	566	7	0	0	448081	692	0	correct_rejection	NA	0
15	Triplet	81	81	567	7	0	0	448790	692	0	correct_rejection	NA	0
15	Triplet	82	82	568	8	0	0	449498	692	0	correct_rejection	NA	0
15	Triplet	83	83	569	9	0	0	450207	692	0	correct_rejection	NA	0
15	Triplet	84	84	570	0	1	2	450916	691	1	hit	387	0
15	Triplet	85	85	571	9	0	0	451624	692	0	correct_rejection	NA	0
15	Triplet	86	86	572	8	0	0	452333	691	0	correct_rejection	NA	0
15	Triplet	87	87	573	7	0	0	453041	692	0	correct_rejection	NA	0
15	Triplet	88	88	574	6	0	0	453750	692	0	correct_rejection	NA	0
15	Triplet	89	89	575	5	0	0	454458	692	0	correct_rejection	NA	0
15	Triplet	90	90	576	4	0	0	455167	692	0	correct_rejection	NA	0
15	Triplet	91	91	577	4	0	0	455876	691	0	correct_rejection	NA	0
15	Triplet	92	92	578	5	0	0	456584	692	0	correct_rejection	NA	0
15	Triplet	93	93	579	6	0	0	457293	691	0	correct_rejection	NA	0
15	Triplet	94	94	580	4	0	0	458001	692	0	correct_rejection	NA	0
15	Triplet	95	95	581	0	1	1	458710	691	1	hit	333	0
15	Triplet	96	96	582	5	0	0	459418	692	0	correct_rejection	NA	0
15	Triplet	97	97	583	6	0	0	460127	692	0	correct_rejection	NA	0
15	Triplet	98	98	584	7	0	0	460836	691	0	correct_rejection	NA	0
15	Triplet	99	99	585	8	0	0	461544	692	0	correct_rejection	NA	0
15	Triplet	100	100	586	9	0	0	462253	691	0	correct_rejection	NA	0
15	Triplet	101	101	587	7	0	0	462961	692	0	correct_rejection	NA	0
15	Triplet	102	102	588	8	0	0	463670	691	0	correct_rejection	NA	0
15	Triplet	103	103	589	9	0	0	464378	692	0	correct_rejection	NA	0
15	Triplet	104	104	590	6	0	0	465087	692	0	correct_rejection	NA	0
15	Triplet	105	105	591	5	0	0	465795	692	0	correct_rejection	NA	0
15	Triplet	106	106	592	4	0	0	466504	692	0	correct_rejection	NA	0
15	Triplet	107	107	593	9	0	0	467213	691	0	correct_rejection	NA	0
15	Triplet	108	108	594	8	0	0	467921	692	0	correct_rejection	NA	0
15	Triplet	109	109	595	0	1	1	468630	691	1	hit	435	0
15	Triplet	110	110	596	7	0	0	469338	692	0	correct_rejection	NA	0
15	Triplet	111	111	597	7	0	0	470047	692	0	correct_rejection	NA	0
15	Triplet	112	112	598	8	0	0	470755	692	0	correct_rejection	NA	0
15	Triplet	113	113	599	9	0	0	471464	692	0	correct_rejection	NA	0
15	Triplet	114	114	600	4	0	0	472173	691	0	correct_rejection	NA	0
15	Triplet	115	115	601	5	0	0	472881	692	0	correct_rejection	NA	0
15	Triplet	116	116	602	6	0	0	473590	691	0	correct_rejection	NA	0
15	Triplet	117	117	603	4	0	0	474298	692	0	correct_rejection	NA	0
15	Triplet	118	118	604	5	0	0	475007	692	0	correct_rejection	NA	0
15	Triplet	119	119	605	6	0	0	475715	692	0	correct_rejection	NA	0
15	Triplet	120	120	606	0	1	2	476424	692	1	hit	353	0
15	Triplet	121	121	607	9	0	0	477133	691	0	correct_rejection	NA	0
15	Triplet	122	122	608	8	0	0	477841	692	0	correct_rejection	NA	0
15	Triplet	123	123	609	7	0	0	478550	691	0	correct_rejection	NA	0
15	Triplet	124	124	610	4	0	0	479258	692	0	correct_rejection	NA	0
15	Triplet	125	125	611	5	0	0	479967	692	0	correct_rejection	NA	0
15	Triplet	126	126	612	6	0	0	480675	692	0	correct_rejection	NA	0
15	Triplet	127	127	613	7	0	0	481384	692	0	correct_rejection	NA	0
15	Triplet	128	128	614	8	0	0	482093	691	0	correct_rejection	NA	0
15	Triplet	129	129	615	0	1	1	482801	692	1	hit	296	0
15	Triplet	130	130	616	9	0	0	483510	691	0	correct_rejection	NA	0
15	Triplet	131	131	617	6	0	0	484218	692	0	correct_rejection	NA	0
15	Triplet	132	132	618	5	0	0	484927	692	0	correct_rejection	NA	0
15	Triplet	133	133	619	4	0	0	485635	692	0	correct_rejection	NA	0
15	Triplet	134	134	620	0	1	2	486344	692	1	hit	445	0
15	Triplet	135	135	621	4	0	0	487053	691	0	correct_rejection	NA	0
15	Triplet	136	136	622	5	0	0	487761	692	0	correct_rejection	NA	0
15	Triplet	137	137	623	6	0	0	488470	691	0	correct_rejection	NA	0
15	Triplet	138	138	624	6	0	0	489178	692	0	correct_rejection	NA	0
15	Triplet	139	139	625	5	0	0	489887	691	0	correct_rejection	NA	0
15	Triplet	140	140	626	4	0	0	490595	692	0	correct_rejection	NA	0
15	Triplet	141	141	627	9	0	0	491304	692	0	correct_rejection	NA	0
15	Triplet	142	142	628	8	0	0	492012	692	0	correct_rejection	NA	0
15	Triplet	143	143	629	7	0	0	492721	692	0	correct_rejection	NA	0
15	Triplet	144	144	630	7	0	0	493430	691	0	correct_rejection	NA	0
15	Triplet	145	145	631	8	0	0	494138	692	0	correct_rejection	NA	0
15	Triplet	146	146	632	9	0	0	494847	691	0	correct_rejection	NA	0
15	Triplet	147	147	633	7	0	0	495555	692	0	correct_rejection	NA	0
15	Triplet	148	148	634	8	0	0	496264	692	0	correct_rejection	NA	0
15	Triplet	149	149	635	9	0	0	496972	692	0	correct_rejection	NA	0
15	Triplet	150	150	636	9	0	0	497681	692	0	correct_rejection	NA	0
15	Triplet	151	151	637	0	1	1	498390	691	1	hit	383	0
15	Triplet	152	152	638	8	0	0	499098	692	0	correct_rejection	NA	0
15	Triplet	153	153	639	7	0	0	499807	691	0	correct_rejection	NA	0
15	Triplet	154	154	640	9	0	0	500515	692	0	correct_rejection	NA	0
15	Triplet	155	155	641	8	0	0	501224	692	0	correct_rejection	NA	0
15	Triplet	156	156	642	7	0	0	501932	692	0	correct_rejection	NA	0
15	Triplet	157	157	643	6	0	0	502641	692	0	correct_rejection	NA	0
15	Triplet	158	158	644	5	0	0	503350	691	0	correct_rejection	NA	0
15	Triplet	159	159	645	4	0	0	504058	692	0	correct_rejection	NA	0
15	Triplet	160	160	646	6	0	0	504767	691	0	correct_rejection	NA	0
15	Triplet	161	161	647	5	0	0	505475	692	0	correct_rejection	NA	0
15	Triplet	162	162	648	4	0	0	506184	692	0	correct_rejection	NA	0
15	Single	1	1	649	9	0	0	516229	692	0	correct_rejection	NA	7959
15	Single	2	2	650	5	0	0	516937	692	0	correct_rejection	NA	0
15	Single	3	3	651	4	0	0	517646	692	0	correct_rejection	NA	0
15	Single	4	4	652	7	0	0	518355	691	0	correct_rejection	NA	0
15	Single	5	5	653	9	0	0	519063	692	0	correct_rejection	NA	0
15	Single	6	6	654	4	0	0	519772	691	0	correct_rejection	NA	0
15	Single	7	7	655	4	0	0	520480	692	0	correct_rejection	NA	0
15	Single	8	8	656	5	0	0	521189	692	0	correct_rejection	NA	0
15	Single	9	9	657	0	1	1	521897	692	1	hit	375	0
15	Single	10	10	658	8	0	0	522606	692	0	correct_rejection	NA	0
15	Single	11	11	659	7	0	0	523315	691	0	correct_rejection	NA	0
15	Single	12	12	660	5	0	0	524023	692	0	correct_rejection	NA	0
15	Single	13	13	661	7	0	0	524732	691	0	correct_rejection	NA	0
15	Single	14	14	662	0	1	1	525440	692	1	hit	328	0
15	Single	15	15	663	7	0	0	526149	692	0	correct_rejection	NA	0
15	Single	16	16	664	8	0	0	526857	692	0	correct_rejection	NA	0
15	Single	17	17	665	9	0	0	527566	692	0	correct_rejection	NA	0
15	Single	18	18	666	8	0	0	528275	691	0	correct_rejection	NA	0
15	Single	19	19	667	6	0	0	528983	692	0	correct_rejection	NA	0
15	Single	20	20	668	4	0	0	529692	691	0	correct_rejection	NA	0
15	Single	21	21	669	0	1	1	530400	692	1	hit	335	0
15	Single	22	22	670	9	0	0	531109	691	0	correct_rejection	NA	0
15	Single	23	23	671	9	0	0	531817	692	0	correct_rejection	NA	0
15	Single	24	24	672	7	0	0	532526	692	0	correct_rejection	NA	0
15	Single	25	25	673	0	1	1	533234	692	1	hit	347	0
15	Single	26	26	674	6	0	0	533943	692	0	correct_rejection	NA	0
15	Single	27	27	675	6	0	0	534652	691	0	correct_rejection	NA	0
15	Single	28	28	676	8	0	0	535360	692	0	correct_rejection	NA	0
15	Single	29	29	677	5	0	0	536069	691	0	correct_rejection	NA	0
15	Single	30	30	678	6	0	0	536777	692	0	correct_rejection	NA	0
15	Single	31	31	679	0	1	1	537486	692	1	hit	344	0
15	Single	32	32	680	7	0	0	538194	692	0	correct_rejection	NA	0
15	Single	33	33	681	4	0	0	538903	692	0	correct_rejection	NA	0
15	Single	34	34	682	8	0	0	539612	691	0	correct_rejection	NA	0
15	Single	35	35	683	8	0	0	540320	692	0	correct_rejection	NA	0
15	Single	36	36	684	4	0	0	541029	691	0	correct_rejection	NA	0
15	Single	37	37	685	6	0	0	541737	692	0	correct_rejection	NA	0
15	Single	38	38	686	5	0	0	542446	692	0	correct_rejection	NA	0
15	Single	39	39	687	5	0	0	543154	692	0	correct_rejection	NA	0
15	Single	40	40	688	9	0	0	543863	692	0	correct_rejection	NA	0
15	Single	41	41	689	6	0	0	544572	691	0	correct_rejection	NA	0
15	Single	42	42	690	4	0	0	545280	692	0	correct_rejection	NA	0
15	Single	43	43	691	9	0	0	545989	691	0	correct_rejection	NA	0
15	Single	44	44	692	8	0	0	546697	692	0	correct_rejection	NA	0
15	Single	45	45	693	8	0	0	547406	692	0	correct_rejection	NA	0
15	Single	46	46	694	6	0	0	548114	692	0	correct_rejection	NA	0
15	Single	47	47	695	9	0	0	548823	692	0	correct_rejection	NA	0
15	Single	48	48	696	6	0	0	549532	691	0	correct_rejection	NA	0
15	Single	49	49	697	6	0	0	550240	692	0	correct_rejection	NA	0
15	Single	50	50	698	7	0	0	550949	691	0	correct_rejection	NA	0
15	Single	51	51	699	5	0	0	551657	692	0	correct_rejection	NA	0
15	Single	52	52	700	6	0	0	552366	692	0	correct_rejection	NA	0
15	Single	53	53	701	5	0	0	553074	692	0	correct_rejection	NA	0
15	Single	54	54	702	8	0	0	553783	692	0	correct_rejection	NA	0
15	Single	55	55	703	4	0	0	554492	691	0	correct_rejection	NA	0
15	Single	56	56	704	5	0	0	555200	692	0	correct_rejection	NA	0
15	Single	57	57	705	4	0	0	555909	691	0	correct_rejection	NA	0
15	Single	58	58	706	8	0	0	556617	692	0	correct_rejection	NA	0
15	Single	59	59	707	7	0	0	557326	692	0	correct_rejection	NA	0
15	Single	60	60	708	7	0	0	558034	692	0	correct_rejection	NA	0
15	Single	61	61	709	6	0	0	558743	692	0	correct_rejection	NA	0
15	Single	62	62	710	8	0	0	559452	691	0	correct_rejection	NA	0
15	Single	63	63	711	9	0	0	560160	692	0	correct_rejection	NA	0
15	Single	64	64	712	7	0	0	560869	691	0	correct_rejection	NA	0
15	Single	65	65	713	9	0	0	561577	692	0	correct_rejection	NA	0
15	Single	66	66	714	5	0	0	562286	691	0	correct_rejection	NA	0
15	Single	67	67	715	5	0	0	562994	692	0	correct_rejection	NA	0
15	Single	68	68	716	7	0	0	563703	692	0	correct_rejection	NA	0
15	Single	69	69	717	4	0	0	564411	692	0	correct_rejection	NA	0
15	Single	70	70	718	6	0	0	565120	692	0	correct_rejection	NA	0
15	Single	71	71	719	4	0	0	565829	691	0	correct_rejection	NA	0
15	Single	72	72	720	0	1	1	566537	692	1	hit	298	0
15	Single	73	73	721	4	0	0	567246	691	0	correct_rejection	NA	0
15	Single	74	74	722	7	0	0	567954	692	0	correct_rejection	NA	0
15	Single	75	75	723	0	1	1	568663	692	1	hit	399	0
15	Single	76	76	724	8	0	0	569371	692	0	correct_rejection	NA	0
15	Single	77	77	725	5	0	0	570080	692	0	correct_rejection	NA	0
15	Single	78	78	726	9	0	0	570789	691	0	correct_rejection	NA	0
15	Single	79	79	727	9	0	0	571497	692	0	correct_rejection	NA	0
15	Single	80	80	728	4	0	0	572206	691	0	correct_rejection	NA	0
15	Single	81	81	729	9	0	0	572914	692	0	correct_rejection	NA	0
15	Single	82	82	730	0	1	1	573623	692	1	hit	412	0
15	Single	83	83	731	6	0	0	574331	692	0	correct_rejection	NA	0
15	Single	84	84	732	4	0	0	575040	692	0	correct_rejection	NA	0
15	Single	85	85	733	6	0	0	575749	691	0	correct_rejection	NA	0
15	Single	86	86	734	8	0	0	576457	692	0	correct_rejection	NA	0
15	Single	87	87	735	0	1	1	577166	691	1	hit	331	0
15	Single	88	88	736	8	0	0	577874	692	0	correct_rejection	NA	0
15	Single	89	89	737	5	0	0	578583	692	0	correct_rejection	NA	0
15	Single	90	90	738	7	0	0	579291	692	0	correct_rejection	NA	0
15	Single	91	91	739	8	0	0	580000	692	0	correct_rejection	NA	0
15	Single	92	92	740	6	0	0	580709	691	0	correct_rejection	NA	0
15	Single	93	93	741	7	0	0	581417	692	0	correct_rejection	NA	0
15	Single	94	94	742	9	0	0	582126	691	0	correct_rejection	NA	0
15	Single	95	95	743	8	0	0	582834	692	0	correct_rejection	NA	0
15	Single	96	96	744	7	0	0	583543	692	0	correct_rejection	NA	0
15	Single	97	97	745	6	0	0	584251	692	0	correct_rejection	NA	0
15	Single	98	98	746	9	0	0	584960	692	0	correct_rejection	NA	0
15	Single	99	99	747	0	1	1	585669	691	1	hit	516	0
15	Single	100	100	748	7	0	0	586377	692	0	correct_rejection	NA	0
15	Single	101	101	749	7	0	0	587086	691	0	correct_rejection	NA	0
15	Single	102	102	750	4	0	0	587794	692	0	correct_rejection	NA	0
15	Single	103	103	751	5	0	0	588503	691	0	correct_rejection	NA	0
15	Single	104	104	752	5	0	0	589211	692	0	correct_rejection	NA	0
15	Single	105	105	753	8	0	0	589920	692	0	correct_rejection	NA	0
15	Single	106	106	754	9	0	0	590629	691	0	correct_rejection	NA	0
15	Single	107	107	755	0	1	1	591337	692	1	hit	454	0
15	Single	108	108	756	9	0	0	592046	691	0	correct_rejection	NA	0
15	Single	109	109	757	4	0	0	592754	692	0	correct_rejection	NA	0
15	Single	110	110	758	0	1	1	593463	691	1	hit	392	0
15	Single	111	111	759	8	0	0	594171	692	0	correct_rejection	NA	0
15	Single	112	112	760	4	0	0	594880	692	0	correct_rejection	NA	0
15	Single	113	113	761	0	1	1	595588	692	1	hit	414	0
15	Single	114	114	762	7	0	0	596297	692	0	correct_rejection	NA	0
15	Single	115	115	763	5	0	0	597006	691	0	correct_rejection	NA	0
15	Single	116	116	764	9	0	0	597714	692	0	correct_rejection	NA	0
15	Single	117	117	765	5	0	0	598423	691	0	correct_rejection	NA	0
15	Single	118	118	766	6	0	0	599131	692	0	correct_rejection	NA	0
15	Single	119	119	767	6	0	0	599840	692	0	correct_rejection	NA	0
15	Single	120	120	768	5	0	0	600548	692	0	correct_rejection	NA	0
15	Single	121	121	769	0	1	1	601257	692	1	hit	516	0
15	Single	122	122	770	4	0	0	601966	691	0	correct_rejection	NA	0
15	Single	123	123	771	9	0	0	602674	692	0	correct_rejection	NA	0
15	Single	124	124	772	7	0	0	603383	691	0	correct_rejection	NA	0
15	Single	125	125	773	6	0	0	604091	692	0	correct_rejection	NA	0
15	Single	126	126	774	4	0	0	604800	692	0	correct_rejection	NA	0
15	Single	127	127	775	9	0	0	605508	692	0	correct_rejection	NA	0
15	Single	128	128	776	4	0	0	606217	692	0	correct_rejection	NA	0
15	Single	129	129	777	4	0	0	606926	691	0	correct_rejection	NA	0
15	Single	130	130	778	8	0	0	607634	692	0	correct_rejection	NA	0
15	Single	131	131	779	5	0	0	608343	691	0	correct_rejection	NA	0
15	Single	132	132	780	8	0	0	609051	692	0	correct_rejection	NA	0
15	Single	133	133	781	6	0	0	609760	692	0	correct_rejection	NA	0
15	Single	134	134	782	8	0	0	610468	692	0	correct_rejection	NA	0
15	Single	135	135	783	4	0	0	611177	692	0	correct_rejection	NA	0
15	Single	136	136	784	6	0	0	611886	691	0	correct_rejection	NA	0
15	Single	137	137	785	0	1	1	612594	692	1	hit	352	0
15	Single	138	138	786	6	0	0	613303	691	0	correct_rejection	NA	0
15	Single	139	139	787	9	0	0	614011	692	0	correct_rejection	NA	0
15	Single	140	140	788	5	0	0	614720	692	0	correct_rejection	NA	0
15	Single	141	141	789	4	0	0	615428	692	0	correct_rejection	NA	0
15	Single	142	142	790	5	0	0	616137	692	0	correct_rejection	NA	0
15	Single	143	143	791	0	1	1	616846	691	1	hit	351	0
15	Single	144	144	792	6	0	0	617554	692	0	correct_rejection	NA	0
15	Single	145	145	793	7	0	0	618263	691	0	correct_rejection	NA	0
15	Single	146	146	794	8	0	0	618971	692	0	correct_rejection	NA	0
15	Single	147	147	795	8	0	0	619680	691	0	correct_rejection	NA	0
15	Single	148	148	796	7	0	0	620388	692	0	correct_rejection	NA	0
15	Single	149	149	797	4	0	0	621097	692	0	correct_rejection	NA	0
15	Single	150	150	798	7	0	0	621806	691	0	correct_rejection	NA	0
15	Single	151	151	799	9	0	0	622514	692	0	correct_rejection	NA	0
15	Single	152	152	800	6	0	0	623223	691	0	correct_rejection	NA	0
15	Single	153	153	801	5	0	0	623931	692	0	correct_rejection	NA	0
15	Single	154	154	802	0	1	1	624640	691	1	hit	414	0
15	Single	155	155	803	7	0	0	625348	692	0	correct_rejection	NA	0
15	Single	156	156	804	7	0	0	626057	692	0	correct_rejection	NA	0
15	Single	157	157	805	0	1	1	626765	692	1	hit	373	0
15	Single	158	158	806	5	0	0	627474	692	0	correct_rejection	NA	0
15	Single	159	159	807	5	0	0	628183	691	0	correct_rejection	NA	0
15	Single	160	160	808	9	0	0	628891	692	0	correct_rejection	NA	0
15	Single	161	161	809	8	0	0	629600	691	0	correct_rejection	NA	0
15	Single	162	162	810	9	0	0	630308	692	0	correct_rejection	NA	0
trigger nr 622 at 632228
trigger nr 627 at 704936
15	Triplet	1	649	811	4	0	0	712694	692	0	correct_rejection	NA	7719
15	Triplet	2	650	812	5	0	0	713403	691	0	correct_rejection	NA	0
15	Triplet	3	651	813	6	0	0	714111	692	0	correct_rejection	NA	0
15	Triplet	4	652	814	6	0	0	714820	691	0	correct_rejection	NA	0
15	Triplet	5	653	815	5	0	0	715528	692	0	correct_rejection	NA	0
15	Triplet	6	654	816	4	0	0	716237	691	0	correct_rejection	NA	0
15	Triplet	7	655	817	4	0	0	716945	692	0	correct_rejection	NA	0
15	Triplet	8	656	818	5	0	0	717654	692	0	correct_rejection	NA	0
15	Triplet	9	657	819	6	0	0	718363	691	0	correct_rejection	NA	0
15	Triplet	10	658	820	9	0	0	719071	692	0	correct_rejection	NA	0
15	Triplet	11	659	821	0	1	1	719780	691	1	hit	374	0
15	Triplet	12	660	822	8	0	0	720488	692	0	correct_rejection	NA	0
15	Triplet	13	661	823	7	0	0	721197	691	0	correct_rejection	NA	0
15	Triplet	14	662	824	6	0	0	721905	692	0	correct_rejection	NA	0
15	Triplet	15	663	825	0	1	1	722614	692	1	hit	374	0
15	Triplet	16	664	826	5	0	0	723322	692	0	correct_rejection	NA	0
15	Triplet	17	665	827	4	0	0	724031	692	0	correct_rejection	NA	0
15	Triplet	18	666	828	6	0	0	724740	691	0	correct_rejection	NA	0
15	Triplet	19	667	829	5	0	0	725448	692	0	correct_rejection	NA	0
15	Triplet	20	668	830	4	0	0	726157	691	0	correct_rejection	NA	0
15	Triplet	21	669	831	7	0	0	726865	692	0	correct_rejection	NA	0
15	Triplet	22	670	832	8	0	0	727574	692	0	correct_rejection	NA	0
15	Triplet	23	671	833	9	0	0	728282	692	0	correct_rejection	NA	0
15	Triplet	24	672	834	6	0	0	728991	692	0	correct_rejection	NA	0
15	Triplet	25	673	835	0	1	1	729700	691	1	hit	361	0
15	Triplet	26	674	836	5	0	0	730408	692	0	correct_rejection	NA	0
15	Triplet	27	675	837	4	0	0	731117	691	0	correct_rejection	NA	0
15	Triplet	28	676	838	9	0	0	731825	692	0	correct_rejection	NA	0
15	Triplet	29	677	839	8	0	0	732534	692	0	correct_rejection	NA	0
15	Triplet	30	678	840	7	0	0	733242	692	0	correct_rejection	NA	0
15	Triplet	31	679	841	7	0	0	733951	692	0	correct_rejection	NA	0
15	Triplet	32	680	842	8	0	0	734660	691	0	correct_rejection	NA	0
15	Triplet	33	681	843	9	0	0	735368	692	0	correct_rejection	NA	0
15	Triplet	34	682	844	4	0	0	736077	691	0	correct_rejection	NA	0
15	Triplet	35	683	845	5	0	0	736785	692	0	correct_rejection	NA	0
15	Triplet	36	684	846	6	0	0	737494	692	0	correct_rejection	NA	0
15	Triplet	37	685	847	4	0	0	738202	692	0	correct_rejection	NA	0
15	Triplet	38	686	848	5	0	0	738911	692	0	correct_rejection	NA	0
15	Triplet	39	687	849	0	1	1	739620	691	1	hit	356	0
15	Triplet	40	688	850	6	0	0	740328	692	0	correct_rejection	NA	0
15	Triplet	41	689	851	7	0	0	741037	691	0	correct_rejection	NA	0
15	Triplet	42	690	852	8	0	0	741745	692	0	correct_rejection	NA	0
15	Triplet	43	691	853	9	0	0	742454	692	0	correct_rejection	NA	0
15	Triplet	44	692	854	7	0	0	743162	692	0	correct_rejection	NA	0
15	Triplet	45	693	855	8	0	0	743871	692	0	correct_rejection	NA	0
15	Triplet	46	694	856	9	0	0	744580	691	0	correct_rejection	NA	0
15	Triplet	47	695	857	9	0	0	745288	692	0	correct_rejection	NA	0
15	Triplet	48	696	858	8	0	0	745997	691	0	correct_rejection	NA	0
15	Triplet	49	697	859	0	1	1	746705	692	1	hit	389	0
15	Triplet	50	698	860	7	0	0	747414	691	0	correct_rejection	NA	0
15	Triplet	51	699	861	9	0	0	748122	692	0	correct_rejection	NA	0
15	Triplet	52	700	862	8	0	0	748831	692	0	correct_rejection	NA	0
15	Triplet	53	701	863	7	0	0	749539	692	0	correct_rejection	NA	0
15	Triplet	54	702	864	7	0	0	750248	692	0	correct_rejection	NA	0
15	Triplet	55	703	865	0	1	1	750957	691	1	hit	338	0
15	Triplet	56	704	866	8	0	0	751665	692	0	correct_rejection	NA	0
15	Triplet	57	705	867	9	0	0	752374	691	0	correct_rejection	NA	0
15	Triplet	58	706	868	7	0	0	753082	692	0	correct_rejection	NA	0
15	Triplet	59	707	869	8	0	0	753791	692	0	correct_rejection	NA	0
15	Triplet	60	708	870	0	1	1	754499	692	1	hit	423	0
15	Triplet	61	709	871	9	0	0	755208	692	0	correct_rejection	NA	0
15	Triplet	62	710	872	6	0	0	755917	691	0	correct_rejection	NA	0
15	Triplet	63	711	873	5	0	0	756625	692	0	correct_rejection	NA	0
15	Triplet	64	712	874	4	0	0	757334	691	0	correct_rejection	NA	0
15	Triplet	65	713	875	6	0	0	758042	692	0	correct_rejection	NA	0
15	Triplet	66	714	876	5	0	0	758751	692	0	correct_rejection	NA	0
15	Triplet	67	715	877	4	0	0	759459	692	0	correct_rejection	NA	0
15	Triplet	68	716	878	0	1	2	760168	692	1	hit	515	0
15	Triplet	69	717	879	4	0	0	760877	691	0	correct_rejection	NA	0
15	Triplet	70	718	880	5	0	0	761585	692	0	correct_rejection	NA	0
15	Triplet	71	719	881	6	0	0	762294	691	0	correct_rejection	NA	0
15	Triplet	72	720	882	4	0	0	763002	692	0	correct_rejection	NA	0
15	Triplet	73	721	883	5	0	0	763711	692	0	correct_rejection	NA	0
15	Triplet	74	722	884	6	0	0	764419	692	0	correct_rejection	NA	0
15	Triplet	75	723	885	6	0	0	765128	692	0	correct_rejection	NA	0
15	Triplet	76	724	886	5	0	0	765837	691	0	correct_rejection	NA	0
15	Triplet	77	725	887	0	1	1	766545	692	1	hit	314	0
15	Triplet	78	726	888	4	0	0	767254	691	0	correct_rejection	NA	0
15	Triplet	79	727	889	7	0	0	767962	692	0	correct_rejection	NA	0
15	Triplet	80	728	890	8	0	0	768671	692	0	correct_rejection	NA	0
15	Triplet	81	729	891	9	0	0	769379	692	0	correct_rejection	NA	0
15	Triplet	82	730	892	4	0	0	770088	692	0	correct_rejection	NA	0
15	Triplet	83	731	893	5	0	0	770797	691	0	correct_rejection	NA	0
15	Triplet	84	732	894	6	0	0	771505	692	0	correct_rejection	NA	0
15	Triplet	85	733	895	9	0	0	772214	691	0	correct_rejection	NA	0
15	Triplet	86	734	896	8	0	0	772922	692	0	correct_rejection	NA	0
15	Triplet	87	735	897	7	0	0	773631	692	0	correct_rejection	NA	0
15	Triplet	88	736	898	9	0	0	774339	692	0	correct_rejection	NA	0
15	Triplet	89	737	899	8	0	0	775048	692	0	correct_rejection	NA	0
15	Triplet	90	738	900	7	0	0	775757	691	0	correct_rejection	NA	0
15	Triplet	91	739	901	7	0	0	776465	692	0	correct_rejection	NA	0
15	Triplet	92	740	902	8	0	0	777174	691	0	correct_rejection	NA	0
15	Triplet	93	741	903	9	0	0	777882	692	0	correct_rejection	NA	0
15	Triplet	94	742	904	9	0	0	778591	691	0	correct_rejection	NA	0
15	Triplet	95	743	905	8	0	0	779299	692	0	correct_rejection	NA	0
15	Triplet	96	744	906	7	0	0	780008	692	0	correct_rejection	NA	0
15	Triplet	97	745	907	6	0	0	780716	692	0	correct_rejection	NA	0
15	Triplet	98	746	908	5	0	0	781425	692	0	correct_rejection	NA	0
15	Triplet	99	747	909	4	0	0	782134	691	0	correct_rejection	NA	0
15	Triplet	100	748	910	9	0	0	782842	692	0	correct_rejection	NA	0
15	Triplet	101	749	911	8	0	0	783551	691	0	correct_rejection	NA	0
15	Triplet	102	750	912	0	1	1	784259	692	1	hit	379	0
15	Triplet	103	751	913	7	0	0	784968	692	0	correct_rejection	NA	0
15	Triplet	104	752	914	4	0	0	785676	692	0	correct_rejection	NA	0
15	Triplet	105	753	915	5	0	0	786385	692	0	correct_rejection	NA	0
15	Triplet	106	754	916	6	0	0	787094	691	0	correct_rejection	NA	0
15	Triplet	107	755	917	7	0	0	787802	692	0	correct_rejection	NA	0
15	Triplet	108	756	918	8	0	0	788511	691	0	correct_rejection	NA	0
15	Triplet	109	757	919	9	0	0	789219	692	0	correct_rejection	NA	0
15	Triplet	110	758	920	0	1	2	789928	692	1	hit	404	0
15	Triplet	111	759	921	9	0	0	790636	692	0	correct_rejection	NA	0
15	Triplet	112	760	922	8	0	0	791345	692	0	correct_rejection	NA	0
15	Triplet	113	761	923	7	0	0	792054	691	0	correct_rejection	NA	0
15	Triplet	114	762	924	4	0	0	792762	692	0	correct_rejection	NA	0
15	Triplet	115	763	925	5	0	0	793471	691	0	correct_rejection	NA	0
15	Triplet	116	764	926	6	0	0	794179	692	0	correct_rejection	NA	0
15	Triplet	117	765	927	0	1	2	794888	692	1	hit	484	0
15	Triplet	118	766	928	4	0	0	795596	692	0	correct_rejection	NA	0
15	Triplet	119	767	929	5	0	0	796305	692	0	correct_rejection	NA	0
15	Triplet	120	768	930	6	0	0	797014	691	0	correct_rejection	NA	0
15	Triplet	121	769	931	9	0	0	797722	692	0	correct_rejection	NA	0
15	Triplet	122	770	932	8	0	0	798431	691	0	correct_rejection	NA	0
15	Triplet	123	771	933	0	1	1	799139	692	1	hit	403	0
15	Triplet	124	772	934	7	0	0	799848	692	0	correct_rejection	NA	0
15	Triplet	125	773	935	7	0	0	800556	692	0	correct_rejection	NA	0
15	Triplet	126	774	936	8	0	0	801265	692	0	correct_rejection	NA	0
15	Triplet	127	775	937	9	0	0	801974	691	0	correct_rejection	NA	0
15	Triplet	128	776	938	0	1	2	802682	692	1	hit	350	0
15	Triplet	129	777	939	6	0	0	803391	691	0	correct_rejection	NA	0
15	Triplet	130	778	940	5	0	0	804099	692	0	correct_rejection	NA	0
15	Triplet	131	779	941	4	0	0	804808	691	0	correct_rejection	NA	0
15	Triplet	132	780	942	7	0	0	805516	692	0	correct_rejection	NA	0
15	Triplet	133	781	943	8	0	0	806225	692	0	correct_rejection	NA	0
15	Triplet	134	782	944	9	0	0	806934	691	0	correct_rejection	NA	0
15	Triplet	135	783	945	7	0	0	807642	692	0	correct_rejection	NA	0
15	Triplet	136	784	946	8	0	0	808351	691	0	correct_rejection	NA	0
15	Triplet	137	785	947	9	0	0	809059	692	0	correct_rejection	NA	0
15	Triplet	138	786	948	4	0	0	809768	691	0	correct_rejection	NA	0
15	Triplet	139	787	949	0	1	1	810476	692	1	hit	475	0
15	Triplet	140	788	950	5	0	0	811185	692	0	correct_rejection	NA	0
15	Triplet	141	789	951	6	0	0	811893	692	0	correct_rejection	NA	0
15	Triplet	142	790	952	0	1	2	812602	692	1	hit	384	0
15	Triplet	143	791	953	6	0	0	813311	691	0	correct_rejection	NA	0
15	Triplet	144	792	954	5	0	0	814019	692	0	correct_rejection	NA	0
15	Triplet	145	793	955	4	0	0	814728	691	0	correct_rejection	NA	0
15	Triplet	146	794	956	6	0	0	815436	692	0	correct_rejection	NA	0
15	Triplet	147	795	957	5	0	0	816145	692	0	correct_rejection	NA	0
15	Triplet	148	796	958	4	0	0	816853	692	0	correct_rejection	NA	0
15	Triplet	149	797	959	0	1	2	817562	692	1	hit	414	0
15	Triplet	150	798	960	9	0	0	818271	691	0	correct_rejection	NA	0
15	Triplet	151	799	961	8	0	0	818979	692	0	correct_rejection	NA	0
15	Triplet	152	800	962	7	0	0	819688	691	0	correct_rejection	NA	0
15	Triplet	153	801	963	0	1	2	820396	692	1	hit	298	0
15	Triplet	154	802	964	9	0	0	821105	692	0	correct_rejection	NA	0
15	Triplet	155	803	965	8	0	0	821813	692	0	correct_rejection	NA	0
15	Triplet	156	804	966	7	0	0	822522	692	0	correct_rejection	NA	0
15	Triplet	157	805	967	6	0	0	823231	691	0	correct_rejection	NA	0
15	Triplet	158	806	968	5	0	0	823939	692	0	correct_rejection	NA	0
15	Triplet	159	807	969	4	0	0	824648	691	0	correct_rejection	NA	0
15	Triplet	160	808	970	4	0	0	825356	692	0	correct_rejection	NA	0
15	Triplet	161	809	971	5	0	0	826065	692	0	correct_rejection	NA	0
15	Triplet	162	810	972	6	0	0	826773	692	0	correct_rejection	NA	0
15	Nonet	1	487	973	7	0	0	836593	692	0	correct_rejection	NA	7618
15	Nonet	2	488	974	8	0	0	837302	692	0	correct_rejection	NA	0
15	Nonet	3	489	975	9	0	0	838010	692	0	correct_rejection	NA	0
15	Nonet	4	490	976	0	1	2	838719	692	1	hit	341	0
15	Nonet	5	491	977	7	0	0	839428	691	0	correct_rejection	NA	0
15	Nonet	6	492	978	8	0	0	840136	692	0	correct_rejection	NA	0
15	Nonet	7	493	979	9	0	0	840845	691	0	correct_rejection	NA	0
15	Nonet	8	494	980	7	0	0	841553	692	0	correct_rejection	NA	0
15	Nonet	9	495	981	8	0	0	842262	692	0	correct_rejection	NA	0
15	Nonet	10	496	982	9	0	0	842970	692	0	correct_rejection	NA	0
15	Nonet	11	497	983	7	0	0	843679	692	0	correct_rejection	NA	0
15	Nonet	12	498	984	8	0	0	844388	691	0	correct_rejection	NA	0
15	Nonet	13	499	985	0	1	1	845096	692	1	hit	395	0
15	Nonet	14	500	986	9	0	0	845805	691	0	correct_rejection	NA	0
15	Nonet	15	501	987	7	0	0	846513	692	0	correct_rejection	NA	0
15	Nonet	16	502	988	0	1	1	847222	692	1	hit	382	0
15	Nonet	17	503	989	8	0	0	847930	692	0	correct_rejection	NA	0
15	Nonet	18	504	990	9	0	0	848639	692	0	correct_rejection	NA	0
15	Nonet	19	505	991	7	0	0	849348	691	0	correct_rejection	NA	0
15	Nonet	20	506	992	8	0	0	850056	692	0	correct_rejection	NA	0
15	Nonet	21	507	993	9	0	0	850765	691	0	correct_rejection	NA	0
15	Nonet	22	508	994	9	0	0	851473	692	0	correct_rejection	NA	0
15	Nonet	23	509	995	8	0	0	852182	692	0	correct_rejection	NA	0
15	Nonet	24	510	996	7	0	0	852890	692	0	correct_rejection	NA	0
15	Nonet	25	511	997	9	0	0	853599	692	0	correct_rejection	NA	0
15	Nonet	26	512	998	8	0	0	854308	691	0	correct_rejection	NA	0
15	Nonet	27	513	999	7	0	0	855016	692	0	correct_rejection	NA	0
15	Nonet	28	514	1000	9	0	0	855725	691	0	correct_rejection	NA	0
15	Nonet	29	515	1001	0	1	1	856433	692	1	hit	348	0
15	Nonet	30	516	1002	8	0	0	857142	692	0	correct_rejection	NA	0
15	Nonet	31	517	1003	7	0	0	857850	692	0	correct_rejection	NA	0
15	Nonet	32	518	1004	9	0	0	858559	692	0	correct_rejection	NA	0
15	Nonet	33	519	1005	8	0	0	859268	691	0	correct_rejection	NA	0
15	Nonet	34	520	1006	7	0	0	859976	692	0	correct_rejection	NA	0
15	Nonet	35	521	1007	9	0	0	860685	691	0	correct_rejection	NA	0
15	Nonet	36	522	1008	0	1	1	861393	692	1	hit	380	0
15	Nonet	37	523	1009	8	0	0	862102	691	0	correct_rejection	NA	0
15	Nonet	38	524	1010	7	0	0	862810	692	0	correct_rejection	NA	0
15	Nonet	39	525	1011	9	0	0	863519	692	0	correct_rejection	NA	0
15	Nonet	40	526	1012	8	0	0	864228	691	0	correct_rejection	NA	0
15	Nonet	41	527	1013	7	0	0	864936	692	0	correct_rejection	NA	0
15	Nonet	42	528	1014	4	0	0	865645	691	0	correct_rejection	NA	0
15	Nonet	43	529	1015	5	0	0	866353	692	0	correct_rejection	NA	0
15	Nonet	44	530	1016	6	0	0	867062	691	0	correct_rejection	NA	0
15	Nonet	45	531	1017	4	0	0	867770	692	0	correct_rejection	NA	0
15	Nonet	46	532	1018	5	0	0	868479	692	0	correct_rejection	NA	0
15	Nonet	47	533	1019	0	1	1	869187	692	1	hit	305	0
15	Nonet	48	534	1020	6	0	0	869896	692	0	correct_rejection	NA	0
15	Nonet	49	535	1021	4	0	0	870605	691	0	correct_rejection	NA	0
15	Nonet	50	536	1022	5	0	0	871313	692	0	correct_rejection	NA	0
15	Nonet	51	537	1023	6	0	0	872022	691	0	correct_rejection	NA	0
15	Nonet	52	538	1024	6	0	0	872730	692	0	correct_rejection	NA	0
15	Nonet	53	539	1025	5	0	0	873439	692	0	correct_rejection	NA	0
15	Nonet	54	540	1026	4	0	0	874147	692	0	correct_rejection	NA	0
15	Nonet	55	541	1027	6	0	0	874856	692	0	correct_rejection	NA	0
15	Nonet	56	542	1028	5	0	0	875565	691	0	correct_rejection	NA	0
15	Nonet	57	543	1029	4	0	0	876273	692	0	correct_rejection	NA	0
15	Nonet	58	544	1030	6	0	0	876982	691	0	correct_rejection	NA	0
15	Nonet	59	545	1031	5	0	0	877690	692	0	correct_rejection	NA	0
15	Nonet	60	546	1032	4	0	0	878399	692	0	correct_rejection	NA	0
15	Nonet	61	547	1033	4	0	0	879107	692	0	correct_rejection	NA	0
15	Nonet	62	548	1034	5	0	0	879816	692	0	correct_rejection	NA	0
15	Nonet	63	549	1035	6	0	0	880525	691	0	correct_rejection	NA	0
15	Nonet	64	550	1036	4	0	0	881233	692	0	correct_rejection	NA	0
15	Nonet	65	551	1037	5	0	0	881942	691	0	correct_rejection	NA	0
15	Nonet	66	552	1038	6	0	0	882650	692	0	correct_rejection	NA	0
15	Nonet	67	553	1039	0	1	2	883359	692	1	hit	395	0
15	Nonet	68	554	1040	4	0	0	884067	692	0	correct_rejection	NA	0
15	Nonet	69	555	1041	5	0	0	884776	692	0	correct_rejection	NA	0
15	Nonet	70	556	1042	6	0	0	885485	691	0	correct_rejection	NA	0
15	Nonet	71	557	1043	7	0	0	886193	692	0	correct_rejection	NA	0
15	Nonet	72	558	1044	8	0	0	886902	691	0	correct_rejection	NA	0
15	Nonet	73	559	1045	9	0	0	887610	692	0	correct_rejection	NA	0
15	Nonet	74	560	1046	7	0	0	888319	692	0	correct_rejection	NA	0
15	Nonet	75	561	1047	8	0	0	889027	692	0	correct_rejection	NA	0
15	Nonet	76	562	1048	9	0	0	889736	692	0	correct_rejection	NA	0
15	Nonet	77	563	1049	7	0	0	890445	691	0	correct_rejection	NA	0
15	Nonet	78	564	1050	8	0	0	891153	692	0	correct_rejection	NA	0
15	Nonet	79	565	1051	9	0	0	891862	691	0	correct_rejection	NA	0
15	Nonet	80	566	1052	6	0	0	892570	692	0	correct_rejection	NA	0
15	Nonet	81	567	1053	5	0	0	893279	691	0	correct_rejection	NA	0
15	Nonet	82	568	1054	0	1	1	893987	692	1	hit	363	0
15	Nonet	83	569	1055	4	0	0	894696	692	0	correct_rejection	NA	0
15	Nonet	84	570	1056	6	0	0	895404	692	0	correct_rejection	NA	0
15	Nonet	85	571	1057	5	0	0	896113	692	0	correct_rejection	NA	0
15	Nonet	86	572	1058	4	0	0	896822	691	0	correct_rejection	NA	0
15	Nonet	87	573	1059	0	1	2	897530	692	1	hit	356	0
15	Nonet	88	574	1060	6	0	0	898239	691	0	correct_rejection	NA	0
15	Nonet	89	575	1061	5	0	0	898947	692	0	correct_rejection	NA	0
15	Nonet	90	576	1062	4	0	0	899656	692	0	correct_rejection	NA	0
15	Nonet	91	577	1063	9	0	0	900364	692	0	correct_rejection	NA	0
15	Nonet	92	578	1064	8	0	0	901073	692	0	correct_rejection	NA	0
15	Nonet	93	579	1065	7	0	0	901782	691	0	correct_rejection	NA	0
15	Nonet	94	580	1066	9	0	0	902490	692	0	correct_rejection	NA	0
15	Nonet	95	581	1067	8	0	0	903199	691	0	correct_rejection	NA	0
15	Nonet	96	582	1068	7	0	0	903907	692	0	correct_rejection	NA	0
15	Nonet	97	583	1069	0	1	2	904616	692	1	hit	347	0
15	Nonet	98	584	1070	9	0	0	905324	692	0	correct_rejection	NA	0
15	Nonet	99	585	1071	8	0	0	906033	692	0	correct_rejection	NA	0
15	Nonet	100	586	1072	7	0	0	906742	691	0	correct_rejection	NA	0
15	Nonet	101	587	1073	6	0	0	907450	692	0	correct_rejection	NA	0
15	Nonet	102	588	1074	5	0	0	908159	691	0	correct_rejection	NA	0
15	Nonet	103	589	1075	0	1	1	908867	692	1	hit	459	0
15	Nonet	104	590	1076	4	0	0	909576	692	0	correct_rejection	NA	0
15	Nonet	105	591	1077	6	0	0	910284	692	0	correct_rejection	NA	0
15	Nonet	106	592	1078	5	0	0	910993	692	0	correct_rejection	NA	0
15	Nonet	107	593	1079	4	0	0	911702	691	0	correct_rejection	NA	0
15	Nonet	108	594	1080	6	0	0	912410	692	0	correct_rejection	NA	0
15	Nonet	109	595	1081	5	0	0	913119	691	0	correct_rejection	NA	0
15	Nonet	110	596	1082	4	0	0	913827	692	0	correct_rejection	NA	0
15	Nonet	111	597	1083	6	0	0	914536	692	0	correct_rejection	NA	0
15	Nonet	112	598	1084	5	0	0	915244	692	0	correct_rejection	NA	0
15	Nonet	113	599	1085	4	0	0	915953	692	0	correct_rejection	NA	0
15	Nonet	114	600	1086	6	0	0	916662	691	0	correct_rejection	NA	0
15	Nonet	115	601	1087	5	0	0	917370	692	0	correct_rejection	NA	0
15	Nonet	116	602	1088	4	0	0	918079	691	0	correct_rejection	NA	0
15	Nonet	117	603	1089	6	0	0	918787	692	0	correct_rejection	NA	0
15	Nonet	118	604	1090	0	1	1	919496	692	1	hit	501	0
15	Nonet	119	605	1091	5	0	0	920204	692	0	correct_rejection	NA	0
15	Nonet	120	606	1092	4	0	0	920913	692	0	correct_rejection	NA	0
15	Nonet	121	607	1093	7	0	0	921622	691	0	correct_rejection	NA	0
15	Nonet	122	608	1094	8	0	0	922330	692	0	correct_rejection	NA	0
15	Nonet	123	609	1095	0	1	1	923039	691	1	hit	354	0
15	Nonet	124	610	1096	9	0	0	923747	692	0	correct_rejection	NA	0
15	Nonet	125	611	1097	7	0	0	924456	691	0	correct_rejection	NA	0
15	Nonet	126	612	1098	0	1	1	925164	692	1	hit	496	0
15	Nonet	127	613	1099	8	0	0	925873	692	0	correct_rejection	NA	0
15	Nonet	128	614	1100	9	0	0	926581	692	0	correct_rejection	NA	0
15	Nonet	129	615	1101	0	1	2	927290	692	1	hit	463	0
15	Nonet	130	616	1102	7	0	0	927999	691	0	correct_rejection	NA	0
15	Nonet	131	617	1103	8	0	0	928707	692	0	correct_rejection	NA	0
15	Nonet	132	618	1104	9	0	0	929416	691	0	correct_rejection	NA	0
15	Nonet	133	619	1105	4	0	0	930124	692	0	correct_rejection	NA	0
15	Nonet	134	620	1106	5	0	0	930833	692	0	correct_rejection	NA	0
15	Nonet	135	621	1107	6	0	0	931541	692	0	correct_rejection	NA	0
15	Nonet	136	622	1108	4	0	0	932250	692	0	correct_rejection	NA	0
15	Nonet	137	623	1109	5	0	0	932959	691	0	correct_rejection	NA	0
15	Nonet	138	624	1110	6	0	0	933667	692	0	correct_rejection	NA	0
15	Nonet	139	625	1111	4	0	0	934376	691	0	correct_rejection	NA	0
15	Nonet	140	626	1112	5	0	0	935084	692	0	correct_rejection	NA	0
15	Nonet	141	627	1113	6	0	0	935793	692	0	correct_rejection	NA	0
15	Nonet	142	628	1114	4	0	0	936501	692	0	correct_rejection	NA	0
15	Nonet	143	629	1115	5	0	0	937210	692	0	correct_rejection	NA	0
15	Nonet	144	630	1116	6	0	0	937919	691	0	correct_rejection	NA	0
15	Nonet	145	631	1117	4	0	0	938627	692	0	correct_rejection	NA	0
15	Nonet	146	632	1118	0	1	1	939336	691	1	hit	371	0
15	Nonet	147	633	1119	5	0	0	940044	692	0	correct_rejection	NA	0
15	Nonet	148	634	1120	6	0	0	940753	692	0	correct_rejection	NA	0
15	Nonet	149	635	1121	0	1	2	941461	692	1	hit	409	0
15	Nonet	150	636	1122	4	0	0	942170	692	0	correct_rejection	NA	0
15	Nonet	151	637	1123	5	0	0	942879	691	0	correct_rejection	NA	0
15	Nonet	152	638	1124	6	0	0	943587	692	0	correct_rejection	NA	0
15	Nonet	153	639	1125	9	0	0	944296	691	0	correct_rejection	NA	0
15	Nonet	154	640	1126	8	0	0	945004	692	0	correct_rejection	NA	0
15	Nonet	155	641	1127	7	0	0	945713	692	0	correct_rejection	NA	0
15	Nonet	156	642	1128	9	0	0	946421	692	0	correct_rejection	NA	0
15	Nonet	157	643	1129	8	0	0	947130	692	0	correct_rejection	NA	0
15	Nonet	158	644	1130	7	0	0	947839	691	0	correct_rejection	NA	0
15	Nonet	159	645	1131	9	0	0	948547	692	0	correct_rejection	NA	0
15	Nonet	160	646	1132	8	0	0	949256	691	0	correct_rejection	NA	0
15	Nonet	161	647	1133	0	1	1	949964	692	1	hit	315	0
15	Nonet	162	648	1134	7	0	0	950673	692	0	correct_rejection	NA	0
15	Correct	1	487	1135	4	0	0	960684	692	0	correct_rejection	NA	7709
15	Correct	2	488	1136	5	0	0	961393	692	0	correct_rejection	NA	0
15	Correct	3	489	1137	6	0	0	962102	691	0	correct_rejection	NA	0
15	Correct	4	490	1138	4	0	0	962810	692	0	correct_rejection	NA	0
15	Correct	5	491	1139	0	1	1	963519	691	1	hit	315	0
15	Correct	6	492	1140	5	0	0	964227	692	0	correct_rejection	NA	0
15	Correct	7	493	1141	6	0	0	964936	692	0	correct_rejection	NA	0
15	Correct	8	494	1142	0	1	2	965644	692	1	hit	365	0
15	Correct	9	495	1143	4	0	0	966353	692	0	correct_rejection	NA	0
15	Correct	10	496	1144	5	0	0	967062	691	0	correct_rejection	NA	0
15	Correct	11	497	1145	6	0	0	967770	692	0	correct_rejection	NA	0
15	Correct	12	498	1146	6	0	0	968479	691	0	correct_rejection	NA	0
15	Correct	13	499	1147	5	0	0	969187	692	0	correct_rejection	NA	0
15	Correct	14	500	1148	4	0	0	969896	692	0	correct_rejection	NA	0
15	Correct	15	501	1149	0	1	2	970604	692	1	hit	345	0
15	Correct	16	502	1150	6	0	0	971313	692	0	correct_rejection	NA	0
15	Correct	17	503	1151	5	0	0	972022	691	0	correct_rejection	NA	0
15	Correct	18	504	1152	4	0	0	972730	692	0	correct_rejection	NA	0
15	Correct	19	505	1153	6	0	0	973439	691	0	correct_rejection	NA	0
15	Correct	20	506	1154	0	1	1	974147	692	1	hit	418	0
15	Correct	21	507	1155	5	0	0	974856	692	0	correct_rejection	NA	0
15	Correct	22	508	1156	4	0	0	975564	692	0	correct_rejection	NA	0
15	Correct	23	509	1157	9	0	0	976273	692	0	correct_rejection	NA	0
15	Correct	24	510	1158	8	0	0	976982	691	0	correct_rejection	NA	0
15	Correct	25	511	1159	7	0	0	977690	692	0	correct_rejection	NA	0
15	Correct	26	512	1160	9	0	0	978399	691	0	correct_rejection	NA	0
15	Correct	27	513	1161	0	1	1	979107	692	1	hit	347	0
15	Correct	28	514	1162	8	0	0	979816	691	0	correct_rejection	NA	0
15	Correct	29	515	1163	7	0	0	980524	692	0	correct_rejection	NA	0
15	Correct	30	516	1164	9	0	0	981233	692	0	correct_rejection	NA	0
15	Correct	31	517	1165	8	0	0	981942	691	0	correct_rejection	NA	0
15	Correct	32	518	1166	0	1	1	982650	692	1	hit	284	0
15	Correct	33	519	1167	7	0	0	983359	691	0	correct_rejection	NA	0
15	Correct	34	520	1168	7	0	0	984067	692	0	correct_rejection	NA	0
15	Correct	35	521	1169	8	0	0	984776	691	0	correct_rejection	NA	0
15	Correct	36	522	1170	9	0	0	985484	692	0	correct_rejection	NA	0
15	Correct	37	523	1171	7	0	0	986193	692	0	correct_rejection	NA	0
15	Correct	38	524	1172	8	0	0	986901	692	0	correct_rejection	NA	0
15	Correct	39	525	1173	9	0	0	987610	692	0	correct_rejection	NA	0
15	Correct	40	526	1174	7	0	0	988319	691	0	correct_rejection	NA	0
15	Correct	41	527	1175	8	0	0	989027	692	0	correct_rejection	NA	0
15	Correct	42	528	1176	9	0	0	989736	691	0	correct_rejection	NA	0
15	Correct	43	529	1177	4	0	0	990444	692	0	correct_rejection	NA	0
15	Correct	44	530	1178	5	0	0	991153	692	0	correct_rejection	NA	0
15	Correct	45	531	1179	6	0	0	991861	692	0	correct_rejection	NA	0
15	Correct	46	532	1180	4	0	0	992570	692	0	correct_rejection	NA	0
15	Correct	47	533	1181	5	0	0	993279	691	0	correct_rejection	NA	0
15	Correct	48	534	1182	6	0	0	993987	692	0	correct_rejection	NA	0
15	Correct	49	535	1183	4	0	0	994696	691	0	correct_rejection	NA	0
15	Correct	50	536	1184	5	0	0	995404	692	0	correct_rejection	NA	0
15	Correct	51	537	1185	0	1	1	996113	692	1	hit	325	0
15	Correct	52	538	1186	6	0	0	996821	692	0	correct_rejection	NA	0
15	Correct	53	539	1187	6	0	0	997530	692	0	correct_rejection	NA	0
15	Correct	54	540	1188	5	0	0	998239	691	0	correct_rejection	NA	0
15	Correct	55	541	1189	4	0	0	998947	692	0	correct_rejection	NA	0
15	Correct	56	542	1190	6	0	0	999656	691	0	correct_rejection	NA	0
15	Correct	57	543	1191	5	0	0	1000364	692	0	correct_rejection	NA	0
15	Correct	58	544	1192	4	0	0	1001073	692	0	correct_rejection	NA	0
15	Correct	59	545	1193	0	1	2	1001781	692	1	hit	415	0
15	Correct	60	546	1194	6	0	0	1002490	692	0	correct_rejection	NA	0
15	Correct	61	547	1195	5	0	0	1003199	691	0	correct_rejection	NA	0
15	Correct	62	548	1196	0	1	1	1003907	692	1	hit	358	0
15	Correct	63	549	1197	4	0	0	1004616	691	0	correct_rejection	NA	0
15	Correct	64	550	1198	9	0	0	1005324	692	0	correct_rejection	NA	0
15	Correct	65	551	1199	0	1	1	1006033	692	1	hit	313	0
15	Correct	66	552	1200	8	0	0	1006741	692	0	correct_rejection	NA	0
15	Correct	67	553	1201	7	0	0	1007450	692	0	correct_rejection	NA	0
15	Correct	68	554	1202	9	0	0	1008159	691	0	correct_rejection	NA	0
15	Correct	69	555	1203	8	0	0	1008867	692	0	correct_rejection	NA	0
15	Correct	70	556	1204	0	1	1	1009576	691	1	hit	364	0
15	Correct	71	557	1205	7	0	0	1010284	692	0	correct_rejection	NA	0
15	Correct	72	558	1206	9	0	0	1010993	691	0	correct_rejection	NA	0
15	Correct	73	559	1207	8	0	0	1011701	692	0	correct_rejection	NA	0
15	Correct	74	560	1208	7	0	0	1012410	692	0	correct_rejection	NA	0
15	Correct	75	561	1209	7	0	0	1013118	692	0	correct_rejection	NA	0
15	Correct	76	562	1210	8	0	0	1013827	692	0	correct_rejection	NA	0
15	Correct	77	563	1211	9	0	0	1014536	691	0	correct_rejection	NA	0
15	Correct	78	564	1212	7	0	0	1015244	692	0	correct_rejection	NA	0
15	Correct	79	565	1213	8	0	0	1015953	691	0	correct_rejection	NA	0
15	Correct	80	566	1214	9	0	0	1016661	692	0	correct_rejection	NA	0
15	Correct	81	567	1215	7	0	0	1017370	692	0	correct_rejection	NA	0
15	Correct	82	568	1216	8	0	0	1018078	692	0	correct_rejection	NA	0
15	Correct	83	569	1217	9	0	0	1018787	692	0	correct_rejection	NA	0
15	Correct	84	570	1218	4	0	0	1019496	691	0	correct_rejection	NA	0
15	Correct	85	571	1219	5	0	0	1020204	692	0	correct_rejection	NA	0
15	Correct	86	572	1220	6	0	0	1020913	691	0	correct_rejection	NA	0
15	Correct	87	573	1221	4	0	0	1021621	692	0	correct_rejection	NA	0
15	Correct	88	574	1222	5	0	0	1022330	692	0	correct_rejection	NA	0
15	Correct	89	575	1223	0	1	1	1023038	692	1	hit	349	0
15	Correct	90	576	1224	6	0	0	1023747	692	0	correct_rejection	NA	0
15	Correct	91	577	1225	4	0	0	1024456	691	0	correct_rejection	NA	0
15	Correct	92	578	1226	5	0	0	1025164	692	0	correct_rejection	NA	0
15	Correct	93	579	1227	6	0	0	1025873	691	0	correct_rejection	NA	0
15	Correct	94	580	1228	6	0	0	1026581	692	0	correct_rejection	NA	0
15	Correct	95	581	1229	0	1	1	1027290	692	1	hit	363	0
15	Correct	96	582	1230	5	0	0	1027998	692	0	correct_rejection	NA	0
15	Correct	97	583	1231	4	0	0	1028707	692	0	correct_rejection	NA	0
15	Correct	98	584	1232	6	0	0	1029416	691	0	correct_rejection	NA	0
15	Correct	99	585	1233	5	0	0	1030124	692	0	correct_rejection	NA	0
15	Correct	100	586	1234	4	0	0	1030833	691	0	correct_rejection	NA	0
15	Correct	101	587	1235	6	0	0	1031541	692	0	correct_rejection	NA	0
15	Correct	102	588	1236	5	0	0	1032250	692	0	correct_rejection	NA	0
15	Correct	103	589	1237	4	0	0	1032958	692	0	correct_rejection	NA	0
15	Correct	104	590	1238	9	0	0	1033667	692	0	correct_rejection	NA	0
15	Correct	105	591	1239	8	0	0	1034376	691	0	correct_rejection	NA	0
15	Correct	106	592	1240	7	0	0	1035084	692	0	correct_rejection	NA	0
15	Correct	107	593	1241	9	0	0	1035793	691	0	correct_rejection	NA	0
15	Correct	108	594	1242	8	0	0	1036501	692	0	correct_rejection	NA	0
15	Correct	109	595	1243	7	0	0	1037210	692	0	correct_rejection	NA	0
15	Correct	110	596	1244	9	0	0	1037918	692	0	correct_rejection	NA	0
15	Correct	111	597	1245	8	0	0	1038627	692	0	correct_rejection	NA	0
15	Correct	112	598	1246	7	0	0	1039336	691	0	correct_rejection	NA	0
15	Correct	113	599	1247	7	0	0	1040044	692	0	correct_rejection	NA	0
15	Correct	114	600	1248	8	0	0	1040753	691	0	correct_rejection	NA	0
15	Correct	115	601	1249	0	1	1	1041461	692	1	hit	406	0
15	Correct	116	602	1250	9	0	0	1042170	691	0	correct_rejection	NA	0
15	Correct	117	603	1251	7	0	0	1042878	692	0	correct_rejection	NA	0
15	Correct	118	604	1252	8	0	0	1043587	692	0	correct_rejection	NA	0
15	Correct	119	605	1253	9	0	0	1044295	692	0	correct_rejection	NA	0
15	Correct	120	606	1254	7	0	0	1045004	692	0	correct_rejection	NA	0
15	Correct	121	607	1255	8	0	0	1045713	691	0	correct_rejection	NA	0
15	Correct	122	608	1256	9	0	0	1046421	692	0	correct_rejection	NA	0
15	Correct	123	609	1257	0	1	4	1047130	691	1	hit	342	0
15	Correct	124	610	1258	4	0	0	1047838	692	0	correct_rejection	NA	0
15	Correct	125	611	1259	5	0	0	1048547	692	0	correct_rejection	NA	0
15	Correct	126	612	1260	6	0	0	1049255	692	0	correct_rejection	NA	0
15	Correct	127	613	1261	4	0	0	1049964	692	0	correct_rejection	NA	0
15	Correct	128	614	1262	5	0	0	1050673	691	0	correct_rejection	NA	0
15	Correct	129	615	1263	6	0	0	1051381	692	0	correct_rejection	NA	0
15	Correct	130	616	1264	0	1	2	1052090	691	1	hit	351	0
15	Correct	131	617	1265	4	0	0	1052798	692	0	correct_rejection	NA	0
15	Correct	132	618	1266	5	0	0	1053507	692	0	correct_rejection	NA	0
15	Correct	133	619	1267	6	0	0	1054215	692	0	correct_rejection	NA	0
15	Correct	134	620	1268	6	0	0	1054924	692	0	correct_rejection	NA	0
15	Correct	135	621	1269	5	0	0	1055633	691	0	correct_rejection	NA	0
15	Correct	136	622	1270	4	0	0	1056341	692	0	correct_rejection	NA	0
15	Correct	137	623	1271	6	0	0	1057050	691	0	correct_rejection	NA	0
15	Correct	138	624	1272	5	0	0	1057758	692	0	correct_rejection	NA	0
15	Correct	139	625	1273	0	1	1	1058467	692	1	hit	336	0
15	Correct	140	626	1274	4	0	0	1059175	692	0	correct_rejection	NA	0
15	Correct	141	627	1275	6	0	0	1059884	692	0	correct_rejection	NA	0
15	Correct	142	628	1276	5	0	0	1060593	691	0	correct_rejection	NA	0
15	Correct	143	629	1277	4	0	0	1061301	692	0	correct_rejection	NA	0
15	Correct	144	630	1278	0	1	3	1062010	691	1	hit	436	0
15	Correct	145	631	1279	9	0	0	1062718	692	0	correct_rejection	NA	0
15	Correct	146	632	1280	8	0	0	1063427	692	0	correct_rejection	NA	0
15	Correct	147	633	1281	7	0	0	1064135	692	0	correct_rejection	NA	0
15	Correct	148	634	1282	9	0	0	1064844	692	0	correct_rejection	NA	0
15	Correct	149	635	1283	8	0	0	1065553	691	0	correct_rejection	NA	0
15	Correct	150	636	1284	7	0	0	1066261	692	0	correct_rejection	NA	0
15	Correct	151	637	1285	9	0	0	1066970	691	0	correct_rejection	NA	0
15	Correct	152	638	1286	8	0	0	1067678	692	0	correct_rejection	NA	0
15	Correct	153	639	1287	7	0	0	1068387	692	0	correct_rejection	NA	0
15	Correct	154	640	1288	7	0	0	1069095	692	0	correct_rejection	NA	0
15	Correct	155	641	1289	8	0	0	1069804	692	0	correct_rejection	NA	0
15	Correct	156	642	1290	9	0	0	1070513	691	0	correct_rejection	NA	0
15	Correct	157	643	1291	7	0	0	1071221	692	0	correct_rejection	NA	0
15	Correct	158	644	1292	8	0	0	1071930	691	0	correct_rejection	NA	0
15	Correct	159	645	1293	9	0	0	1072638	692	0	correct_rejection	NA	0
15	Correct	160	646	1294	7	0	0	1073347	691	0	correct_rejection	NA	0
15	Correct	161	647	1295	8	0	0	1074055	692	0	correct_rejection	NA	0
15	Correct	162	648	1296	9	0	0	1074764	692	0	correct_rejection	NA	0
15	Nonet	1	1	1297	9	0	0	1083392	691	0	correct_rejection	NA	6429
15	Nonet	2	2	1298	8	0	0	1084100	692	0	correct_rejection	NA	0
15	Nonet	3	3	1299	7	0	0	1084809	692	0	correct_rejection	NA	0
15	Nonet	4	4	1300	9	0	0	1085517	692	0	correct_rejection	NA	0
15	Nonet	5	5	1301	8	0	0	1086226	692	0	correct_rejection	NA	0
15	Nonet	6	6	1302	7	0	0	1086935	691	0	correct_rejection	NA	0
15	Nonet	7	7	1303	9	0	0	1087643	692	0	correct_rejection	NA	0
15	Nonet	8	8	1304	8	0	0	1088352	691	0	correct_rejection	NA	0
15	Nonet	9	9	1305	7	0	0	1089060	692	0	correct_rejection	NA	0
15	Nonet	10	10	1306	6	0	0	1089769	692	0	correct_rejection	NA	0
15	Nonet	11	11	1307	5	0	0	1090477	692	0	correct_rejection	NA	0
15	Nonet	12	12	1308	4	0	0	1091186	692	0	correct_rejection	NA	0
15	Nonet	13	13	1309	6	0	0	1091895	691	0	correct_rejection	NA	0
15	Nonet	14	14	1310	5	0	0	1092603	692	0	correct_rejection	NA	0
15	Nonet	15	15	1311	4	0	0	1093312	691	0	correct_rejection	NA	0
15	Nonet	16	16	1312	6	0	0	1094020	692	0	correct_rejection	NA	0
15	Nonet	17	17	1313	0	1	1	1094729	692	1	hit	449	0
15	Nonet	18	18	1314	5	0	0	1095437	692	0	correct_rejection	NA	0
15	Nonet	19	19	1315	4	0	0	1096146	692	0	correct_rejection	NA	0
15	Nonet	20	20	1316	6	0	0	1096855	691	0	correct_rejection	NA	0
15	Nonet	21	21	1317	5	0	0	1097563	692	0	correct_rejection	NA	0
15	Nonet	22	22	1318	0	1	1	1098272	691	1	hit	432	0
15	Nonet	23	23	1319	4	0	0	1098980	692	0	correct_rejection	NA	0
15	Nonet	24	24	1320	6	0	0	1099689	692	0	correct_rejection	NA	0
15	Nonet	25	25	1321	5	0	0	1100397	692	0	correct_rejection	NA	0
15	Nonet	26	26	1322	4	0	0	1101106	692	0	correct_rejection	NA	0
15	Nonet	27	27	1323	6	0	0	1101815	691	0	correct_rejection	NA	0
15	Nonet	28	28	1324	5	0	0	1102523	692	0	correct_rejection	NA	0
15	Nonet	29	29	1325	4	0	0	1103232	691	0	correct_rejection	NA	0
15	Nonet	30	30	1326	9	0	0	1103940	692	0	correct_rejection	NA	0
15	Nonet	31	31	1327	8	0	0	1104649	692	0	correct_rejection	NA	0
15	Nonet	32	32	1328	0	1	1	1105357	692	1	hit	307	0
15	Nonet	33	33	1329	7	0	0	1106066	692	0	correct_rejection	NA	0
15	Nonet	34	34	1330	9	0	0	1106775	691	0	correct_rejection	NA	0
15	Nonet	35	35	1331	8	0	0	1107483	692	0	correct_rejection	NA	0
15	Nonet	36	36	1332	7	0	0	1108192	691	0	correct_rejection	NA	0
15	Nonet	37	37	1333	9	0	0	1108900	692	0	correct_rejection	NA	0
15	Nonet	38	38	1334	8	0	0	1109609	691	0	correct_rejection	NA	0
15	Nonet	39	39	1335	7	0	0	1110317	692	0	correct_rejection	NA	0
15	Nonet	40	40	1336	4	0	0	1111026	692	0	correct_rejection	NA	0
15	Nonet	41	41	1337	5	0	0	1111735	691	0	correct_rejection	NA	0
15	Nonet	42	42	1338	6	0	0	1112443	692	0	correct_rejection	NA	0
15	Nonet	43	43	1339	0	1	2	1113152	691	1	hit	397	0
15	Nonet	44	44	1340	4	0	0	1113860	692	0	correct_rejection	NA	0
15	Nonet	45	45	1341	5	0	0	1114569	691	0	correct_rejection	NA	0
15	Nonet	46	46	1342	6	0	0	1115277	692	0	correct_rejection	NA	0
15	Nonet	47	47	1343	0	1	2	1115986	692	1	hit	474	0
15	Nonet	48	48	1344	4	0	0	1116694	692	0	correct_rejection	NA	0
15	Nonet	49	49	1345	5	0	0	1117403	692	0	correct_rejection	NA	0
15	Nonet	50	50	1346	6	0	0	1118112	691	0	correct_rejection	NA	0
15	Nonet	51	51	1347	4	0	0	1118820	692	0	correct_rejection	NA	0
15	Nonet	52	52	1348	5	0	0	1119529	691	0	correct_rejection	NA	0
15	Nonet	53	53	1349	0	1	1	1120237	692	1	hit	328	0
15	Nonet	54	54	1350	6	0	0	1120946	692	0	correct_rejection	NA	0
15	Nonet	55	55	1351	4	0	0	1121654	692	0	correct_rejection	NA	0
15	Nonet	56	56	1352	5	0	0	1122363	692	0	correct_rejection	NA	0
15	Nonet	57	57	1353	6	0	0	1123072	691	0	correct_rejection	NA	0
15	Nonet	58	58	1354	4	0	0	1123780	692	0	correct_rejection	NA	0
15	Nonet	59	59	1355	5	0	0	1124489	691	0	correct_rejection	NA	0
15	Nonet	60	60	1356	6	0	0	1125197	692	0	correct_rejection	NA	0
15	Nonet	61	61	1357	7	0	0	1125906	692	0	correct_rejection	NA	0
15	Nonet	62	62	1358	8	0	0	1126614	692	0	correct_rejection	NA	0
15	Nonet	63	63	1359	9	0	0	1127323	692	0	correct_rejection	NA	0
15	Nonet	64	64	1360	7	0	0	1128032	691	0	correct_rejection	NA	0
15	Nonet	65	65	1361	8	0	0	1128740	692	0	correct_rejection	NA	0
15	Nonet	66	66	1362	0	1	1	1129449	691	1	hit	352	0
15	Nonet	67	67	1363	9	0	0	1130157	692	0	correct_rejection	NA	0
15	Nonet	68	68	1364	7	0	0	1130866	692	0	correct_rejection	NA	0
15	Nonet	69	69	1365	8	0	0	1131574	692	0	correct_rejection	NA	0
15	Nonet	70	70	1366	9	0	0	1132283	692	0	correct_rejection	NA	0
15	Nonet	71	71	1367	4	0	0	1132992	691	0	correct_rejection	NA	0
15	Nonet	72	72	1368	5	0	0	1133700	692	0	correct_rejection	NA	0
15	Nonet	73	73	1369	6	0	0	1134409	691	0	correct_rejection	NA	0
15	Nonet	74	74	1370	4	0	0	1135117	692	0	correct_rejection	NA	0
15	Nonet	75	75	1371	5	0	0	1135826	692	0	correct_rejection	NA	0
15	Nonet	76	76	1372	6	0	0	1136534	692	0	correct_rejection	NA	0
15	Nonet	77	77	1373	4	0	0	1137243	692	0	correct_rejection	NA	0
15	Nonet	78	78	1374	5	0	0	1137952	691	0	correct_rejection	NA	0
15	Nonet	79	79	1375	6	0	0	1138660	692	0	correct_rejection	NA	0
15	Nonet	80	80	1376	9	0	0	1139369	691	0	correct_rejection	NA	0
15	Nonet	81	81	1377	8	0	0	1140077	692	0	correct_rejection	NA	0
15	Nonet	82	82	1378	0	1	1	1140786	691	1	hit	338	0
15	Nonet	83	83	1379	7	0	0	1141494	692	0	correct_rejection	NA	0
15	Nonet	84	84	1380	9	0	0	1142203	692	0	correct_rejection	NA	0
15	Nonet	85	85	1381	8	0	0	1142912	691	0	correct_rejection	NA	0
15	Nonet	86	86	1382	0	1	1	1143620	692	1	hit	380	0
15	Nonet	87	87	1383	7	0	0	1144329	691	0	correct_rejection	NA	0
15	Nonet	88	88	1384	9	0	0	1145037	692	0	correct_rejection	NA	0
15	Nonet	89	89	1385	8	0	0	1145746	691	0	correct_rejection	NA	0
15	Nonet	90	90	1386	7	0	0	1146454	692	0	correct_rejection	NA	0
15	Nonet	91	91	1387	0	1	3	1147163	692	1	hit	299	0
15	Nonet	92	92	1388	9	0	0	1147871	692	0	correct_rejection	NA	0
15	Nonet	93	93	1389	8	0	0	1148580	692	0	correct_rejection	NA	0
15	Nonet	94	94	1390	7	0	0	1149289	691	0	correct_rejection	NA	0
15	Nonet	95	95	1391	9	0	0	1149997	692	0	correct_rejection	NA	0
15	Nonet	96	96	1392	8	0	0	1150706	691	0	correct_rejection	NA	0
15	Nonet	97	97	1393	7	0	0	1151414	692	0	correct_rejection	NA	0
15	Nonet	98	98	1394	9	0	0	1152123	692	0	correct_rejection	NA	0
15	Nonet	99	99	1395	8	0	0	1152831	692	0	correct_rejection	NA	0
15	Nonet	100	100	1396	7	0	0	1153540	692	0	correct_rejection	NA	0
15	Nonet	101	101	1397	7	0	0	1154249	691	0	correct_rejection	NA	0
15	Nonet	102	102	1398	0	1	1	1154957	692	1	hit	276	0
15	Nonet	103	103	1399	8	0	0	1155666	691	0	correct_rejection	NA	0
15	Nonet	104	104	1400	9	0	0	1156374	692	0	correct_rejection	NA	0
15	Nonet	105	105	1401	7	0	0	1157083	692	0	correct_rejection	NA	0
15	Nonet	106	106	1402	8	0	0	1157791	692	0	correct_rejection	NA	0
15	Nonet	107	107	1403	9	0	0	1158500	692	0	correct_rejection	NA	0
15	Nonet	108	108	1404	7	0	0	1159209	691	0	correct_rejection	NA	0
15	Nonet	109	109	1405	8	0	0	1159917	692	0	correct_rejection	NA	0
15	Nonet	110	110	1406	9	0	0	1160626	691	0	correct_rejection	NA	0
15	Nonet	111	111	1407	6	0	0	1161334	692	0	correct_rejection	NA	0
15	Nonet	112	112	1408	5	0	0	1162043	692	0	correct_rejection	NA	0
15	Nonet	113	113	1409	0	1	1	1162751	692	1	hit	334	0
15	Nonet	114	114	1410	4	0	0	1163460	692	0	correct_rejection	NA	0
15	Nonet	115	115	1411	6	0	0	1164169	691	0	correct_rejection	NA	0
15	Nonet	116	116	1412	5	0	0	1164877	692	0	correct_rejection	NA	0
15	Nonet	117	117	1413	4	0	0	1165586	691	0	correct_rejection	NA	0
15	Nonet	118	118	1414	0	1	2	1166294	692	1	hit	359	0
15	Nonet	119	119	1415	6	0	0	1167003	692	0	correct_rejection	NA	0
15	Nonet	120	120	1416	5	0	0	1167711	692	0	correct_rejection	NA	0
15	Nonet	121	121	1417	4	0	0	1168420	692	0	correct_rejection	NA	0
15	Nonet	122	122	1418	4	0	0	1169129	691	0	correct_rejection	NA	0
15	Nonet	123	123	1419	5	0	0	1169837	692	0	correct_rejection	NA	0
15	Nonet	124	124	1420	6	0	0	1170546	691	0	correct_rejection	NA	0
15	Nonet	125	125	1421	4	0	0	1171254	692	0	correct_rejection	NA	0
15	Nonet	126	126	1422	5	0	0	1171963	691	0	correct_rejection	NA	0
15	Nonet	127	127	1423	0	1	1	1172671	692	1	hit	360	0
15	Nonet	128	128	1424	6	0	0	1173380	692	0	correct_rejection	NA	0
15	Nonet	129	129	1425	4	0	0	1174089	691	0	correct_rejection	NA	0
15	Nonet	130	130	1426	0	1	1	1174797	692	1	hit	497	0
15	Nonet	131	131	1427	5	0	0	1175506	691	0	correct_rejection	NA	0
15	Nonet	132	132	1428	6	0	0	1176214	692	0	correct_rejection	NA	0
15	Nonet	133	133	1429	6	0	0	1176923	691	0	correct_rejection	NA	0
15	Nonet	134	134	1430	5	0	0	1177631	692	0	correct_rejection	NA	0
15	Nonet	135	135	1431	4	0	0	1178340	692	0	correct_rejection	NA	0
15	Nonet	136	136	1432	6	0	0	1179048	692	0	correct_rejection	NA	0
15	Nonet	137	137	1433	5	0	0	1179757	692	0	correct_rejection	NA	0
15	Nonet	138	138	1434	4	0	0	1180466	691	0	correct_rejection	NA	0
15	Nonet	139	139	1435	6	0	0	1181174	692	0	correct_rejection	NA	0
15	Nonet	140	140	1436	5	0	0	1181883	691	0	correct_rejection	NA	0
15	Nonet	141	141	1437	4	0	0	1182591	692	0	correct_rejection	NA	0
15	Nonet	142	142	1438	7	0	0	1183300	692	0	correct_rejection	NA	0
15	Nonet	143	143	1439	8	0	0	1184008	692	0	correct_rejection	NA	0
15	Nonet	144	144	1440	0	1	1	1184717	692	1	hit	402	0
15	Nonet	145	145	1441	9	0	0	1185426	691	0	correct_rejection	NA	0
15	Nonet	146	146	1442	7	0	0	1186134	692	0	correct_rejection	NA	0
15	Nonet	147	147	1443	8	0	0	1186843	691	0	correct_rejection	NA	0
15	Nonet	148	148	1444	9	0	0	1187551	692	0	correct_rejection	NA	0
15	Nonet	149	149	1445	0	1	2	1188260	692	1	hit	365	0
15	Nonet	150	150	1446	7	0	0	1188968	692	0	correct_rejection	NA	0
15	Nonet	151	151	1447	8	0	0	1189677	692	0	correct_rejection	NA	0
15	Nonet	152	152	1448	9	0	0	1190386	691	0	correct_rejection	NA	0
15	Nonet	153	153	1449	7	0	0	1191094	692	0	correct_rejection	NA	0
15	Nonet	154	154	1450	8	0	0	1191803	691	0	correct_rejection	NA	0
15	Nonet	155	155	1451	9	0	0	1192511	692	0	correct_rejection	NA	0
15	Nonet	156	156	1452	7	0	0	1193220	692	0	correct_rejection	NA	0
15	Nonet	157	157	1453	8	0	0	1193928	692	0	correct_rejection	NA	0
15	Nonet	158	158	1454	9	0	0	1194637	692	0	correct_rejection	NA	0
15	Nonet	159	159	1455	0	1	2	1195346	691	1	hit	304	0
15	Nonet	160	160	1456	7	0	0	1196054	692	0	correct_rejection	NA	0
15	Nonet	161	161	1457	8	0	0	1196763	691	0	correct_rejection	NA	0
15	Nonet	162	162	1458	9	0	0	1197471	692	0	correct_rejection	NA	0
15	Single	1	649	1459	8	0	0	1207291	692	0	correct_rejection	NA	7329
15	Single	2	650	1460	9	0	0	1208000	691	0	correct_rejection	NA	0
15	Single	3	651	1461	8	0	0	1208708	692	0	correct_rejection	NA	0
15	Single	4	652	1462	5	0	0	1209417	692	0	correct_rejection	NA	0
15	Single	5	653	1463	4	0	0	1210125	692	0	correct_rejection	NA	0
15	Single	6	654	1464	4	0	0	1210834	692	0	correct_rejection	NA	0
15	Single	7	655	1465	9	0	0	1211543	691	0	correct_rejection	NA	0
15	Single	8	656	1466	9	0	0	1212251	692	0	correct_rejection	NA	0
15	Single	9	657	1467	4	0	0	1212960	691	0	correct_rejection	NA	0
15	Single	10	658	1468	7	0	0	1213668	692	0	correct_rejection	NA	0
15	Single	11	659	1469	4	0	0	1214377	692	0	correct_rejection	NA	0
15	Single	12	660	1470	5	0	0	1215085	692	0	correct_rejection	NA	0
15	Single	13	661	1471	7	0	0	1215794	692	0	correct_rejection	NA	0
15	Single	14	662	1472	6	0	0	1216503	691	0	correct_rejection	NA	0
15	Single	15	663	1473	8	0	0	1217211	692	0	correct_rejection	NA	0
15	Single	16	664	1474	7	0	0	1217920	691	0	correct_rejection	NA	0
15	Single	17	665	1475	5	0	0	1218628	692	0	correct_rejection	NA	0
15	Single	18	666	1476	5	0	0	1219337	692	0	correct_rejection	NA	0
15	Single	19	667	1477	9	0	0	1220045	692	0	correct_rejection	NA	0
15	Single	20	668	1478	5	0	0	1220754	692	0	correct_rejection	NA	0
15	Single	21	669	1479	0	1	1	1221463	691	1	hit	331	0
15	Single	22	670	1480	8	0	0	1222171	692	0	correct_rejection	NA	0
15	Single	23	671	1481	6	0	0	1222880	691	0	correct_rejection	NA	0
15	Single	24	672	1482	5	0	0	1223588	692	0	correct_rejection	NA	0
15	Single	25	673	1483	6	0	0	1224297	692	0	correct_rejection	NA	0
15	Single	26	674	1484	6	0	0	1225005	692	0	correct_rejection	NA	0
15	Single	27	675	1485	7	0	0	1225714	692	0	correct_rejection	NA	0
15	Single	28	676	1486	9	0	0	1226423	691	0	correct_rejection	NA	0
15	Single	29	677	1487	6	0	0	1227131	692	0	correct_rejection	NA	0
15	Single	30	678	1488	9	0	0	1227840	691	0	correct_rejection	NA	0
15	Single	31	679	1489	7	0	0	1228548	692	0	correct_rejection	NA	0
15	Single	32	680	1490	7	0	0	1229257	691	0	correct_rejection	NA	0
15	Single	33	681	1491	0	1	1	1229965	692	1	hit	421	0
15	Single	34	682	1492	8	0	0	1230674	692	0	correct_rejection	NA	0
15	Single	35	683	1493	8	0	0	1231382	692	0	correct_rejection	NA	0
15	Single	36	684	1494	4	0	0	1232091	692	0	correct_rejection	NA	0
15	Single	37	685	1495	6	0	0	1232800	691	0	correct_rejection	NA	0
15	Single	38	686	1496	4	0	0	1233508	692	0	correct_rejection	NA	0
15	Single	39	687	1497	7	0	0	1234217	691	0	correct_rejection	NA	0
15	Single	40	688	1498	9	0	0	1234925	692	0	correct_rejection	NA	0
15	Single	41	689	1499	5	0	0	1235634	692	0	correct_rejection	NA	0
15	Single	42	690	1500	9	0	0	1236342	692	0	correct_rejection	NA	0
15	Single	43	691	1501	4	0	0	1237051	692	0	correct_rejection	NA	0
15	Single	44	692	1502	8	0	0	1237760	691	0	correct_rejection	NA	0
15	Single	45	693	1503	4	0	0	1238468	692	0	correct_rejection	NA	0
15	Single	46	694	1504	9	0	0	1239177	691	0	correct_rejection	NA	0
15	Single	47	695	1505	7	0	0	1239885	692	0	correct_rejection	NA	0
15	Single	48	696	1506	8	0	0	1240594	692	0	correct_rejection	NA	0
15	Single	49	697	1507	9	0	0	1241302	692	0	correct_rejection	NA	0
15	Single	50	698	1508	6	0	0	1242011	692	0	correct_rejection	NA	0
15	Single	51	699	1509	8	0	0	1242720	691	0	correct_rejection	NA	0
15	Single	52	700	1510	8	0	0	1243428	692	0	correct_rejection	NA	0
15	Single	53	701	1511	5	0	0	1244137	691	0	correct_rejection	NA	0
15	Single	54	702	1512	8	0	0	1244845	692	0	correct_rejection	NA	0
15	Single	55	703	1513	7	0	0	1245554	692	0	correct_rejection	NA	0
15	Single	56	704	1514	7	0	0	1246262	692	0	correct_rejection	NA	0
15	Single	57	705	1515	4	0	0	1246971	692	0	correct_rejection	NA	0
15	Single	58	706	1516	0	1	1	1247680	691	1	hit	406	0
15	Single	59	707	1517	4	0	0	1248388	692	0	correct_rejection	NA	0
15	Single	60	708	1518	6	0	0	1249097	691	0	correct_rejection	NA	0
15	Single	61	709	1519	5	0	0	1249805	692	0	correct_rejection	NA	0
15	Single	62	710	1520	4	0	0	1250514	692	0	correct_rejection	NA	0
15	Single	63	711	1521	7	0	0	1251222	692	0	correct_rejection	NA	0
15	Single	64	712	1522	6	0	0	1251931	692	0	correct_rejection	NA	0
15	Single	65	713	1523	6	0	0	1252640	691	0	correct_rejection	NA	0
15	Single	66	714	1524	9	0	0	1253348	692	0	correct_rejection	NA	0
15	Single	67	715	1525	0	1	1	1254057	691	1	hit	503	0
15	Single	68	716	1526	9	0	0	1254765	692	0	correct_rejection	NA	0
15	Single	69	717	1527	8	0	0	1255474	691	0	correct_rejection	NA	0
15	Single	70	718	1528	0	1	1	1256182	692	1	hit	412	0
15	Single	71	719	1529	6	0	0	1256891	692	0	correct_rejection	NA	0
15	Single	72	720	1530	4	0	0	1257600	691	0	correct_rejection	NA	0
15	Single	73	721	1531	5	0	0	1258308	692	0	correct_rejection	NA	0
15	Single	74	722	1532	5	0	0	1259017	691	0	correct_rejection	NA	0
15	Single	75	723	1533	0	1	1	1259725	692	1	hit	313	0
15	Single	76	724	1534	6	0	0	1260434	691	0	correct_rejection	NA	0
15	Single	77	725	1535	7	0	0	1261142	692	0	correct_rejection	NA	0
15	Single	78	726	1536	0	1	1	1261851	692	1	hit	337	0
15	Single	79	727	1537	5	0	0	1262559	692	0	correct_rejection	NA	0
15	Single	80	728	1538	5	0	0	1263268	692	0	correct_rejection	NA	0
15	Single	81	729	1539	4	0	0	1263977	691	0	correct_rejection	NA	0
15	Single	82	730	1540	0	1	1	1264685	692	1	hit	332	0
15	Single	83	731	1541	9	0	0	1265394	691	0	correct_rejection	NA	0
15	Single	84	732	1542	5	0	0	1266102	692	0	correct_rejection	NA	0
15	Single	85	733	1543	6	0	0	1266811	692	0	correct_rejection	NA	0
15	Single	86	734	1544	4	0	0	1267519	692	0	correct_rejection	NA	0
15	Single	87	735	1545	0	1	1	1268228	692	1	hit	402	0
15	Single	88	736	1546	7	0	0	1268937	691	0	correct_rejection	NA	0
15	Single	89	737	1547	9	0	0	1269645	692	0	correct_rejection	NA	0
15	Single	90	738	1548	8	0	0	1270354	691	0	correct_rejection	NA	0
15	Single	91	739	1549	8	0	0	1271062	692	0	correct_rejection	NA	0
15	Single	92	740	1550	7	0	0	1271771	692	0	correct_rejection	NA	0
15	Single	93	741	1551	8	0	0	1272479	692	0	correct_rejection	NA	0
15	Single	94	742	1552	0	1	1	1273188	692	1	hit	608	0
15	Single	95	743	1553	4	0	0	1273897	691	0	correct_rejection	NA	0
15	Single	96	744	1554	8	0	0	1274605	692	0	correct_rejection	NA	0
15	Single	97	745	1555	5	0	0	1275314	691	0	correct_rejection	NA	0
15	Single	98	746	1556	5	0	0	1276022	692	0	correct_rejection	NA	0
15	Single	99	747	1557	8	0	0	1276731	692	0	correct_rejection	NA	0
15	Single	100	748	1558	9	0	0	1277439	692	0	correct_rejection	NA	0
15	Single	101	749	1559	4	0	0	1278148	692	0	correct_rejection	NA	0
15	Single	102	750	1560	4	0	0	1278857	691	0	correct_rejection	NA	0
15	Single	103	751	1561	0	1	1	1279565	692	1	hit	516	0
15	Single	104	752	1562	5	0	0	1280274	691	0	correct_rejection	NA	0
15	Single	105	753	1563	9	0	0	1280982	692	0	correct_rejection	NA	0
15	Single	106	754	1564	9	0	0	1281691	692	0	correct_rejection	NA	0
15	Single	107	755	1565	7	0	0	1282399	692	0	correct_rejection	NA	0
15	Single	108	756	1566	6	0	0	1283108	692	0	correct_rejection	NA	0
15	Single	109	757	1567	7	0	0	1283817	691	0	correct_rejection	NA	0
15	Single	110	758	1568	7	0	0	1284525	692	0	correct_rejection	NA	0
15	Single	111	759	1569	5	0	0	1285234	691	0	correct_rejection	NA	0
15	Single	112	760	1570	0	1	1	1285942	692	1	hit	315	0
15	Single	113	761	1571	7	0	0	1286651	691	0	correct_rejection	NA	0
15	Single	114	762	1572	4	0	0	1287359	692	0	correct_rejection	NA	0
15	Single	115	763	1573	6	0	0	1288068	692	0	correct_rejection	NA	0
15	Single	116	764	1574	9	0	0	1288776	692	0	correct_rejection	NA	0
15	Single	117	765	1575	6	0	0	1289485	692	0	correct_rejection	NA	0
15	Single	118	766	1576	6	0	0	1290194	691	0	correct_rejection	NA	0
15	Single	119	767	1577	8	0	0	1290902	692	0	correct_rejection	NA	0
15	Single	120	768	1578	6	0	0	1291611	691	0	correct_rejection	NA	0
15	Single	121	769	1579	0	1	1	1292319	692	1	hit	323	0
15	Single	122	770	1580	7	0	0	1293028	692	0	correct_rejection	NA	0
15	Single	123	771	1581	7	0	0	1293736	692	0	correct_rejection	NA	0
15	Single	124	772	1582	8	0	0	1294445	692	0	correct_rejection	NA	0
15	Single	125	773	1583	7	0	0	1295154	691	0	correct_rejection	NA	0
15	Single	126	774	1584	6	0	0	1295862	692	0	correct_rejection	NA	0
15	Single	127	775	1585	9	0	0	1296571	691	0	correct_rejection	NA	0
15	Single	128	776	1586	7	0	0	1297279	692	0	correct_rejection	NA	0
15	Single	129	777	1587	0	1	1	1297988	692	1	hit	333	0
15	Single	130	778	1588	4	0	0	1298696	692	0	correct_rejection	NA	0
15	Single	131	779	1589	9	0	0	1299405	692	0	correct_rejection	NA	0
15	Single	132	780	1590	6	0	0	1300114	691	0	correct_rejection	NA	0
15	Single	133	781	1591	5	0	0	1300822	692	0	correct_rejection	NA	0
15	Single	134	782	1592	6	0	0	1301531	691	0	correct_rejection	NA	0
15	Single	135	783	1593	0	1	1	1302239	692	1	hit	389	0
15	Single	136	784	1594	6	0	0	1302948	692	0	correct_rejection	NA	0
15	Single	137	785	1595	7	0	0	1303656	692	0	correct_rejection	NA	0
15	Single	138	786	1596	9	0	0	1304365	692	0	correct_rejection	NA	0
15	Single	139	787	1597	9	0	0	1305074	691	0	correct_rejection	NA	0
15	Single	140	788	1598	4	0	0	1305782	692	0	correct_rejection	NA	0
15	Single	141	789	1599	5	0	0	1306491	691	0	correct_rejection	NA	0
15	Single	142	790	1600	8	0	0	1307199	692	0	correct_rejection	NA	0
15	Single	143	791	1601	6	0	0	1307908	692	0	correct_rejection	NA	0
15	Single	144	792	1602	8	0	0	1308616	692	0	correct_rejection	NA	0
15	Single	145	793	1603	9	0	0	1309325	692	0	correct_rejection	NA	0
