ID	block	trial_block	trial_cat	trial_total	number	violation	level_violation	onset	duration	Response	Hit_Miss	RT	pre_trial_fixcross_ISI
first_trigger_at: 11425
trigger nr 10 at 20425
16	Correct	1	1	1	4	0	0	27559	691	0	correct_rejection	NA	7099
16	Correct	2	2	2	5	0	0	28267	692	0	correct_rejection	NA	0
16	Correct	3	3	3	6	0	0	28976	691	0	correct_rejection	NA	0
16	Correct	4	4	4	0	1	2	29684	692	1	hit	446	0
16	Correct	5	5	5	4	0	0	30393	692	0	correct_rejection	NA	0
16	Correct	6	6	6	5	0	0	31101	692	0	correct_rejection	NA	0
16	Correct	7	7	7	6	0	0	31810	692	0	correct_rejection	NA	0
16	Correct	8	8	8	4	0	0	32519	691	0	correct_rejection	NA	0
16	Correct	9	9	9	5	0	0	33227	692	0	correct_rejection	NA	0
16	Correct	10	10	10	6	0	0	33936	691	0	correct_rejection	NA	0
16	Correct	11	11	11	0	1	3	34644	692	1	hit	309	0
16	Correct	12	12	12	6	0	0	35353	692	0	correct_rejection	NA	0
16	Correct	13	13	13	5	0	0	36061	692	0	correct_rejection	NA	0
16	Correct	14	14	14	4	0	0	36770	692	0	correct_rejection	NA	0
16	Correct	15	15	15	6	0	0	37479	691	0	correct_rejection	NA	0
16	Correct	16	16	16	0	1	1	38187	692	1	hit	447	0
16	Correct	17	17	17	5	0	0	38896	691	0	correct_rejection	NA	0
16	Correct	18	18	18	4	0	0	39604	692	0	correct_rejection	NA	0
16	Correct	19	19	19	6	0	0	40313	691	0	correct_rejection	NA	0
16	Correct	20	20	20	5	0	0	41021	692	0	correct_rejection	NA	0
16	Correct	21	21	21	4	0	0	41730	692	0	correct_rejection	NA	0
16	Correct	22	22	22	9	0	0	42439	691	0	correct_rejection	NA	0
16	Correct	23	23	23	8	0	0	43147	692	0	correct_rejection	NA	0
16	Correct	24	24	24	7	0	0	43856	691	0	correct_rejection	NA	0
16	Correct	25	25	25	9	0	0	44564	692	0	correct_rejection	NA	0
16	Correct	26	26	26	8	0	0	45273	691	0	correct_rejection	NA	0
16	Correct	27	27	27	7	0	0	45981	692	0	correct_rejection	NA	0
16	Correct	28	28	28	0	1	2	46690	692	1	hit	307	0
16	Correct	29	29	29	9	0	0	47398	692	0	correct_rejection	NA	0
16	Correct	30	30	30	8	0	0	48107	692	0	correct_rejection	NA	0
16	Correct	31	31	31	7	0	0	48816	691	0	correct_rejection	NA	0
16	Correct	32	32	32	7	0	0	49524	692	0	correct_rejection	NA	0
16	Correct	33	33	33	8	0	0	50233	691	0	correct_rejection	NA	0
16	Correct	34	34	34	9	0	0	50941	692	0	correct_rejection	NA	0
16	Correct	35	35	35	7	0	0	51650	692	0	correct_rejection	NA	0
16	Correct	36	36	36	8	0	0	52358	692	0	correct_rejection	NA	0
16	Correct	37	37	37	9	0	0	53067	692	0	correct_rejection	NA	0
16	Correct	38	38	38	7	0	0	53776	691	0	correct_rejection	NA	0
16	Correct	39	39	39	8	0	0	54484	692	0	correct_rejection	NA	0
16	Correct	40	40	40	9	0	0	55193	691	0	correct_rejection	NA	0
16	Correct	41	41	41	0	1	4	55901	692	1	hit	442	0
16	Correct	42	42	42	4	0	0	56610	692	0	correct_rejection	NA	0
16	Correct	43	43	43	5	0	0	57318	692	0	correct_rejection	NA	0
16	Correct	44	44	44	0	1	1	58027	692	1	hit	421	0
16	Correct	45	45	45	6	0	0	58736	691	0	correct_rejection	NA	0
16	Correct	46	46	46	4	0	0	59444	692	0	correct_rejection	NA	0
16	Correct	47	47	47	5	0	0	60153	691	0	correct_rejection	NA	0
16	Correct	48	48	48	6	0	0	60861	692	0	correct_rejection	NA	0
16	Correct	49	49	49	4	0	0	61570	692	0	correct_rejection	NA	0
16	Correct	50	50	50	5	0	0	62278	692	0	correct_rejection	NA	0
16	Correct	51	51	51	6	0	0	62987	692	0	correct_rejection	NA	0
16	Correct	52	52	52	6	0	0	63696	691	0	correct_rejection	NA	0
16	Correct	53	53	53	5	0	0	64404	692	0	correct_rejection	NA	0
16	Correct	54	54	54	4	0	0	65113	691	0	correct_rejection	NA	0
16	Correct	55	55	55	6	0	0	65821	692	0	correct_rejection	NA	0
16	Correct	56	56	56	5	0	0	66530	691	0	correct_rejection	NA	0
16	Correct	57	57	57	4	0	0	67238	692	0	correct_rejection	NA	0
16	Correct	58	58	58	6	0	0	67947	692	0	correct_rejection	NA	0
16	Correct	59	59	59	5	0	0	68656	691	0	correct_rejection	NA	0
16	Correct	60	60	60	4	0	0	69364	692	0	correct_rejection	NA	0
16	Correct	61	61	61	9	0	0	70073	691	0	correct_rejection	NA	0
16	Correct	62	62	62	8	0	0	70781	692	0	correct_rejection	NA	0
16	Correct	63	63	63	7	0	0	71490	691	0	correct_rejection	NA	0
16	Correct	64	64	64	9	0	0	72198	692	0	correct_rejection	NA	0
16	Correct	65	65	65	8	0	0	72907	692	0	correct_rejection	NA	0
16	Correct	66	66	66	7	0	0	73615	692	0	correct_rejection	NA	0
16	Correct	67	67	67	9	0	0	74324	692	0	correct_rejection	NA	0
16	Correct	68	68	68	8	0	0	75033	691	0	correct_rejection	NA	0
16	Correct	69	69	69	7	0	0	75741	692	0	correct_rejection	NA	0
16	Correct	70	70	70	7	0	0	76450	691	0	correct_rejection	NA	0
16	Correct	71	71	71	8	0	0	77158	692	0	correct_rejection	NA	0
16	Correct	72	72	72	9	0	0	77867	692	0	correct_rejection	NA	0
16	Correct	73	73	73	7	0	0	78575	692	0	correct_rejection	NA	0
16	Correct	74	74	74	8	0	0	79284	692	0	correct_rejection	NA	0
16	Correct	75	75	75	9	0	0	79993	691	0	correct_rejection	NA	0
16	Correct	76	76	76	7	0	0	80701	692	0	correct_rejection	NA	0
16	Correct	77	77	77	8	0	0	81410	691	0	correct_rejection	NA	0
16	Correct	78	78	78	9	0	0	82118	692	0	correct_rejection	NA	0
16	Correct	79	79	79	4	0	0	82827	692	0	correct_rejection	NA	0
16	Correct	80	80	80	0	1	1	83535	692	1	hit	475	0
16	Correct	81	81	81	5	0	0	84244	692	0	correct_rejection	NA	0
16	Correct	82	82	82	6	0	0	84953	691	0	correct_rejection	NA	0
16	Correct	83	83	83	4	0	0	85661	692	0	correct_rejection	NA	0
16	Correct	84	84	84	5	0	0	86370	691	0	correct_rejection	NA	0
16	Correct	85	85	85	6	0	0	87078	692	0	correct_rejection	NA	0
16	Correct	86	86	86	4	0	0	87787	692	0	correct_rejection	NA	0
16	Correct	87	87	87	0	1	1	88495	692	1	hit	405	0
16	Correct	88	88	88	5	0	0	89204	692	0	correct_rejection	NA	0
16	Correct	89	89	89	6	0	0	89913	691	0	correct_rejection	NA	0
16	Correct	90	90	90	6	0	0	90621	692	0	correct_rejection	NA	0
16	Correct	91	91	91	5	0	0	91330	691	0	correct_rejection	NA	0
16	Correct	92	92	92	0	1	1	92038	692	1	hit	397	0
16	Correct	93	93	93	4	0	0	92747	691	0	correct_rejection	NA	0
16	Correct	94	94	94	6	0	0	93455	692	0	correct_rejection	NA	0
16	Correct	95	95	95	5	0	0	94164	692	0	correct_rejection	NA	0
16	Correct	96	96	96	0	1	1	94873	691	1	hit	331	0
16	Correct	97	97	97	4	0	0	95581	692	0	correct_rejection	NA	0
16	Correct	98	98	98	6	0	0	96290	691	0	correct_rejection	NA	0
16	Correct	99	99	99	5	0	0	96998	692	0	correct_rejection	NA	0
16	Correct	100	100	100	4	0	0	97707	691	0	correct_rejection	NA	0
16	Correct	101	101	101	9	0	0	98415	692	0	correct_rejection	NA	0
16	Correct	102	102	102	0	1	1	99124	692	1	hit	442	0
16	Correct	103	103	103	8	0	0	99832	692	0	correct_rejection	NA	0
16	Correct	104	104	104	7	0	0	100541	692	0	correct_rejection	NA	0
16	Correct	105	105	105	9	0	0	101250	691	0	correct_rejection	NA	0
16	Correct	106	106	106	8	0	0	101958	692	0	correct_rejection	NA	0
16	Correct	107	107	107	7	0	0	102667	691	0	correct_rejection	NA	0
16	Correct	108	108	108	9	0	0	103375	692	0	correct_rejection	NA	0
16	Correct	109	109	109	8	0	0	104084	692	0	correct_rejection	NA	0
16	Correct	110	110	110	0	1	1	104792	692	1	hit	354	0
16	Correct	111	111	111	7	0	0	105501	692	0	correct_rejection	NA	0
16	Correct	112	112	112	7	0	0	106210	691	0	correct_rejection	NA	0
16	Correct	113	113	113	8	0	0	106918	692	0	correct_rejection	NA	0
16	Correct	114	114	114	9	0	0	107627	691	0	correct_rejection	NA	0
16	Correct	115	115	115	7	0	0	108335	692	0	correct_rejection	NA	0
16	Correct	116	116	116	8	0	0	109044	692	0	correct_rejection	NA	0
16	Correct	117	117	117	9	0	0	109752	692	0	correct_rejection	NA	0
16	Correct	118	118	118	7	0	0	110461	692	0	correct_rejection	NA	0
16	Correct	119	119	119	8	0	0	111170	691	0	correct_rejection	NA	0
16	Correct	120	120	120	0	1	1	111878	692	1	hit	392	0
16	Correct	121	121	121	9	0	0	112587	691	0	correct_rejection	NA	0
16	Correct	122	122	122	4	0	0	113295	692	0	correct_rejection	NA	0
16	Correct	123	123	123	5	0	0	114004	692	0	correct_rejection	NA	0
16	Correct	124	124	124	6	0	0	114712	692	0	correct_rejection	NA	0
16	Correct	125	125	125	4	0	0	115421	692	0	correct_rejection	NA	0
16	Correct	126	126	126	5	0	0	116130	691	0	correct_rejection	NA	0
16	Correct	127	127	127	6	0	0	116838	692	0	correct_rejection	NA	0
16	Correct	128	128	128	4	0	0	117547	691	0	correct_rejection	NA	0
16	Correct	129	129	129	5	0	0	118255	692	0	correct_rejection	NA	0
16	Correct	130	130	130	0	1	1	118964	691	1	hit	348	0
16	Correct	131	131	131	6	0	0	119672	692	0	correct_rejection	NA	0
16	Correct	132	132	132	6	0	0	120381	692	0	correct_rejection	NA	0
16	Correct	133	133	133	0	1	1	121089	692	1	hit	382	0
16	Correct	134	134	134	5	0	0	121798	692	0	correct_rejection	NA	0
16	Correct	135	135	135	4	0	0	122507	691	0	correct_rejection	NA	0
16	Correct	136	136	136	6	0	0	123215	692	0	correct_rejection	NA	0
16	Correct	137	137	137	5	0	0	123924	691	0	correct_rejection	NA	0
16	Correct	138	138	138	4	0	0	124632	692	0	correct_rejection	NA	0
16	Correct	139	139	139	0	1	2	125341	692	1	hit	360	0
16	Correct	140	140	140	6	0	0	126049	692	0	correct_rejection	NA	0
16	Correct	141	141	141	5	0	0	126758	692	0	correct_rejection	NA	0
16	Correct	142	142	142	4	0	0	127467	691	0	correct_rejection	NA	0
16	Correct	143	143	143	9	0	0	128175	692	0	correct_rejection	NA	0
16	Correct	144	144	144	8	0	0	128884	691	0	correct_rejection	NA	0
16	Correct	145	145	145	7	0	0	129592	692	0	correct_rejection	NA	0
16	Correct	146	146	146	9	0	0	130301	692	0	correct_rejection	NA	0
16	Correct	147	147	147	8	0	0	131009	692	0	correct_rejection	NA	0
16	Correct	148	148	148	7	0	0	131718	692	0	correct_rejection	NA	0
16	Correct	149	149	149	9	0	0	132427	691	0	correct_rejection	NA	0
16	Correct	150	150	150	0	1	1	133135	692	1	hit	487	0
16	Correct	151	151	151	8	0	0	133844	691	0	correct_rejection	NA	0
16	Correct	152	152	152	7	0	0	134552	692	0	correct_rejection	NA	0
16	Correct	153	153	153	7	0	0	135261	692	0	correct_rejection	NA	0
16	Correct	154	154	154	8	0	0	135969	692	0	correct_rejection	NA	0
16	Correct	155	155	155	9	0	0	136678	692	0	correct_rejection	NA	0
16	Correct	156	156	156	0	1	2	137387	691	1	hit	456	0
16	Correct	157	157	157	7	0	0	138095	692	0	correct_rejection	NA	0
16	Correct	158	158	158	8	0	0	138804	691	0	correct_rejection	NA	0
16	Correct	159	159	159	9	0	0	139512	692	0	correct_rejection	NA	0
16	Correct	160	160	160	7	0	0	140221	692	0	correct_rejection	NA	0
16	Correct	161	161	161	8	0	0	140929	692	0	correct_rejection	NA	0
16	Correct	162	162	162	9	0	0	141638	692	0	correct_rejection	NA	0
16	Triplet	1	649	163	4	0	0	151183	691	0	correct_rejection	NA	7719
16	Triplet	2	650	164	5	0	0	151891	692	0	correct_rejection	NA	0
16	Triplet	3	651	165	6	0	0	152600	692	0	correct_rejection	NA	0
16	Triplet	4	652	166	6	0	0	153308	692	0	correct_rejection	NA	0
16	Triplet	5	653	167	5	0	0	154017	692	0	correct_rejection	NA	0
16	Triplet	6	654	168	4	0	0	154726	691	0	correct_rejection	NA	0
16	Triplet	7	655	169	4	0	0	155434	692	0	correct_rejection	NA	0
16	Triplet	8	656	170	5	0	0	156143	691	0	correct_rejection	NA	0
16	Triplet	9	657	171	6	0	0	156851	692	0	correct_rejection	NA	0
16	Triplet	10	658	172	9	0	0	157560	692	0	correct_rejection	NA	0
16	Triplet	11	659	173	0	1	1	158268	692	1	hit	405	0
16	Triplet	12	660	174	8	0	0	158977	692	0	correct_rejection	NA	0
16	Triplet	13	661	175	7	0	0	159686	691	0	correct_rejection	NA	0
16	Triplet	14	662	176	6	0	0	160394	692	0	correct_rejection	NA	0
16	Triplet	15	663	177	0	1	1	161103	691	1	hit	389	0
16	Triplet	16	664	178	5	0	0	161811	692	0	correct_rejection	NA	0
16	Triplet	17	665	179	4	0	0	162520	692	0	correct_rejection	NA	0
16	Triplet	18	666	180	6	0	0	163228	692	0	correct_rejection	NA	0
16	Triplet	19	667	181	5	0	0	163937	692	0	correct_rejection	NA	0
16	Triplet	20	668	182	4	0	0	164646	691	0	correct_rejection	NA	0
16	Triplet	21	669	183	7	0	0	165354	692	0	correct_rejection	NA	0
16	Triplet	22	670	184	8	0	0	166063	691	0	correct_rejection	NA	0
16	Triplet	23	671	185	9	0	0	166771	692	0	correct_rejection	NA	0
16	Triplet	24	672	186	6	0	0	167480	692	0	correct_rejection	NA	0
16	Triplet	25	673	187	0	1	1	168188	692	1	hit	408	0
16	Triplet	26	674	188	5	0	0	168897	692	0	correct_rejection	NA	0
16	Triplet	27	675	189	4	0	0	169606	691	0	correct_rejection	NA	0
16	Triplet	28	676	190	9	0	0	170314	692	0	correct_rejection	NA	0
16	Triplet	29	677	191	8	0	0	171023	691	0	correct_rejection	NA	0
16	Triplet	30	678	192	7	0	0	171731	692	0	correct_rejection	NA	0
16	Triplet	31	679	193	7	0	0	172440	691	0	correct_rejection	NA	0
16	Triplet	32	680	194	8	0	0	173148	692	0	correct_rejection	NA	0
16	Triplet	33	681	195	9	0	0	173857	692	0	correct_rejection	NA	0
16	Triplet	34	682	196	4	0	0	174566	691	0	correct_rejection	NA	0
16	Triplet	35	683	197	5	0	0	175274	692	0	correct_rejection	NA	0
16	Triplet	36	684	198	6	0	0	175983	691	0	correct_rejection	NA	0
16	Triplet	37	685	199	4	0	0	176691	692	0	correct_rejection	NA	0
16	Triplet	38	686	200	5	0	0	177400	691	0	correct_rejection	NA	0
16	Triplet	39	687	201	0	1	1	178108	692	1	hit	371	0
16	Triplet	40	688	202	6	0	0	178817	692	0	correct_rejection	NA	0
16	Triplet	41	689	203	7	0	0	179525	692	0	correct_rejection	NA	0
16	Triplet	42	690	204	8	0	0	180234	692	0	correct_rejection	NA	0
16	Triplet	43	691	205	9	0	0	180943	691	0	correct_rejection	NA	0
16	Triplet	44	692	206	7	0	0	181651	692	0	correct_rejection	NA	0
16	Triplet	45	693	207	8	0	0	182360	691	0	correct_rejection	NA	0
16	Triplet	46	694	208	9	0	0	183068	692	0	correct_rejection	NA	0
16	Triplet	47	695	209	9	0	0	183777	692	0	correct_rejection	NA	0
16	Triplet	48	696	210	8	0	0	184485	692	0	correct_rejection	NA	0
16	Triplet	49	697	211	0	1	1	185194	692	1	hit	455	0
16	Triplet	50	698	212	7	0	0	185903	691	0	correct_rejection	NA	0
16	Triplet	51	699	213	9	0	0	186611	692	0	correct_rejection	NA	0
16	Triplet	52	700	214	8	0	0	187320	691	0	correct_rejection	NA	0
16	Triplet	53	701	215	7	0	0	188028	692	0	correct_rejection	NA	0
16	Triplet	54	702	216	7	0	0	188737	692	0	correct_rejection	NA	0
16	Triplet	55	703	217	0	1	1	189445	692	1	hit	426	0
16	Triplet	56	704	218	8	0	0	190154	692	0	correct_rejection	NA	0
16	Triplet	57	705	219	9	0	0	190863	691	0	correct_rejection	NA	0
16	Triplet	58	706	220	7	0	0	191571	692	0	correct_rejection	NA	0
16	Triplet	59	707	221	8	0	0	192280	691	0	correct_rejection	NA	0
16	Triplet	60	708	222	0	1	1	192988	692	1	hit	358	0
16	Triplet	61	709	223	9	0	0	193697	692	0	correct_rejection	NA	0
16	Triplet	62	710	224	6	0	0	194405	692	0	correct_rejection	NA	0
16	Triplet	63	711	225	5	0	0	195114	692	0	correct_rejection	NA	0
16	Triplet	64	712	226	4	0	0	195823	691	0	correct_rejection	NA	0
16	Triplet	65	713	227	6	0	0	196531	692	0	correct_rejection	NA	0
16	Triplet	66	714	228	5	0	0	197240	691	0	correct_rejection	NA	0
16	Triplet	67	715	229	4	0	0	197948	692	0	correct_rejection	NA	0
16	Triplet	68	716	230	0	1	2	198657	691	1	hit	342	0
16	Triplet	69	717	231	4	0	0	199365	692	0	correct_rejection	NA	0
16	Triplet	70	718	232	5	0	0	200074	692	0	correct_rejection	NA	0
16	Triplet	71	719	233	6	0	0	200783	691	0	correct_rejection	NA	0
16	Triplet	72	720	234	4	0	0	201491	692	0	correct_rejection	NA	0
16	Triplet	73	721	235	5	0	0	202200	691	0	correct_rejection	NA	0
16	Triplet	74	722	236	6	0	0	202908	692	0	correct_rejection	NA	0
16	Triplet	75	723	237	6	0	0	203617	691	0	correct_rejection	NA	0
16	Triplet	76	724	238	5	0	0	204325	692	0	correct_rejection	NA	0
16	Triplet	77	725	239	0	1	1	205034	692	1	hit	343	0
16	Triplet	78	726	240	4	0	0	205742	692	0	correct_rejection	NA	0
16	Triplet	79	727	241	7	0	0	206451	692	0	correct_rejection	NA	0
16	Triplet	80	728	242	8	0	0	207160	691	0	correct_rejection	NA	0
16	Triplet	81	729	243	9	0	0	207868	692	0	correct_rejection	NA	0
16	Triplet	82	730	244	4	0	0	208577	691	0	correct_rejection	NA	0
16	Triplet	83	731	245	5	0	0	209285	692	0	correct_rejection	NA	0
16	Triplet	84	732	246	6	0	0	209994	692	0	correct_rejection	NA	0
16	Triplet	85	733	247	9	0	0	210702	692	0	correct_rejection	NA	0
16	Triplet	86	734	248	8	0	0	211411	692	0	correct_rejection	NA	0
16	Triplet	87	735	249	7	0	0	212120	691	0	correct_rejection	NA	0
16	Triplet	88	736	250	9	0	0	212828	692	0	correct_rejection	NA	0
16	Triplet	89	737	251	8	0	0	213537	691	0	correct_rejection	NA	0
16	Triplet	90	738	252	7	0	0	214245	692	0	correct_rejection	NA	0
16	Triplet	91	739	253	7	0	0	214954	692	0	correct_rejection	NA	0
16	Triplet	92	740	254	8	0	0	215662	692	0	correct_rejection	NA	0
16	Triplet	93	741	255	9	0	0	216371	692	0	correct_rejection	NA	0
16	Triplet	94	742	256	9	0	0	217080	691	0	correct_rejection	NA	0
16	Triplet	95	743	257	8	0	0	217788	692	0	correct_rejection	NA	0
16	Triplet	96	744	258	7	0	0	218497	691	0	correct_rejection	NA	0
16	Triplet	97	745	259	6	0	0	219205	692	0	correct_rejection	NA	0
16	Triplet	98	746	260	5	0	0	219914	692	0	correct_rejection	NA	0
16	Triplet	99	747	261	4	0	0	220622	692	0	correct_rejection	NA	0
16	Triplet	100	748	262	9	0	0	221331	692	0	correct_rejection	NA	0
16	Triplet	101	749	263	8	0	0	222040	691	0	correct_rejection	NA	0
16	Triplet	102	750	264	0	1	1	222748	692	1	hit	361	0
16	Triplet	103	751	265	7	0	0	223457	691	0	correct_rejection	NA	0
16	Triplet	104	752	266	4	0	0	224165	692	0	correct_rejection	NA	0
16	Triplet	105	753	267	5	0	0	224874	691	0	correct_rejection	NA	0
16	Triplet	106	754	268	6	0	0	225582	692	0	correct_rejection	NA	0
16	Triplet	107	755	269	7	0	0	226291	692	0	correct_rejection	NA	0
16	Triplet	108	756	270	8	0	0	227000	691	0	correct_rejection	NA	0
16	Triplet	109	757	271	9	0	0	227708	692	0	correct_rejection	NA	0
16	Triplet	110	758	272	0	1	2	228417	691	1	hit	330	0
16	Triplet	111	759	273	9	0	0	229125	692	0	correct_rejection	NA	0
16	Triplet	112	760	274	8	0	0	229834	691	0	correct_rejection	NA	0
16	Triplet	113	761	275	7	0	0	230542	692	0	correct_rejection	NA	0
16	Triplet	114	762	276	4	0	0	231251	692	0	correct_rejection	NA	0
16	Triplet	115	763	277	5	0	0	231959	692	0	correct_rejection	NA	0
16	Triplet	116	764	278	6	0	0	232668	692	0	correct_rejection	NA	0
16	Triplet	117	765	279	0	1	2	233377	691	1	hit	405	0
16	Triplet	118	766	280	4	0	0	234085	692	0	correct_rejection	NA	0
16	Triplet	119	767	281	5	0	0	234794	691	0	correct_rejection	NA	0
16	Triplet	120	768	282	6	0	0	235502	692	0	correct_rejection	NA	0
16	Triplet	121	769	283	9	0	0	236211	692	0	correct_rejection	NA	0
16	Triplet	122	770	284	8	0	0	236919	692	0	correct_rejection	NA	0
16	Triplet	123	771	285	0	1	1	237628	692	1	hit	478	0
16	Triplet	124	772	286	7	0	0	238337	691	0	correct_rejection	NA	0
16	Triplet	125	773	287	7	0	0	239045	692	0	correct_rejection	NA	0
16	Triplet	126	774	288	8	0	0	239754	691	0	correct_rejection	NA	0
16	Triplet	127	775	289	9	0	0	240462	692	0	correct_rejection	NA	0
16	Triplet	128	776	290	0	1	2	241171	692	1	hit	373	0
16	Triplet	129	777	291	6	0	0	241879	692	0	correct_rejection	NA	0
16	Triplet	130	778	292	5	0	0	242588	692	0	correct_rejection	NA	0
16	Triplet	131	779	293	4	0	0	243297	691	0	correct_rejection	NA	0
16	Triplet	132	780	294	7	0	0	244005	692	0	correct_rejection	NA	0
16	Triplet	133	781	295	8	0	0	244714	691	0	correct_rejection	NA	0
16	Triplet	134	782	296	9	0	0	245422	692	0	correct_rejection	NA	0
16	Triplet	135	783	297	7	0	0	246131	692	0	correct_rejection	NA	0
16	Triplet	136	784	298	8	0	0	246839	692	0	correct_rejection	NA	0
16	Triplet	137	785	299	9	0	0	247548	692	0	correct_rejection	NA	0
16	Triplet	138	786	300	4	0	0	248257	691	0	correct_rejection	NA	0
16	Triplet	139	787	301	0	1	1	248965	692	1	hit	444	0
16	Triplet	140	788	302	5	0	0	249674	691	0	correct_rejection	NA	0
16	Triplet	141	789	303	6	0	0	250382	692	0	correct_rejection	NA	0
16	Triplet	142	790	304	0	1	2	251091	691	1	hit	450	0
16	Triplet	143	791	305	6	0	0	251799	692	0	correct_rejection	NA	0
16	Triplet	144	792	306	5	0	0	252508	692	0	correct_rejection	NA	0
16	Triplet	145	793	307	4	0	0	253217	691	0	correct_rejection	NA	0
16	Triplet	146	794	308	6	0	0	253925	692	0	correct_rejection	NA	0
16	Triplet	147	795	309	5	0	0	254634	691	0	correct_rejection	NA	0
16	Triplet	148	796	310	4	0	0	255342	692	0	correct_rejection	NA	0
16	Triplet	149	797	311	0	1	2	256051	691	1	hit	344	0
16	Triplet	150	798	312	9	0	0	256759	692	0	correct_rejection	NA	0
16	Triplet	151	799	313	8	0	0	257468	692	0	correct_rejection	NA	0
16	Triplet	152	800	314	7	0	0	258176	692	0	correct_rejection	NA	0
16	Triplet	153	801	315	0	1	2	258885	692	1	hit	390	0
16	Triplet	154	802	316	9	0	0	259594	691	0	correct_rejection	NA	0
16	Triplet	155	803	317	8	0	0	260302	692	0	correct_rejection	NA	0
16	Triplet	156	804	318	7	0	0	261011	691	0	correct_rejection	NA	0
16	Triplet	157	805	319	6	0	0	261719	692	0	correct_rejection	NA	0
16	Triplet	158	806	320	5	0	0	262428	692	0	correct_rejection	NA	0
16	Triplet	159	807	321	4	0	0	263136	692	0	correct_rejection	NA	0
16	Triplet	160	808	322	4	0	0	263845	692	0	correct_rejection	NA	0
16	Triplet	161	809	323	5	0	0	264554	691	0	correct_rejection	NA	0
16	Triplet	162	810	324	6	0	0	265262	692	0	correct_rejection	NA	0
16	Single	1	487	325	7	0	0	274607	692	0	correct_rejection	NA	7149
16	Single	2	488	326	4	0	0	275315	692	0	correct_rejection	NA	0
16	Single	3	489	327	5	0	0	276024	692	0	correct_rejection	NA	0
16	Single	4	490	328	0	1	1	276733	691	1	hit	379	0
16	Single	5	491	329	5	0	0	277441	692	0	correct_rejection	NA	0
16	Single	6	492	330	7	0	0	278150	691	0	correct_rejection	NA	0
16	Single	7	493	331	6	0	0	278858	692	0	correct_rejection	NA	0
16	Single	8	494	332	4	0	0	279567	692	0	correct_rejection	NA	0
16	Single	9	495	333	9	0	0	280275	692	0	correct_rejection	NA	0
16	Single	10	496	334	0	1	1	280984	692	1	hit	393	0
16	Single	11	497	335	5	0	0	281693	691	0	correct_rejection	NA	0
16	Single	12	498	336	9	0	0	282401	692	0	correct_rejection	NA	0
16	Single	13	499	337	0	1	1	283110	691	1	hit	358	0
16	Single	14	500	338	4	0	0	283818	692	0	correct_rejection	NA	0
16	Single	15	501	339	8	0	0	284527	692	0	correct_rejection	NA	0
16	Single	16	502	340	5	0	0	285235	692	0	correct_rejection	NA	0
16	Single	17	503	341	8	0	0	285944	692	0	correct_rejection	NA	0
16	Single	18	504	342	4	0	0	286653	691	0	correct_rejection	NA	0
16	Single	19	505	343	7	0	0	287361	692	0	correct_rejection	NA	0
16	Single	20	506	344	8	0	0	288070	691	0	correct_rejection	NA	0
16	Single	21	507	345	6	0	0	288778	692	0	correct_rejection	NA	0
16	Single	22	508	346	8	0	0	289487	692	0	correct_rejection	NA	0
16	Single	23	509	347	9	0	0	290195	692	0	correct_rejection	NA	0
16	Single	24	510	348	7	0	0	290904	692	0	correct_rejection	NA	0
16	Single	25	511	349	0	1	1	291613	691	1	hit	357	0
16	Single	26	512	350	5	0	0	292321	692	0	correct_rejection	NA	0
16	Single	27	513	351	6	0	0	293030	691	0	correct_rejection	NA	0
16	Single	28	514	352	9	0	0	293738	692	0	correct_rejection	NA	0
16	Single	29	515	353	6	0	0	294447	691	0	correct_rejection	NA	0
16	Single	30	516	354	6	0	0	295155	692	0	correct_rejection	NA	0
16	Single	31	517	355	5	0	0	295864	692	0	correct_rejection	NA	0
16	Single	32	518	356	4	0	0	296573	691	0	correct_rejection	NA	0
16	Single	33	519	357	4	0	0	297281	692	0	correct_rejection	NA	0
16	Single	34	520	358	0	1	1	297990	691	1	hit	366	0
16	Single	35	521	359	6	0	0	298698	692	0	correct_rejection	NA	0
16	Single	36	522	360	7	0	0	299407	691	0	correct_rejection	NA	0
16	Single	37	523	361	7	0	0	300115	692	0	correct_rejection	NA	0
16	Single	38	524	362	9	0	0	300824	692	0	correct_rejection	NA	0
16	Single	39	525	363	9	0	0	301532	692	0	correct_rejection	NA	0
16	Single	40	526	364	8	0	0	302241	692	0	correct_rejection	NA	0
16	Single	41	527	365	8	0	0	302950	691	0	correct_rejection	NA	0
16	Single	42	528	366	5	0	0	303658	692	0	correct_rejection	NA	0
16	Single	43	529	367	9	0	0	304367	691	0	correct_rejection	NA	0
16	Single	44	530	368	9	0	0	305075	692	0	correct_rejection	NA	0
16	Single	45	531	369	7	0	0	305784	692	0	correct_rejection	NA	0
16	Single	46	532	370	0	1	1	306492	692	1	hit	358	0
16	Single	47	533	371	9	0	0	307201	692	0	correct_rejection	NA	0
16	Single	48	534	372	5	0	0	307910	691	0	correct_rejection	NA	0
16	Single	49	535	373	5	0	0	308618	692	0	correct_rejection	NA	0
16	Single	50	536	374	0	1	1	309327	691	1	hit	390	0
16	Single	51	537	375	8	0	0	310035	692	0	correct_rejection	NA	0
16	Single	52	538	376	7	0	0	310744	692	0	correct_rejection	NA	0
16	Single	53	539	377	5	0	0	311452	692	0	correct_rejection	NA	0
16	Single	54	540	378	4	0	0	312161	692	0	correct_rejection	NA	0
16	Single	55	541	379	5	0	0	312870	691	0	correct_rejection	NA	0
16	Single	56	542	380	7	0	0	313578	692	0	correct_rejection	NA	0
16	Single	57	543	381	7	0	0	314287	691	0	correct_rejection	NA	0
16	Single	58	544	382	4	0	0	314995	692	0	correct_rejection	NA	0
16	Single	59	545	383	9	0	0	315704	692	0	correct_rejection	NA	0
16	Single	60	546	384	6	0	0	316412	692	0	correct_rejection	NA	0
16	Single	61	547	385	7	0	0	317121	692	0	correct_rejection	NA	0
16	Single	62	548	386	8	0	0	317830	691	0	correct_rejection	NA	0
16	Single	63	549	387	4	0	0	318538	692	0	correct_rejection	NA	0
16	Single	64	550	388	6	0	0	319247	691	0	correct_rejection	NA	0
16	Single	65	551	389	5	0	0	319955	692	0	correct_rejection	NA	0
16	Single	66	552	390	6	0	0	320664	691	0	correct_rejection	NA	0
16	Single	67	553	391	6	0	0	321372	692	0	correct_rejection	NA	0
16	Single	68	554	392	9	0	0	322081	692	0	correct_rejection	NA	0
16	Single	69	555	393	8	0	0	322789	692	0	correct_rejection	NA	0
16	Single	70	556	394	9	0	0	323498	692	0	correct_rejection	NA	0
16	Single	71	557	395	4	0	0	324207	691	0	correct_rejection	NA	0
16	Single	72	558	396	4	0	0	324915	692	0	correct_rejection	NA	0
16	Single	73	559	397	8	0	0	325624	691	0	correct_rejection	NA	0
16	Single	74	560	398	6	0	0	326332	692	0	correct_rejection	NA	0
16	Single	75	561	399	4	0	0	327041	692	0	correct_rejection	NA	0
16	Single	76	562	400	7	0	0	327749	692	0	correct_rejection	NA	0
16	Single	77	563	401	6	0	0	328458	692	0	correct_rejection	NA	0
16	Single	78	564	402	8	0	0	329167	691	0	correct_rejection	NA	0
16	Single	79	565	403	8	0	0	329875	692	0	correct_rejection	NA	0
16	Single	80	566	404	4	0	0	330584	691	0	correct_rejection	NA	0
16	Single	81	567	405	7	0	0	331292	692	0	correct_rejection	NA	0
16	Single	82	568	406	5	0	0	332001	692	0	correct_rejection	NA	0
16	Single	83	569	407	5	0	0	332709	692	0	correct_rejection	NA	0
16	Single	84	570	408	4	0	0	333418	692	0	correct_rejection	NA	0
16	Single	85	571	409	0	1	1	334127	691	1	hit	397	0
16	Single	86	572	410	8	0	0	334835	692	0	correct_rejection	NA	0
16	Single	87	573	411	9	0	0	335544	691	0	correct_rejection	NA	0
16	Single	88	574	412	0	1	1	336252	692	1	hit	403	0
16	Single	89	575	413	6	0	0	336961	692	0	correct_rejection	NA	0
16	Single	90	576	414	9	0	0	337669	692	0	correct_rejection	NA	0
16	Single	91	577	415	9	0	0	338378	692	0	correct_rejection	NA	0
16	Single	92	578	416	5	0	0	339087	691	0	correct_rejection	NA	0
16	Single	93	579	417	8	0	0	339795	692	0	correct_rejection	NA	0
16	Single	94	580	418	5	0	0	340504	691	0	correct_rejection	NA	0
16	Single	95	581	419	6	0	0	341212	692	0	correct_rejection	NA	0
16	Single	96	582	420	7	0	0	341921	692	0	correct_rejection	NA	0
16	Single	97	583	421	9	0	0	342629	692	0	correct_rejection	NA	0
16	Single	98	584	422	4	0	0	343338	692	0	correct_rejection	NA	0
16	Single	99	585	423	6	0	0	344047	691	0	correct_rejection	NA	0
16	Single	100	586	424	8	0	0	344755	692	0	correct_rejection	NA	0
16	Single	101	587	425	0	1	1	345464	691	1	hit	340	0
16	Single	102	588	426	4	0	0	346172	692	0	correct_rejection	NA	0
16	Single	103	589	427	5	0	0	346881	691	0	correct_rejection	NA	0
16	Single	104	590	428	9	0	0	347589	692	0	correct_rejection	NA	0
16	Single	105	591	429	8	0	0	348298	692	0	correct_rejection	NA	0
16	Single	106	592	430	7	0	0	349006	692	0	correct_rejection	NA	0
16	Single	107	593	431	0	1	1	349715	692	1	hit	473	0
16	Single	108	594	432	6	0	0	350424	691	0	correct_rejection	NA	0
16	Single	109	595	433	6	0	0	351132	692	0	correct_rejection	NA	0
16	Single	110	596	434	4	0	0	351841	691	0	correct_rejection	NA	0
16	Single	111	597	435	0	1	1	352549	692	1	hit	362	0
16	Single	112	598	436	4	0	0	353258	692	0	correct_rejection	NA	0
16	Single	113	599	437	9	0	0	353966	692	0	correct_rejection	NA	0
16	Single	114	600	438	7	0	0	354675	692	0	correct_rejection	NA	0
16	Single	115	601	439	7	0	0	355384	691	0	correct_rejection	NA	0
16	Single	116	602	440	0	1	1	356092	692	1	hit	347	0
16	Single	117	603	441	8	0	0	356801	691	0	correct_rejection	NA	0
16	Single	118	604	442	8	0	0	357509	692	0	correct_rejection	NA	0
16	Single	119	605	443	6	0	0	358218	692	0	correct_rejection	NA	0
16	Single	120	606	444	5	0	0	358926	692	0	correct_rejection	NA	0
16	Single	121	607	445	7	0	0	359635	692	0	correct_rejection	NA	0
16	Single	122	608	446	0	1	1	360344	691	1	hit	324	0
16	Single	123	609	447	7	0	0	361052	692	0	correct_rejection	NA	0
16	Single	124	610	448	8	0	0	361761	691	0	correct_rejection	NA	0
16	Single	125	611	449	5	0	0	362469	692	0	correct_rejection	NA	0
16	Single	126	612	450	0	1	1	363178	692	1	hit	375	0
16	Single	127	613	451	7	0	0	363886	692	0	correct_rejection	NA	0
16	Single	128	614	452	6	0	0	364595	692	0	correct_rejection	NA	0
16	Single	129	615	453	4	0	0	365304	691	0	correct_rejection	NA	0
16	Single	130	616	454	5	0	0	366012	692	0	correct_rejection	NA	0
16	Single	131	617	455	5	0	0	366721	691	0	correct_rejection	NA	0
16	Single	132	618	456	6	0	0	367429	692	0	correct_rejection	NA	0
16	Single	133	619	457	8	0	0	368138	691	0	correct_rejection	NA	0
16	Single	134	620	458	0	1	1	368846	692	1	hit	373	0
16	Single	135	621	459	6	0	0	369555	692	0	correct_rejection	NA	0
16	Single	136	622	460	9	0	0	370264	691	0	correct_rejection	NA	0
16	Single	137	623	461	4	0	0	370972	692	0	correct_rejection	NA	0
16	Single	138	624	462	8	0	0	371681	691	0	correct_rejection	NA	0
16	Single	139	625	463	7	0	0	372389	692	0	correct_rejection	NA	0
16	Single	140	626	464	0	1	1	373098	691	1	hit	372	0
16	Single	141	627	465	4	0	0	373806	692	0	correct_rejection	NA	0
16	Single	142	628	466	6	0	0	374515	692	0	correct_rejection	NA	0
16	Single	143	629	467	6	0	0	375223	692	0	correct_rejection	NA	0
16	Single	144	630	468	7	0	0	375932	692	0	correct_rejection	NA	0
16	Single	145	631	469	5	0	0	376641	691	0	correct_rejection	NA	0
16	Single	146	632	470	8	0	0	377349	692	0	correct_rejection	NA	0
16	Single	147	633	471	9	0	0	378058	691	0	correct_rejection	NA	0
16	Single	148	634	472	8	0	0	378766	692	0	correct_rejection	NA	0
16	Single	149	635	473	8	0	0	379475	692	0	correct_rejection	NA	0
16	Single	150	636	474	4	0	0	380183	692	0	correct_rejection	NA	0
16	Single	151	637	475	9	0	0	380892	692	0	correct_rejection	NA	0
16	Single	152	638	476	5	0	0	381601	691	0	correct_rejection	NA	0
16	Single	153	639	477	4	0	0	382309	692	0	correct_rejection	NA	0
16	Single	154	640	478	4	0	0	383018	691	0	correct_rejection	NA	0
16	Single	155	641	479	7	0	0	383726	692	0	correct_rejection	NA	0
16	Single	156	642	480	9	0	0	384435	692	0	correct_rejection	NA	0
16	Single	157	643	481	9	0	0	385143	692	0	correct_rejection	NA	0
16	Single	158	644	482	6	0	0	385852	692	0	correct_rejection	NA	0
16	Single	159	645	483	5	0	0	386561	691	0	correct_rejection	NA	0
16	Single	160	646	484	0	1	1	387269	692	1	hit	392	0
16	Single	161	647	485	9	0	0	387978	691	0	correct_rejection	NA	0
16	Single	162	648	486	7	0	0	388686	692	0	correct_rejection	NA	0
16	Nonet	1	487	487	7	0	0	398073	691	0	correct_rejection	NA	7619
16	Nonet	2	488	488	8	0	0	398781	692	0	correct_rejection	NA	0
16	Nonet	3	489	489	9	0	0	399490	692	0	correct_rejection	NA	0
16	Nonet	4	490	490	0	1	2	400198	692	1	hit	592	0
16	Nonet	5	491	491	7	0	0	400907	692	0	correct_rejection	NA	0
16	Nonet	6	492	492	8	0	0	401616	691	0	correct_rejection	NA	0
16	Nonet	7	493	493	9	0	0	402324	692	0	correct_rejection	NA	0
16	Nonet	8	494	494	7	0	0	403033	691	0	correct_rejection	NA	0
16	Nonet	9	495	495	8	0	0	403741	692	0	correct_rejection	NA	0
16	Nonet	10	496	496	9	0	0	404450	692	0	correct_rejection	NA	0
16	Nonet	11	497	497	7	0	0	405158	692	0	correct_rejection	NA	0
16	Nonet	12	498	498	8	0	0	405867	692	0	correct_rejection	NA	0
16	Nonet	13	499	499	0	1	1	406576	691	1	hit	370	0
16	Nonet	14	500	500	9	0	0	407284	692	0	correct_rejection	NA	0
16	Nonet	15	501	501	7	0	0	407993	691	0	correct_rejection	NA	0
16	Nonet	16	502	502	0	1	1	408701	692	1	hit	416	0
16	Nonet	17	503	503	8	0	0	409410	691	0	correct_rejection	NA	0
16	Nonet	18	504	504	9	0	0	410118	692	0	correct_rejection	NA	0
16	Nonet	19	505	505	7	0	0	410827	692	0	correct_rejection	NA	0
16	Nonet	20	506	506	8	0	0	411535	692	0	correct_rejection	NA	0
16	Nonet	21	507	507	9	0	0	412244	692	0	correct_rejection	NA	0
16	Nonet	22	508	508	9	0	0	412953	691	0	correct_rejection	NA	0
16	Nonet	23	509	509	8	0	0	413661	692	0	correct_rejection	NA	0
16	Nonet	24	510	510	7	0	0	414370	691	0	correct_rejection	NA	0
16	Nonet	25	511	511	9	0	0	415078	692	0	correct_rejection	NA	0
16	Nonet	26	512	512	8	0	0	415787	692	0	correct_rejection	NA	0
16	Nonet	27	513	513	7	0	0	416495	692	0	correct_rejection	NA	0
16	Nonet	28	514	514	9	0	0	417204	692	0	correct_rejection	NA	0
16	Nonet	29	515	515	0	1	1	417913	691	1	hit	358	0
16	Nonet	30	516	516	8	0	0	418621	692	0	correct_rejection	NA	0
16	Nonet	31	517	517	7	0	0	419330	691	0	correct_rejection	NA	0
16	Nonet	32	518	518	9	0	0	420038	692	0	correct_rejection	NA	0
16	Nonet	33	519	519	8	0	0	420747	692	0	correct_rejection	NA	0
16	Nonet	34	520	520	7	0	0	421455	692	0	correct_rejection	NA	0
16	Nonet	35	521	521	9	0	0	422164	692	0	correct_rejection	NA	0
16	Nonet	36	522	522	0	1	1	422873	691	1	hit	381	0
16	Nonet	37	523	523	8	0	0	423581	692	0	correct_rejection	NA	0
16	Nonet	38	524	524	7	0	0	424290	691	0	correct_rejection	NA	0
16	Nonet	39	525	525	9	0	0	424998	692	0	correct_rejection	NA	0
16	Nonet	40	526	526	8	0	0	425707	692	0	correct_rejection	NA	0
16	Nonet	41	527	527	7	0	0	426415	692	0	correct_rejection	NA	0
16	Nonet	42	528	528	4	0	0	427124	692	0	correct_rejection	NA	0
16	Nonet	43	529	529	5	0	0	427833	691	0	correct_rejection	NA	0
16	Nonet	44	530	530	6	0	0	428541	692	0	correct_rejection	NA	0
16	Nonet	45	531	531	4	0	0	429250	691	0	correct_rejection	NA	0
16	Nonet	46	532	532	5	0	0	429958	692	0	correct_rejection	NA	0
16	Nonet	47	533	533	0	1	1	430667	692	1	hit	364	0
16	Nonet	48	534	534	6	0	0	431375	692	0	correct_rejection	NA	0
16	Nonet	49	535	535	4	0	0	432084	692	0	correct_rejection	NA	0
16	Nonet	50	536	536	5	0	0	432793	691	0	correct_rejection	NA	0
16	Nonet	51	537	537	6	0	0	433501	692	0	correct_rejection	NA	0
16	Nonet	52	538	538	6	0	0	434210	691	0	correct_rejection	NA	0
16	Nonet	53	539	539	5	0	0	434918	692	0	correct_rejection	NA	0
16	Nonet	54	540	540	4	0	0	435627	691	0	correct_rejection	NA	0
16	Nonet	55	541	541	6	0	0	436335	692	0	correct_rejection	NA	0
16	Nonet	56	542	542	5	0	0	437044	692	0	correct_rejection	NA	0
16	Nonet	57	543	543	4	0	0	437752	692	0	correct_rejection	NA	0
16	Nonet	58	544	544	6	0	0	438461	692	0	correct_rejection	NA	0
16	Nonet	59	545	545	5	0	0	439170	691	0	correct_rejection	NA	0
16	Nonet	60	546	546	4	0	0	439878	692	0	correct_rejection	NA	0
16	Nonet	61	547	547	4	0	0	440587	691	0	correct_rejection	NA	0
16	Nonet	62	548	548	5	0	0	441295	692	0	correct_rejection	NA	0
16	Nonet	63	549	549	6	0	0	442004	692	0	correct_rejection	NA	0
16	Nonet	64	550	550	4	0	0	442712	692	0	correct_rejection	NA	0
16	Nonet	65	551	551	5	0	0	443421	692	0	correct_rejection	NA	0
16	Nonet	66	552	552	6	0	0	444130	691	0	correct_rejection	NA	0
16	Nonet	67	553	553	0	1	2	444838	692	1	hit	365	0
16	Nonet	68	554	554	4	0	0	445547	691	0	correct_rejection	NA	0
16	Nonet	69	555	555	5	0	0	446255	692	0	correct_rejection	NA	0
16	Nonet	70	556	556	6	0	0	446964	692	0	correct_rejection	NA	0
16	Nonet	71	557	557	7	0	0	447672	692	0	correct_rejection	NA	0
16	Nonet	72	558	558	8	0	0	448381	692	0	correct_rejection	NA	0
16	Nonet	73	559	559	9	0	0	449090	691	0	correct_rejection	NA	0
16	Nonet	74	560	560	7	0	0	449798	692	0	correct_rejection	NA	0
16	Nonet	75	561	561	8	0	0	450507	691	0	correct_rejection	NA	0
16	Nonet	76	562	562	9	0	0	451215	692	0	correct_rejection	NA	0
16	Nonet	77	563	563	7	0	0	451924	692	0	correct_rejection	NA	0
16	Nonet	78	564	564	8	0	0	452632	692	0	correct_rejection	NA	0
16	Nonet	79	565	565	9	0	0	453341	692	0	correct_rejection	NA	0
16	Nonet	80	566	566	6	0	0	454050	691	0	correct_rejection	NA	0
16	Nonet	81	567	567	5	0	0	454758	692	0	correct_rejection	NA	0
16	Nonet	82	568	568	0	1	1	455467	691	1	hit	388	0
16	Nonet	83	569	569	4	0	0	456175	692	0	correct_rejection	NA	0
16	Nonet	84	570	570	6	0	0	456884	692	0	correct_rejection	NA	0
16	Nonet	85	571	571	5	0	0	457592	692	0	correct_rejection	NA	0
16	Nonet	86	572	572	4	0	0	458301	692	0	correct_rejection	NA	0
16	Nonet	87	573	573	0	1	2	459010	691	1	hit	329	0
16	Nonet	88	574	574	6	0	0	459718	692	0	correct_rejection	NA	0
16	Nonet	89	575	575	5	0	0	460427	691	0	correct_rejection	NA	0
16	Nonet	90	576	576	4	0	0	461135	692	0	correct_rejection	NA	0
16	Nonet	91	577	577	9	0	0	461844	691	0	correct_rejection	NA	0
16	Nonet	92	578	578	8	0	0	462552	692	0	correct_rejection	NA	0
16	Nonet	93	579	579	7	0	0	463261	692	0	correct_rejection	NA	0
16	Nonet	94	580	580	9	0	0	463969	692	0	correct_rejection	NA	0
16	Nonet	95	581	581	8	0	0	464678	692	0	correct_rejection	NA	0
16	Nonet	96	582	582	7	0	0	465387	691	0	correct_rejection	NA	0
16	Nonet	97	583	583	0	1	2	466095	692	1	hit	379	0
16	Nonet	98	584	584	9	0	0	466804	691	0	correct_rejection	NA	0
16	Nonet	99	585	585	8	0	0	467512	692	0	correct_rejection	NA	0
16	Nonet	100	586	586	7	0	0	468221	692	0	correct_rejection	NA	0
16	Nonet	101	587	587	6	0	0	468929	692	0	correct_rejection	NA	0
16	Nonet	102	588	588	5	0	0	469638	692	0	correct_rejection	NA	0
16	Nonet	103	589	589	0	1	1	470347	691	1	hit	317	0
16	Nonet	104	590	590	4	0	0	471055	692	0	correct_rejection	NA	0
16	Nonet	105	591	591	6	0	0	471764	691	0	correct_rejection	NA	0
16	Nonet	106	592	592	5	0	0	472472	692	0	correct_rejection	NA	0
16	Nonet	107	593	593	4	0	0	473181	692	0	correct_rejection	NA	0
16	Nonet	108	594	594	6	0	0	473889	692	0	correct_rejection	NA	0
16	Nonet	109	595	595	5	0	0	474598	692	0	correct_rejection	NA	0
16	Nonet	110	596	596	4	0	0	475307	691	0	correct_rejection	NA	0
16	Nonet	111	597	597	6	0	0	476015	692	0	correct_rejection	NA	0
16	Nonet	112	598	598	5	0	0	476724	691	0	correct_rejection	NA	0
16	Nonet	113	599	599	4	0	0	477432	692	0	correct_rejection	NA	0
16	Nonet	114	600	600	6	0	0	478141	692	0	correct_rejection	NA	0
16	Nonet	115	601	601	5	0	0	478849	692	0	correct_rejection	NA	0
16	Nonet	116	602	602	4	0	0	479558	692	0	correct_rejection	NA	0
16	Nonet	117	603	603	6	0	0	480267	691	0	correct_rejection	NA	0
16	Nonet	118	604	604	0	1	1	480975	692	1	hit	367	0
16	Nonet	119	605	605	5	0	0	481684	691	0	correct_rejection	NA	0
16	Nonet	120	606	606	4	0	0	482392	692	0	correct_rejection	NA	0
16	Nonet	121	607	607	7	0	0	483101	692	0	correct_rejection	NA	0
16	Nonet	122	608	608	8	0	0	483809	692	0	correct_rejection	NA	0
16	Nonet	123	609	609	0	1	1	484518	692	1	hit	363	0
16	Nonet	124	610	610	9	0	0	485227	691	0	correct_rejection	NA	0
16	Nonet	125	611	611	7	0	0	485935	692	0	correct_rejection	NA	0
16	Nonet	126	612	612	0	1	1	486644	691	1	hit	321	0
16	Nonet	127	613	613	8	0	0	487352	692	0	correct_rejection	NA	0
16	Nonet	128	614	614	9	0	0	488061	691	0	correct_rejection	NA	0
16	Nonet	129	615	615	0	1	2	488769	692	1	hit	312	0
16	Nonet	130	616	616	7	0	0	489478	692	0	correct_rejection	NA	0
16	Nonet	131	617	617	8	0	0	490186	692	0	correct_rejection	NA	0
16	Nonet	132	618	618	9	0	0	490895	692	0	correct_rejection	NA	0
16	Nonet	133	619	619	4	0	0	491604	691	0	correct_rejection	NA	0
16	Nonet	134	620	620	5	0	0	492312	692	0	correct_rejection	NA	0
16	Nonet	135	621	621	6	0	0	493021	691	0	correct_rejection	NA	0
16	Nonet	136	622	622	4	0	0	493729	692	0	correct_rejection	NA	0
16	Nonet	137	623	623	5	0	0	494438	692	0	correct_rejection	NA	0
16	Nonet	138	624	624	6	0	0	495146	692	0	correct_rejection	NA	0
16	Nonet	139	625	625	4	0	0	495855	692	0	correct_rejection	NA	0
16	Nonet	140	626	626	5	0	0	496564	691	0	correct_rejection	NA	0
16	Nonet	141	627	627	6	0	0	497272	692	0	correct_rejection	NA	0
16	Nonet	142	628	628	4	0	0	497981	691	0	correct_rejection	NA	0
16	Nonet	143	629	629	5	0	0	498689	692	0	correct_rejection	NA	0
16	Nonet	144	630	630	6	0	0	499398	692	0	correct_rejection	NA	0
16	Nonet	145	631	631	4	0	0	500106	692	0	correct_rejection	NA	0
16	Nonet	146	632	632	0	1	1	500815	692	1	hit	373	0
16	Nonet	147	633	633	5	0	0	501524	691	0	correct_rejection	NA	0
16	Nonet	148	634	634	6	0	0	502232	692	0	correct_rejection	NA	0
16	Nonet	149	635	635	0	1	2	502941	691	1	hit	310	0
16	Nonet	150	636	636	4	0	0	503649	692	0	correct_rejection	NA	0
16	Nonet	151	637	637	5	0	0	504358	692	0	correct_rejection	NA	0
16	Nonet	152	638	638	6	0	0	505066	692	0	correct_rejection	NA	0
16	Nonet	153	639	639	9	0	0	505775	692	0	correct_rejection	NA	0
16	Nonet	154	640	640	8	0	0	506484	691	0	correct_rejection	NA	0
16	Nonet	155	641	641	7	0	0	507192	692	0	correct_rejection	NA	0
16	Nonet	156	642	642	9	0	0	507901	691	0	correct_rejection	NA	0
16	Nonet	157	643	643	8	0	0	508609	692	0	correct_rejection	NA	0
16	Nonet	158	644	644	7	0	0	509318	692	0	correct_rejection	NA	0
16	Nonet	159	645	645	9	0	0	510026	692	0	correct_rejection	NA	0
16	Nonet	160	646	646	8	0	0	510735	692	0	correct_rejection	NA	0
16	Nonet	161	647	647	0	1	1	511444	691	1	hit	410	0
16	Nonet	162	648	648	7	0	0	512152	692	0	correct_rejection	NA	0
16	Triplet	1	1	649	9	0	0	522280	692	0	correct_rejection	NA	7829
16	Triplet	2	2	650	8	0	0	522989	692	0	correct_rejection	NA	0
16	Triplet	3	3	651	7	0	0	523698	691	0	correct_rejection	NA	0
16	Triplet	4	4	652	6	0	0	524406	692	0	correct_rejection	NA	0
16	Triplet	5	5	653	5	0	0	525115	691	0	correct_rejection	NA	0
16	Triplet	6	6	654	4	0	0	525823	692	0	correct_rejection	NA	0
16	Triplet	7	7	655	7	0	0	526532	692	0	correct_rejection	NA	0
16	Triplet	8	8	656	8	0	0	527240	692	0	correct_rejection	NA	0
16	Triplet	9	9	657	9	0	0	527949	692	0	correct_rejection	NA	0
16	Triplet	10	10	658	7	0	0	528658	691	0	correct_rejection	NA	0
16	Triplet	11	11	659	8	0	0	529366	692	0	correct_rejection	NA	0
16	Triplet	12	12	660	9	0	0	530075	691	0	correct_rejection	NA	0
16	Triplet	13	13	661	0	1	2	530783	692	1	hit	348	0
16	Triplet	14	14	662	4	0	0	531492	692	0	correct_rejection	NA	0
16	Triplet	15	15	663	5	0	0	532200	692	0	correct_rejection	NA	0
16	Triplet	16	16	664	0	1	1	532909	692	1	hit	354	0
16	Triplet	17	17	665	6	0	0	533618	691	0	correct_rejection	NA	0
16	Triplet	18	18	666	6	0	0	534326	692	0	correct_rejection	NA	0
16	Triplet	19	19	667	0	1	1	535035	691	1	hit	335	0
16	Triplet	20	20	668	5	0	0	535743	692	0	correct_rejection	NA	0
16	Triplet	21	21	669	4	0	0	536452	691	0	correct_rejection	NA	0
16	Triplet	22	22	670	4	0	0	537160	692	0	correct_rejection	NA	0
16	Triplet	23	23	671	5	0	0	537869	692	0	correct_rejection	NA	0
16	Triplet	24	24	672	6	0	0	538577	692	0	correct_rejection	NA	0
16	Triplet	25	25	673	0	1	2	539286	692	1	hit	337	0
16	Triplet	26	26	674	7	0	0	539995	691	0	correct_rejection	NA	0
16	Triplet	27	27	675	8	0	0	540703	692	0	correct_rejection	NA	0
16	Triplet	28	28	676	9	0	0	541412	691	0	correct_rejection	NA	0
16	Triplet	29	29	677	9	0	0	542120	692	0	correct_rejection	NA	0
16	Triplet	30	30	678	8	0	0	542829	692	0	correct_rejection	NA	0
16	Triplet	31	31	679	7	0	0	543537	692	0	correct_rejection	NA	0
16	Triplet	32	32	680	7	0	0	544246	692	0	correct_rejection	NA	0
16	Triplet	33	33	681	8	0	0	544955	691	0	correct_rejection	NA	0
16	Triplet	34	34	682	9	0	0	545663	692	0	correct_rejection	NA	0
16	Triplet	35	35	683	6	0	0	546372	691	0	correct_rejection	NA	0
16	Triplet	36	36	684	5	0	0	547080	692	0	correct_rejection	NA	0
16	Triplet	37	37	685	4	0	0	547789	692	0	correct_rejection	NA	0
16	Triplet	38	38	686	6	0	0	548497	692	0	correct_rejection	NA	0
16	Triplet	39	39	687	5	0	0	549206	692	0	correct_rejection	NA	0
16	Triplet	40	40	688	4	0	0	549915	691	0	correct_rejection	NA	0
16	Triplet	41	41	689	9	0	0	550623	692	0	correct_rejection	NA	0
16	Triplet	42	42	690	8	0	0	551332	691	0	correct_rejection	NA	0
16	Triplet	43	43	691	7	0	0	552040	692	0	correct_rejection	NA	0
16	Triplet	44	44	692	9	0	0	552749	692	0	correct_rejection	NA	0
16	Triplet	45	45	693	8	0	0	553457	692	0	correct_rejection	NA	0
16	Triplet	46	46	694	7	0	0	554166	692	0	correct_rejection	NA	0
16	Triplet	47	47	695	0	1	2	554875	691	1	hit	330	0
16	Triplet	48	48	696	4	0	0	555583	692	0	correct_rejection	NA	0
16	Triplet	49	49	697	5	0	0	556292	691	0	correct_rejection	NA	0
16	Triplet	50	50	698	0	1	1	557000	692	1	hit	347	0
16	Triplet	51	51	699	6	0	0	557709	692	0	correct_rejection	NA	0
16	Triplet	52	52	700	4	0	0	558417	692	0	correct_rejection	NA	0
16	Triplet	53	53	701	5	0	0	559126	692	0	correct_rejection	NA	0
16	Triplet	54	54	702	6	0	0	559835	691	0	correct_rejection	NA	0
16	Triplet	55	55	703	9	0	0	560543	692	0	correct_rejection	NA	0
16	Triplet	56	56	704	8	0	0	561252	691	0	correct_rejection	NA	0
16	Triplet	57	57	705	7	0	0	561960	692	0	correct_rejection	NA	0
16	Triplet	58	58	706	4	0	0	562669	691	0	correct_rejection	NA	0
16	Triplet	59	59	707	5	0	0	563377	692	0	correct_rejection	NA	0
16	Triplet	60	60	708	6	0	0	564086	692	0	correct_rejection	NA	0
16	Triplet	61	61	709	0	1	2	564794	692	1	hit	348	0
16	Triplet	62	62	710	6	0	0	565503	692	0	correct_rejection	NA	0
16	Triplet	63	63	711	5	0	0	566212	691	0	correct_rejection	NA	0
16	Triplet	64	64	712	0	1	1	566920	692	1	hit	313	0
16	Triplet	65	65	713	4	0	0	567629	691	0	correct_rejection	NA	0
16	Triplet	66	66	714	6	0	0	568337	692	0	correct_rejection	NA	0
16	Triplet	67	67	715	5	0	0	569046	692	0	correct_rejection	NA	0
16	Triplet	68	68	716	4	0	0	569754	692	0	correct_rejection	NA	0
16	Triplet	69	69	717	0	1	2	570463	692	1	hit	289	0
16	Triplet	70	70	718	7	0	0	571172	691	0	correct_rejection	NA	0
16	Triplet	71	71	719	8	0	0	571880	692	0	correct_rejection	NA	0
16	Triplet	72	72	720	0	1	1	572589	691	1	hit	277	0
16	Triplet	73	73	721	9	0	0	573297	692	0	correct_rejection	NA	0
16	Triplet	74	74	722	4	0	0	574006	692	0	correct_rejection	NA	0
16	Triplet	75	75	723	0	1	1	574714	692	1	hit	293	0
16	Triplet	76	76	724	5	0	0	575423	692	0	correct_rejection	NA	0
16	Triplet	77	77	725	6	0	0	576132	691	0	correct_rejection	NA	0
16	Triplet	78	78	726	9	0	0	576840	692	0	correct_rejection	NA	0
16	Triplet	79	79	727	8	0	0	577549	691	0	correct_rejection	NA	0
16	Triplet	80	80	728	7	0	0	578257	692	0	correct_rejection	NA	0
16	Triplet	81	81	729	7	0	0	578966	692	0	correct_rejection	NA	0
16	Triplet	82	82	730	8	0	0	579674	692	0	correct_rejection	NA	0
16	Triplet	83	83	731	9	0	0	580383	692	0	correct_rejection	NA	0
16	Triplet	84	84	732	0	1	2	581092	691	1	hit	350	0
16	Triplet	85	85	733	9	0	0	581800	692	0	correct_rejection	NA	0
16	Triplet	86	86	734	8	0	0	582509	691	0	correct_rejection	NA	0
16	Triplet	87	87	735	7	0	0	583217	692	0	correct_rejection	NA	0
16	Triplet	88	88	736	6	0	0	583926	691	0	correct_rejection	NA	0
16	Triplet	89	89	737	5	0	0	584634	692	0	correct_rejection	NA	0
16	Triplet	90	90	738	4	0	0	585343	692	0	correct_rejection	NA	0
16	Triplet	91	91	739	4	0	0	586052	691	0	correct_rejection	NA	0
16	Triplet	92	92	740	5	0	0	586760	692	0	correct_rejection	NA	0
16	Triplet	93	93	741	6	0	0	587469	691	0	correct_rejection	NA	0
16	Triplet	94	94	742	4	0	0	588177	692	0	correct_rejection	NA	0
16	Triplet	95	95	743	0	1	1	588886	691	1	hit	499	0
16	Triplet	96	96	744	5	0	0	589594	692	0	correct_rejection	NA	0
16	Triplet	97	97	745	6	0	0	590303	692	0	correct_rejection	NA	0
16	Triplet	98	98	746	7	0	0	591011	692	0	correct_rejection	NA	0
16	Triplet	99	99	747	8	0	0	591720	692	0	correct_rejection	NA	0
16	Triplet	100	100	748	9	0	0	592429	691	0	correct_rejection	NA	0
16	Triplet	101	101	749	7	0	0	593137	692	0	correct_rejection	NA	0
16	Triplet	102	102	750	8	0	0	593846	691	0	correct_rejection	NA	0
16	Triplet	103	103	751	9	0	0	594554	692	0	correct_rejection	NA	0
16	Triplet	104	104	752	6	0	0	595263	692	0	correct_rejection	NA	0
16	Triplet	105	105	753	5	0	0	595971	692	0	correct_rejection	NA	0
16	Triplet	106	106	754	4	0	0	596680	692	0	correct_rejection	NA	0
16	Triplet	107	107	755	9	0	0	597389	691	0	correct_rejection	NA	0
16	Triplet	108	108	756	8	0	0	598097	692	0	correct_rejection	NA	0
16	Triplet	109	109	757	0	1	1	598806	691	1	hit	412	0
16	Triplet	110	110	758	7	0	0	599514	692	0	correct_rejection	NA	0
16	Triplet	111	111	759	7	0	0	600223	692	0	correct_rejection	NA	0
16	Triplet	112	112	760	8	0	0	600931	692	0	correct_rejection	NA	0
16	Triplet	113	113	761	9	0	0	601640	692	0	correct_rejection	NA	0
16	Triplet	114	114	762	4	0	0	602349	691	0	correct_rejection	NA	0
16	Triplet	115	115	763	5	0	0	603057	692	0	correct_rejection	NA	0
16	Triplet	116	116	764	6	0	0	603766	691	0	correct_rejection	NA	0
16	Triplet	117	117	765	4	0	0	604474	692	0	correct_rejection	NA	0
16	Triplet	118	118	766	5	0	0	605183	692	0	correct_rejection	NA	0
16	Triplet	119	119	767	6	0	0	605891	692	0	correct_rejection	NA	0
16	Triplet	120	120	768	0	1	2	606600	692	1	hit	341	0
16	Triplet	121	121	769	9	0	0	607309	691	0	correct_rejection	NA	0
16	Triplet	122	122	770	8	0	0	608017	692	0	correct_rejection	NA	0
16	Triplet	123	123	771	7	0	0	608726	691	0	correct_rejection	NA	0
16	Triplet	124	124	772	4	0	0	609434	692	0	correct_rejection	NA	0
16	Triplet	125	125	773	5	0	0	610143	691	0	correct_rejection	NA	0
16	Triplet	126	126	774	6	0	0	610851	692	0	correct_rejection	NA	0
16	Triplet	127	127	775	7	0	0	611560	692	0	correct_rejection	NA	0
16	Triplet	128	128	776	8	0	0	612269	691	0	correct_rejection	NA	0
16	Triplet	129	129	777	0	1	1	612977	692	1	hit	422	0
16	Triplet	130	130	778	9	0	0	613686	691	0	correct_rejection	NA	0
16	Triplet	131	131	779	6	0	0	614394	692	0	correct_rejection	NA	0
16	Triplet	132	132	780	5	0	0	615103	691	0	correct_rejection	NA	0
16	Triplet	133	133	781	4	0	0	615811	692	0	correct_rejection	NA	0
16	Triplet	134	134	782	0	1	2	616520	692	1	hit	395	0
16	Triplet	135	135	783	4	0	0	617228	692	0	correct_rejection	NA	0
16	Triplet	136	136	784	5	0	0	617937	692	0	correct_rejection	NA	0
16	Triplet	137	137	785	6	0	0	618646	691	0	correct_rejection	NA	0
16	Triplet	138	138	786	6	0	0	619354	692	0	correct_rejection	NA	0
16	Triplet	139	139	787	5	0	0	620063	691	0	correct_rejection	NA	0
16	Triplet	140	140	788	4	0	0	620771	692	0	correct_rejection	NA	0
16	Triplet	141	141	789	9	0	0	621480	692	0	correct_rejection	NA	0
16	Triplet	142	142	790	8	0	0	622188	692	0	correct_rejection	NA	0
16	Triplet	143	143	791	7	0	0	622897	692	0	correct_rejection	NA	0
16	Triplet	144	144	792	7	0	0	623606	691	0	correct_rejection	NA	0
16	Triplet	145	145	793	8	0	0	624314	692	0	correct_rejection	NA	0
16	Triplet	146	146	794	9	0	0	625023	691	0	correct_rejection	NA	0
16	Triplet	147	147	795	7	0	0	625731	692	0	correct_rejection	NA	0
16	Triplet	148	148	796	8	0	0	626440	692	0	correct_rejection	NA	0
16	Triplet	149	149	797	9	0	0	627148	692	0	correct_rejection	NA	0
16	Triplet	150	150	798	9	0	0	627857	692	0	correct_rejection	NA	0
16	Triplet	151	151	799	0	1	1	628566	691	1	hit	362	0
16	Triplet	152	152	800	8	0	0	629274	692	0	correct_rejection	NA	0
16	Triplet	153	153	801	7	0	0	629983	691	0	correct_rejection	NA	0
16	Triplet	154	154	802	9	0	0	630691	692	0	correct_rejection	NA	0
16	Triplet	155	155	803	8	0	0	631400	692	0	correct_rejection	NA	0
16	Triplet	156	156	804	7	0	0	632108	692	0	correct_rejection	NA	0
16	Triplet	157	157	805	6	0	0	632817	692	0	correct_rejection	NA	0
16	Triplet	158	158	806	5	0	0	633526	691	0	correct_rejection	NA	0
16	Triplet	159	159	807	4	0	0	634234	692	0	correct_rejection	NA	0
16	Triplet	160	160	808	6	0	0	634943	691	0	correct_rejection	NA	0
16	Triplet	161	161	809	5	0	0	635651	692	0	correct_rejection	NA	0
16	Triplet	162	162	810	4	0	0	636360	691	0	correct_rejection	NA	0
trigger nr 628 at 638411
trigger nr 633 at 712411
16	Nonet	1	163	811	4	0	0	720112	692	0	correct_rejection	NA	7659
16	Nonet	2	164	812	5	0	0	720821	692	0	correct_rejection	NA	0
16	Nonet	3	165	813	6	0	0	721530	691	0	correct_rejection	NA	0
16	Nonet	4	166	814	4	0	0	722238	692	0	correct_rejection	NA	0
16	Nonet	5	167	815	5	0	0	722947	691	0	correct_rejection	NA	0
16	Nonet	6	168	816	6	0	0	723655	692	0	correct_rejection	NA	0
16	Nonet	7	169	817	4	0	0	724364	692	0	correct_rejection	NA	0
16	Nonet	8	170	818	5	0	0	725072	692	0	correct_rejection	NA	0
16	Nonet	9	171	819	0	1	1	725781	692	1	hit	345	0
16	Nonet	10	172	820	6	0	0	726490	691	0	correct_rejection	NA	0
16	Nonet	11	173	821	4	0	0	727198	692	0	correct_rejection	NA	0
16	Nonet	12	174	822	5	0	0	727907	691	0	correct_rejection	NA	0
16	Nonet	13	175	823	6	0	0	728615	692	0	correct_rejection	NA	0
16	Nonet	14	176	824	4	0	0	729324	692	0	correct_rejection	NA	0
16	Nonet	15	177	825	5	0	0	730032	692	0	correct_rejection	NA	0
16	Nonet	16	178	826	6	0	0	730741	692	0	correct_rejection	NA	0
16	Nonet	17	179	827	4	0	0	731450	691	0	correct_rejection	NA	0
16	Nonet	18	180	828	5	0	0	732158	692	0	correct_rejection	NA	0
16	Nonet	19	181	829	6	0	0	732867	691	0	correct_rejection	NA	0
16	Nonet	20	182	830	7	0	0	733575	692	0	correct_rejection	NA	0
16	Nonet	21	183	831	8	0	0	734284	692	0	correct_rejection	NA	0
16	Nonet	22	184	832	9	0	0	734992	692	0	correct_rejection	NA	0
16	Nonet	23	185	833	7	0	0	735701	692	0	correct_rejection	NA	0
16	Nonet	24	186	834	8	0	0	736410	691	0	correct_rejection	NA	0
16	Nonet	25	187	835	9	0	0	737118	692	0	correct_rejection	NA	0
16	Nonet	26	188	836	7	0	0	737827	691	0	correct_rejection	NA	0
16	Nonet	27	189	837	0	1	1	738535	692	1	hit	366	0
16	Nonet	28	190	838	8	0	0	739244	692	0	correct_rejection	NA	0
16	Nonet	29	191	839	9	0	0	739952	692	0	correct_rejection	NA	0
16	Nonet	30	192	840	0	1	3	740661	692	1	hit	317	0
16	Nonet	31	193	841	7	0	0	741370	691	0	correct_rejection	NA	0
16	Nonet	32	194	842	8	0	0	742078	692	0	correct_rejection	NA	0
16	Nonet	33	195	843	9	0	0	742787	691	0	correct_rejection	NA	0
16	Nonet	34	196	844	7	0	0	743495	692	0	correct_rejection	NA	0
16	Nonet	35	197	845	0	1	1	744204	691	1	hit	376	0
16	Nonet	36	198	846	8	0	0	744912	692	0	correct_rejection	NA	0
16	Nonet	37	199	847	9	0	0	745621	692	0	correct_rejection	NA	0
16	Nonet	38	200	848	7	0	0	746329	692	0	correct_rejection	NA	0
16	Nonet	39	201	849	8	0	0	747038	692	0	correct_rejection	NA	0
16	Nonet	40	202	850	9	0	0	747747	691	0	correct_rejection	NA	0
16	Nonet	41	203	851	6	0	0	748455	692	0	correct_rejection	NA	0
16	Nonet	42	204	852	5	0	0	749164	691	0	correct_rejection	NA	0
16	Nonet	43	205	853	4	0	0	749872	692	0	correct_rejection	NA	0
16	Nonet	44	206	854	6	0	0	750581	692	0	correct_rejection	NA	0
16	Nonet	45	207	855	5	0	0	751289	692	0	correct_rejection	NA	0
16	Nonet	46	208	856	4	0	0	751998	692	0	correct_rejection	NA	0
16	Nonet	47	209	857	6	0	0	752707	691	0	correct_rejection	NA	0
16	Nonet	48	210	858	5	0	0	753415	692	0	correct_rejection	NA	0
16	Nonet	49	211	859	0	1	1	754124	691	1	hit	325	0
16	Nonet	50	212	860	4	0	0	754832	692	0	correct_rejection	NA	0
16	Nonet	51	213	861	6	0	0	755541	692	0	correct_rejection	NA	0
16	Nonet	52	214	862	5	0	0	756249	692	0	correct_rejection	NA	0
16	Nonet	53	215	863	4	0	0	756958	692	0	correct_rejection	NA	0
16	Nonet	54	216	864	6	0	0	757667	691	0	correct_rejection	NA	0
16	Nonet	55	217	865	0	1	1	758375	692	1	hit	355	0
16	Nonet	56	218	866	5	0	0	759084	691	0	correct_rejection	NA	0
16	Nonet	57	219	867	4	0	0	759792	692	0	correct_rejection	NA	0
16	Nonet	58	220	868	6	0	0	760501	692	0	correct_rejection	NA	0
16	Nonet	59	221	869	5	0	0	761209	692	0	correct_rejection	NA	0
16	Nonet	60	222	870	4	0	0	761918	692	0	correct_rejection	NA	0
16	Nonet	61	223	871	4	0	0	762627	691	0	correct_rejection	NA	0
16	Nonet	62	224	872	0	1	1	763335	692	1	hit	347	0
16	Nonet	63	225	873	5	0	0	764044	691	0	correct_rejection	NA	0
16	Nonet	64	226	874	6	0	0	764752	692	0	correct_rejection	NA	0
16	Nonet	65	227	875	4	0	0	765461	692	0	correct_rejection	NA	0
16	Nonet	66	228	876	5	0	0	766169	692	0	correct_rejection	NA	0
16	Nonet	67	229	877	6	0	0	766878	692	0	correct_rejection	NA	0
16	Nonet	68	230	878	4	0	0	767587	691	0	correct_rejection	NA	0
16	Nonet	69	231	879	5	0	0	768295	692	0	correct_rejection	NA	0
16	Nonet	70	232	880	6	0	0	769004	691	0	correct_rejection	NA	0
16	Nonet	71	233	881	6	0	0	769712	692	0	correct_rejection	NA	0
16	Nonet	72	234	882	5	0	0	770421	691	0	correct_rejection	NA	0
16	Nonet	73	235	883	4	0	0	771129	692	0	correct_rejection	NA	0
16	Nonet	74	236	884	6	0	0	771838	692	0	correct_rejection	NA	0
16	Nonet	75	237	885	0	1	1	772546	692	1	hit	440	0
16	Nonet	76	238	886	5	0	0	773255	692	0	correct_rejection	NA	0
16	Nonet	77	239	887	4	0	0	773964	691	0	correct_rejection	NA	0
16	Nonet	78	240	888	0	1	2	774672	692	1	hit	388	0
16	Nonet	79	241	889	6	0	0	775381	691	0	correct_rejection	NA	0
16	Nonet	80	242	890	5	0	0	776089	692	0	correct_rejection	NA	0
16	Nonet	81	243	891	4	0	0	776798	692	0	correct_rejection	NA	0
16	Nonet	82	244	892	9	0	0	777506	692	0	correct_rejection	NA	0
16	Nonet	83	245	893	0	1	1	778215	692	1	hit	370	0
16	Nonet	84	246	894	8	0	0	778924	691	0	correct_rejection	NA	0
16	Nonet	85	247	895	7	0	0	779632	692	0	correct_rejection	NA	0
16	Nonet	86	248	896	9	0	0	780341	691	0	correct_rejection	NA	0
16	Nonet	87	249	897	8	0	0	781049	692	0	correct_rejection	NA	0
16	Nonet	88	250	898	7	0	0	781758	692	0	correct_rejection	NA	0
16	Nonet	89	251	899	9	0	0	782466	692	0	correct_rejection	NA	0
16	Nonet	90	252	900	8	0	0	783175	692	0	correct_rejection	NA	0
16	Nonet	91	253	901	7	0	0	783884	691	0	correct_rejection	NA	0
16	Nonet	92	254	902	4	0	0	784592	692	0	correct_rejection	NA	0
16	Nonet	93	255	903	5	0	0	785301	691	0	correct_rejection	NA	0
16	Nonet	94	256	904	6	0	0	786009	692	0	correct_rejection	NA	0
16	Nonet	95	257	905	0	1	2	786718	692	1	hit	398	0
16	Nonet	96	258	906	4	0	0	787426	692	0	correct_rejection	NA	0
16	Nonet	97	259	907	5	0	0	788135	692	0	correct_rejection	NA	0
16	Nonet	98	260	908	6	0	0	788844	691	0	correct_rejection	NA	0
16	Nonet	99	261	909	4	0	0	789552	692	0	correct_rejection	NA	0
16	Nonet	100	262	910	0	1	1	790261	691	1	hit	336	0
16	Nonet	101	263	911	5	0	0	790969	692	0	correct_rejection	NA	0
16	Nonet	102	264	912	6	0	0	791678	692	0	correct_rejection	NA	0
16	Nonet	103	265	913	9	0	0	792386	692	0	correct_rejection	NA	0
16	Nonet	104	266	914	0	1	1	793095	692	1	hit	450	0
16	Nonet	105	267	915	8	0	0	793804	691	0	correct_rejection	NA	0
16	Nonet	106	268	916	7	0	0	794512	692	0	correct_rejection	NA	0
16	Nonet	107	269	917	9	0	0	795221	691	0	correct_rejection	NA	0
16	Nonet	108	270	918	0	1	1	795929	692	1	hit	325	0
16	Nonet	109	271	919	8	0	0	796638	691	0	correct_rejection	NA	0
16	Nonet	110	272	920	7	0	0	797346	692	0	correct_rejection	NA	0
16	Nonet	111	273	921	9	0	0	798055	692	0	correct_rejection	NA	0
16	Nonet	112	274	922	8	0	0	798763	692	0	correct_rejection	NA	0
16	Nonet	113	275	923	7	0	0	799472	692	0	correct_rejection	NA	0
16	Nonet	114	276	924	0	1	3	800181	691	1	hit	307	0
16	Nonet	115	277	925	7	0	0	800889	692	0	correct_rejection	NA	0
16	Nonet	116	278	926	8	0	0	801598	691	0	correct_rejection	NA	0
16	Nonet	117	279	927	9	0	0	802306	692	0	correct_rejection	NA	0
16	Nonet	118	280	928	7	0	0	803015	692	0	correct_rejection	NA	0
16	Nonet	119	281	929	8	0	0	803723	692	0	correct_rejection	NA	0
16	Nonet	120	282	930	9	0	0	804432	692	0	correct_rejection	NA	0
16	Nonet	121	283	931	7	0	0	805141	691	0	correct_rejection	NA	0
16	Nonet	122	284	932	8	0	0	805849	692	0	correct_rejection	NA	0
16	Nonet	123	285	933	9	0	0	806558	691	0	correct_rejection	NA	0
16	Nonet	124	286	934	9	0	0	807266	692	0	correct_rejection	NA	0
16	Nonet	125	287	935	8	0	0	807975	692	0	correct_rejection	NA	0
16	Nonet	126	288	936	7	0	0	808683	692	0	correct_rejection	NA	0
16	Nonet	127	289	937	9	0	0	809392	692	0	correct_rejection	NA	0
16	Nonet	128	290	938	8	0	0	810101	691	0	correct_rejection	NA	0
16	Nonet	129	291	939	7	0	0	810809	692	0	correct_rejection	NA	0
16	Nonet	130	292	940	9	0	0	811518	691	0	correct_rejection	NA	0
16	Nonet	131	293	941	8	0	0	812226	692	0	correct_rejection	NA	0
16	Nonet	132	294	942	7	0	0	812935	692	0	correct_rejection	NA	0
16	Nonet	133	295	943	0	1	3	813643	692	1	hit	358	0
16	Nonet	134	296	944	9	0	0	814352	692	0	correct_rejection	NA	0
16	Nonet	135	297	945	8	0	0	815061	691	0	correct_rejection	NA	0
16	Nonet	136	298	946	7	0	0	815769	692	0	correct_rejection	NA	0
16	Nonet	137	299	947	9	0	0	816478	691	0	correct_rejection	NA	0
16	Nonet	138	300	948	8	0	0	817186	692	0	correct_rejection	NA	0
16	Nonet	139	301	949	7	0	0	817895	692	0	correct_rejection	NA	0
16	Nonet	140	302	950	9	0	0	818603	692	0	correct_rejection	NA	0
16	Nonet	141	303	951	8	0	0	819312	692	0	correct_rejection	NA	0
16	Nonet	142	304	952	7	0	0	820021	691	0	correct_rejection	NA	0
16	Nonet	143	305	953	6	0	0	820729	692	0	correct_rejection	NA	0
16	Nonet	144	306	954	5	0	0	821438	691	0	correct_rejection	NA	0
16	Nonet	145	307	955	4	0	0	822146	692	0	correct_rejection	NA	0
16	Nonet	146	308	956	0	1	2	822855	691	1	hit	429	0
16	Nonet	147	309	957	6	0	0	823563	692	0	correct_rejection	NA	0
16	Nonet	148	310	958	5	0	0	824272	692	0	correct_rejection	NA	0
16	Nonet	149	311	959	4	0	0	824980	692	0	correct_rejection	NA	0
16	Nonet	150	312	960	6	0	0	825689	692	0	correct_rejection	NA	0
16	Nonet	151	313	961	5	0	0	826398	691	0	correct_rejection	NA	0
16	Nonet	152	314	962	4	0	0	827106	692	0	correct_rejection	NA	0
16	Nonet	153	315	963	7	0	0	827815	691	0	correct_rejection	NA	0
16	Nonet	154	316	964	8	0	0	828523	692	0	correct_rejection	NA	0
16	Nonet	155	317	965	0	1	1	829232	692	1	hit	416	0
16	Nonet	156	318	966	9	0	0	829940	692	0	correct_rejection	NA	0
16	Nonet	157	319	967	7	0	0	830649	692	0	correct_rejection	NA	0
16	Nonet	158	320	968	8	0	0	831358	691	0	correct_rejection	NA	0
16	Nonet	159	321	969	9	0	0	832066	692	0	correct_rejection	NA	0
16	Nonet	160	322	970	7	0	0	832775	691	0	correct_rejection	NA	0
16	Nonet	161	323	971	8	0	0	833483	692	0	correct_rejection	NA	0
16	Nonet	162	324	972	9	0	0	834192	692	0	correct_rejection	NA	0
16	Correct	1	325	973	4	0	0	844245	692	0	correct_rejection	NA	7799
16	Correct	2	326	974	5	0	0	844954	691	0	correct_rejection	NA	0
16	Correct	3	327	975	6	0	0	845662	692	0	correct_rejection	NA	0
16	Correct	4	328	976	4	0	0	846371	692	0	correct_rejection	NA	0
16	Correct	5	329	977	5	0	0	847079	692	0	correct_rejection	NA	0
16	Correct	6	330	978	6	0	0	847788	692	0	correct_rejection	NA	0
16	Correct	7	331	979	4	0	0	848497	691	0	correct_rejection	NA	0
16	Correct	8	332	980	5	0	0	849205	692	0	correct_rejection	NA	0
16	Correct	9	333	981	6	0	0	849914	691	0	correct_rejection	NA	0
16	Correct	10	334	982	0	1	3	850622	692	1	hit	376	0
16	Correct	11	335	983	6	0	0	851331	692	0	correct_rejection	NA	0
16	Correct	12	336	984	5	0	0	852039	692	0	correct_rejection	NA	0
16	Correct	13	337	985	4	0	0	852748	692	0	correct_rejection	NA	0
16	Correct	14	338	986	6	0	0	853457	691	0	correct_rejection	NA	0
16	Correct	15	339	987	5	0	0	854165	692	0	correct_rejection	NA	0
16	Correct	16	340	988	4	0	0	854874	691	0	correct_rejection	NA	0
16	Correct	17	341	989	6	0	0	855582	692	0	correct_rejection	NA	0
16	Correct	18	342	990	0	1	1	856291	692	1	hit	369	0
16	Correct	19	343	991	5	0	0	856999	692	0	correct_rejection	NA	0
16	Correct	20	344	992	4	0	0	857708	692	0	correct_rejection	NA	0
16	Correct	21	345	993	9	0	0	858417	691	0	correct_rejection	NA	0
16	Correct	22	346	994	8	0	0	859125	692	0	correct_rejection	NA	0
16	Correct	23	347	995	7	0	0	859834	691	0	correct_rejection	NA	0
16	Correct	24	348	996	0	1	2	860542	692	1	hit	352	0
16	Correct	25	349	997	9	0	0	861251	691	0	correct_rejection	NA	0
16	Correct	26	350	998	8	0	0	861959	692	0	correct_rejection	NA	0
16	Correct	27	351	999	7	0	0	862668	692	0	correct_rejection	NA	0
16	Correct	28	352	1000	9	0	0	863377	691	0	correct_rejection	NA	0
16	Correct	29	353	1001	8	0	0	864085	692	0	correct_rejection	NA	0
16	Correct	30	354	1002	7	0	0	864794	691	0	correct_rejection	NA	0
16	Correct	31	355	1003	7	0	0	865502	692	0	correct_rejection	NA	0
16	Correct	32	356	1004	8	0	0	866211	691	0	correct_rejection	NA	0
16	Correct	33	357	1005	9	0	0	866919	692	0	correct_rejection	NA	0
16	Correct	34	358	1006	7	0	0	867628	692	0	correct_rejection	NA	0
16	Correct	35	359	1007	8	0	0	868336	692	0	correct_rejection	NA	0
16	Correct	36	360	1008	9	0	0	869045	692	0	correct_rejection	NA	0
16	Correct	37	361	1009	7	0	0	869754	691	0	correct_rejection	NA	0
16	Correct	38	362	1010	0	1	1	870462	692	1	hit	364	0
16	Correct	39	363	1011	8	0	0	871171	691	0	correct_rejection	NA	0
16	Correct	40	364	1012	9	0	0	871879	692	0	correct_rejection	NA	0
16	Correct	41	365	1013	4	0	0	872588	692	0	correct_rejection	NA	0
16	Correct	42	366	1014	5	0	0	873296	692	0	correct_rejection	NA	0
16	Correct	43	367	1015	6	0	0	874005	692	0	correct_rejection	NA	0
16	Correct	44	368	1016	4	0	0	874714	691	0	correct_rejection	NA	0
16	Correct	45	369	1017	5	0	0	875422	692	0	correct_rejection	NA	0
16	Correct	46	370	1018	6	0	0	876131	691	0	correct_rejection	NA	0
16	Correct	47	371	1019	4	0	0	876839	692	0	correct_rejection	NA	0
16	Correct	48	372	1020	0	1	1	877548	692	1	hit	532	0
16	Correct	49	373	1021	5	0	0	878256	692	0	correct_rejection	NA	0
16	Correct	50	374	1022	6	0	0	878965	692	0	correct_rejection	NA	0
16	Correct	51	375	1023	6	0	0	879674	691	0	correct_rejection	NA	0
16	Correct	52	376	1024	5	0	0	880382	692	0	correct_rejection	NA	0
16	Correct	53	377	1025	4	0	0	881091	691	0	correct_rejection	NA	0
16	Correct	54	378	1026	6	0	0	881799	692	0	correct_rejection	NA	0
16	Correct	55	379	1027	5	0	0	882508	692	0	correct_rejection	NA	0
16	Correct	56	380	1028	4	0	0	883216	692	0	correct_rejection	NA	0
16	Correct	57	381	1029	6	0	0	883925	692	0	correct_rejection	NA	0
16	Correct	58	382	1030	5	0	0	884634	691	0	correct_rejection	NA	0
16	Correct	59	383	1031	4	0	0	885342	692	0	correct_rejection	NA	0
16	Correct	60	384	1032	9	0	0	886051	691	0	correct_rejection	NA	0
16	Correct	61	385	1033	8	0	0	886759	692	0	correct_rejection	NA	0
16	Correct	62	386	1034	7	0	0	887468	691	0	correct_rejection	NA	0
16	Correct	63	387	1035	9	0	0	888176	692	0	correct_rejection	NA	0
16	Correct	64	388	1036	8	0	0	888885	692	0	correct_rejection	NA	0
16	Correct	65	389	1037	0	1	1	889594	691	1	hit	333	0
16	Correct	66	390	1038	7	0	0	890302	692	0	correct_rejection	NA	0
16	Correct	67	391	1039	9	0	0	891011	691	0	correct_rejection	NA	0
16	Correct	68	392	1040	8	0	0	891719	692	0	correct_rejection	NA	0
16	Correct	69	393	1041	7	0	0	892428	692	0	correct_rejection	NA	0
16	Correct	70	394	1042	7	0	0	893136	692	0	correct_rejection	NA	0
16	Correct	71	395	1043	8	0	0	893845	692	0	correct_rejection	NA	0
16	Correct	72	396	1044	9	0	0	894553	692	0	correct_rejection	NA	0
16	Correct	73	397	1045	0	1	2	895262	692	1	hit	411	0
16	Correct	74	398	1046	7	0	0	895971	691	0	correct_rejection	NA	0
16	Correct	75	399	1047	8	0	0	896679	692	0	correct_rejection	NA	0
16	Correct	76	400	1048	0	1	1	897388	691	1	hit	363	0
16	Correct	77	401	1049	9	0	0	898096	692	0	correct_rejection	NA	0
16	Correct	78	402	1050	7	0	0	898805	692	0	correct_rejection	NA	0
16	Correct	79	403	1051	8	0	0	899513	692	0	correct_rejection	NA	0
16	Correct	80	404	1052	0	1	1	900222	692	1	hit	338	0
16	Correct	81	405	1053	9	0	0	900931	691	0	correct_rejection	NA	0
16	Correct	82	406	1054	4	0	0	901639	692	0	correct_rejection	NA	0
16	Correct	83	407	1055	5	0	0	902348	691	0	correct_rejection	NA	0
16	Correct	84	408	1056	0	1	1	903056	692	1	hit	361	0
16	Correct	85	409	1057	6	0	0	903765	692	0	correct_rejection	NA	0
16	Correct	86	410	1058	4	0	0	904473	692	0	correct_rejection	NA	0
16	Correct	87	411	1059	5	0	0	905182	692	0	correct_rejection	NA	0
16	Correct	88	412	1060	6	0	0	905891	691	0	correct_rejection	NA	0
16	Correct	89	413	1061	4	0	0	906599	692	0	correct_rejection	NA	0
16	Correct	90	414	1062	5	0	0	907308	691	0	correct_rejection	NA	0
16	Correct	91	415	1063	6	0	0	908016	692	0	correct_rejection	NA	0
16	Correct	92	416	1064	6	0	0	908725	692	0	correct_rejection	NA	0
16	Correct	93	417	1065	5	0	0	909433	692	0	correct_rejection	NA	0
16	Correct	94	418	1066	4	0	0	910142	692	0	correct_rejection	NA	0
16	Correct	95	419	1067	6	0	0	910851	691	0	correct_rejection	NA	0
16	Correct	96	420	1068	5	0	0	911559	692	0	correct_rejection	NA	0
16	Correct	97	421	1069	4	0	0	912268	691	0	correct_rejection	NA	0
16	Correct	98	422	1070	6	0	0	912976	692	0	correct_rejection	NA	0
16	Correct	99	423	1071	5	0	0	913685	692	0	correct_rejection	NA	0
16	Correct	100	424	1072	4	0	0	914393	692	0	correct_rejection	NA	0
16	Correct	101	425	1073	9	0	0	915102	692	0	correct_rejection	NA	0
16	Correct	102	426	1074	8	0	0	915811	691	0	correct_rejection	NA	0
16	Correct	103	427	1075	7	0	0	916519	692	0	correct_rejection	NA	0
16	Correct	104	428	1076	0	1	2	917228	691	1	hit	374	0
16	Correct	105	429	1077	9	0	0	917936	692	0	correct_rejection	NA	0
16	Correct	106	430	1078	8	0	0	918645	691	0	correct_rejection	NA	0
16	Correct	107	431	1079	7	0	0	919353	692	0	correct_rejection	NA	0
16	Correct	108	432	1080	9	0	0	920062	692	0	correct_rejection	NA	0
16	Correct	109	433	1081	8	0	0	920770	692	0	correct_rejection	NA	0
16	Correct	110	434	1082	7	0	0	921479	692	0	correct_rejection	NA	0
16	Correct	111	435	1083	0	1	3	922188	691	1	hit	363	0
16	Correct	112	436	1084	7	0	0	922896	692	0	correct_rejection	NA	0
16	Correct	113	437	1085	8	0	0	923605	691	0	correct_rejection	NA	0
16	Correct	114	438	1086	9	0	0	924313	692	0	correct_rejection	NA	0
16	Correct	115	439	1087	7	0	0	925022	692	0	correct_rejection	NA	0
16	Correct	116	440	1088	0	1	1	925730	692	1	hit	367	0
16	Correct	117	441	1089	8	0	0	926439	692	0	correct_rejection	NA	0
16	Correct	118	442	1090	9	0	0	927148	691	0	correct_rejection	NA	0
16	Correct	119	443	1091	7	0	0	927856	692	0	correct_rejection	NA	0
16	Correct	120	444	1092	0	1	1	928565	691	1	hit	329	0
16	Correct	121	445	1093	8	0	0	929273	692	0	correct_rejection	NA	0
16	Correct	122	446	1094	9	0	0	929982	692	0	correct_rejection	NA	0
16	Correct	123	447	1095	4	0	0	930690	692	0	correct_rejection	NA	0
16	Correct	124	448	1096	5	0	0	931399	692	0	correct_rejection	NA	0
16	Correct	125	449	1097	6	0	0	932108	691	0	correct_rejection	NA	0
16	Correct	126	450	1098	4	0	0	932816	692	0	correct_rejection	NA	0
16	Correct	127	451	1099	0	1	1	933525	691	1	hit	368	0
16	Correct	128	452	1100	5	0	0	934233	692	0	correct_rejection	NA	0
16	Correct	129	453	1101	6	0	0	934942	692	0	correct_rejection	NA	0
16	Correct	130	454	1102	4	0	0	935650	692	0	correct_rejection	NA	0
16	Correct	131	455	1103	5	0	0	936359	692	0	correct_rejection	NA	0
16	Correct	132	456	1104	6	0	0	937068	691	0	correct_rejection	NA	0
16	Correct	133	457	1105	6	0	0	937776	692	0	correct_rejection	NA	0
16	Correct	134	458	1106	5	0	0	938485	691	0	correct_rejection	NA	0
16	Correct	135	459	1107	0	1	1	939193	692	1	hit	435	0
16	Correct	136	460	1108	4	0	0	939902	691	0	correct_rejection	NA	0
16	Correct	137	461	1109	6	0	0	940610	692	0	correct_rejection	NA	0
16	Correct	138	462	1110	5	0	0	941319	692	0	correct_rejection	NA	0
16	Correct	139	463	1111	4	0	0	942028	691	0	correct_rejection	NA	0
16	Correct	140	464	1112	6	0	0	942736	692	0	correct_rejection	NA	0
16	Correct	141	465	1113	5	0	0	943445	691	0	correct_rejection	NA	0
16	Correct	142	466	1114	4	0	0	944153	692	0	correct_rejection	NA	0
16	Correct	143	467	1115	9	0	0	944862	691	0	correct_rejection	NA	0
16	Correct	144	468	1116	8	0	0	945570	692	0	correct_rejection	NA	0
16	Correct	145	469	1117	7	0	0	946279	692	0	correct_rejection	NA	0
16	Correct	146	470	1118	9	0	0	946987	692	0	correct_rejection	NA	0
16	Correct	147	471	1119	0	1	1	947696	692	1	hit	390	0
16	Correct	148	472	1120	8	0	0	948405	691	0	correct_rejection	NA	0
16	Correct	149	473	1121	7	0	0	949113	692	0	correct_rejection	NA	0
16	Correct	150	474	1122	9	0	0	949822	691	0	correct_rejection	NA	0
16	Correct	151	475	1123	8	0	0	950530	692	0	correct_rejection	NA	0
16	Correct	152	476	1124	7	0	0	951239	692	0	correct_rejection	NA	0
16	Correct	153	477	1125	7	0	0	951947	692	0	correct_rejection	NA	0
16	Correct	154	478	1126	8	0	0	952656	692	0	correct_rejection	NA	0
16	Correct	155	479	1127	9	0	0	953365	691	0	correct_rejection	NA	0
16	Correct	156	480	1128	0	1	2	954073	692	1	hit	306	0
16	Correct	157	481	1129	7	0	0	954782	691	0	correct_rejection	NA	0
16	Correct	158	482	1130	8	0	0	955490	692	0	correct_rejection	NA	0
16	Correct	159	483	1131	9	0	0	956199	692	0	correct_rejection	NA	0
16	Correct	160	484	1132	7	0	0	956907	692	0	correct_rejection	NA	0
16	Correct	161	485	1133	8	0	0	957616	692	0	correct_rejection	NA	0
16	Correct	162	486	1134	9	0	0	958325	691	0	correct_rejection	NA	0
16	Single	1	649	1135	8	0	0	967769	692	0	correct_rejection	NA	7328
16	Single	2	650	1136	9	0	0	968478	692	0	correct_rejection	NA	0
16	Single	3	651	1137	8	0	0	969186	692	0	correct_rejection	NA	0
16	Single	4	652	1138	5	0	0	969895	692	0	correct_rejection	NA	0
16	Single	5	653	1139	4	0	0	970604	691	0	correct_rejection	NA	0
16	Single	6	654	1140	4	0	0	971312	692	0	correct_rejection	NA	0
16	Single	7	655	1141	9	0	0	972021	691	0	correct_rejection	NA	0
16	Single	8	656	1142	9	0	0	972729	692	0	correct_rejection	NA	0
16	Single	9	657	1143	4	0	0	973438	692	0	correct_rejection	NA	0
16	Single	10	658	1144	7	0	0	974146	692	0	correct_rejection	NA	0
16	Single	11	659	1145	4	0	0	974855	692	0	correct_rejection	NA	0
16	Single	12	660	1146	5	0	0	975564	691	0	correct_rejection	NA	0
16	Single	13	661	1147	7	0	0	976272	692	0	correct_rejection	NA	0
16	Single	14	662	1148	6	0	0	976981	691	0	correct_rejection	NA	0
16	Single	15	663	1149	8	0	0	977689	692	0	correct_rejection	NA	0
16	Single	16	664	1150	7	0	0	978398	692	0	correct_rejection	NA	0
16	Single	17	665	1151	5	0	0	979106	692	0	correct_rejection	NA	0
16	Single	18	666	1152	5	0	0	979815	692	0	correct_rejection	NA	0
16	Single	19	667	1153	9	0	0	980524	691	0	correct_rejection	NA	0
16	Single	20	668	1154	5	0	0	981232	692	0	correct_rejection	NA	0
16	Single	21	669	1155	0	1	1	981941	691	1	hit	406	0
16	Single	22	670	1156	8	0	0	982649	692	0	correct_rejection	NA	0
16	Single	23	671	1157	6	0	0	983358	692	0	correct_rejection	NA	0
16	Single	24	672	1158	5	0	0	984066	692	0	correct_rejection	NA	0
16	Single	25	673	1159	6	0	0	984775	692	0	correct_rejection	NA	0
16	Single	26	674	1160	6	0	0	985484	691	0	correct_rejection	NA	0
16	Single	27	675	1161	7	0	0	986192	692	0	correct_rejection	NA	0
16	Single	28	676	1162	9	0	0	986901	691	0	correct_rejection	NA	0
16	Single	29	677	1163	6	0	0	987609	692	0	correct_rejection	NA	0
16	Single	30	678	1164	9	0	0	988318	691	0	correct_rejection	NA	0
16	Single	31	679	1165	7	0	0	989026	692	0	correct_rejection	NA	0
16	Single	32	680	1166	7	0	0	989735	692	0	correct_rejection	NA	0
16	Single	33	681	1167	0	1	1	990444	691	1	hit	435	0
16	Single	34	682	1168	8	0	0	991152	692	0	correct_rejection	NA	0
16	Single	35	683	1169	8	0	0	991861	691	0	correct_rejection	NA	0
16	Single	36	684	1170	4	0	0	992569	692	0	correct_rejection	NA	0
16	Single	37	685	1171	6	0	0	993278	691	0	correct_rejection	NA	0
16	Single	38	686	1172	4	0	0	993986	692	0	correct_rejection	NA	0
16	Single	39	687	1173	7	0	0	994695	692	0	correct_rejection	NA	0
16	Single	40	688	1174	9	0	0	995403	692	0	correct_rejection	NA	0
16	Single	41	689	1175	5	0	0	996112	692	0	correct_rejection	NA	0
16	Single	42	690	1176	9	0	0	996821	691	0	correct_rejection	NA	0
16	Single	43	691	1177	4	0	0	997529	692	0	correct_rejection	NA	0
16	Single	44	692	1178	8	0	0	998238	691	0	correct_rejection	NA	0
16	Single	45	693	1179	4	0	0	998946	692	0	correct_rejection	NA	0
16	Single	46	694	1180	9	0	0	999655	692	0	correct_rejection	NA	0
16	Single	47	695	1181	7	0	0	1000363	692	0	correct_rejection	NA	0
16	Single	48	696	1182	8	0	0	1001072	692	0	correct_rejection	NA	0
16	Single	49	697	1183	9	0	0	1001781	691	0	correct_rejection	NA	0
16	Single	50	698	1184	6	0	0	1002489	692	0	correct_rejection	NA	0
16	Single	51	699	1185	8	0	0	1003198	691	0	correct_rejection	NA	0
16	Single	52	700	1186	8	0	0	1003906	692	0	correct_rejection	NA	0
16	Single	53	701	1187	5	0	0	1004615	692	0	correct_rejection	NA	0
16	Single	54	702	1188	8	0	0	1005323	692	0	correct_rejection	NA	0
16	Single	55	703	1189	7	0	0	1006032	692	0	correct_rejection	NA	0
16	Single	56	704	1190	7	0	0	1006741	691	0	correct_rejection	NA	0
16	Single	57	705	1191	4	0	0	1007449	692	0	correct_rejection	NA	0
16	Single	58	706	1192	0	1	1	1008158	691	1	hit	400	0
16	Single	59	707	1193	4	0	0	1008866	692	0	correct_rejection	NA	0
16	Single	60	708	1194	6	0	0	1009575	692	0	correct_rejection	NA	0
16	Single	61	709	1195	5	0	0	1010283	692	0	correct_rejection	NA	0
16	Single	62	710	1196	4	0	0	1010992	692	0	correct_rejection	NA	0
16	Single	63	711	1197	7	0	0	1011701	691	0	correct_rejection	NA	0
16	Single	64	712	1198	6	0	0	1012409	692	0	correct_rejection	NA	0
16	Single	65	713	1199	6	0	0	1013118	691	0	correct_rejection	NA	0
16	Single	66	714	1200	9	0	0	1013826	692	0	correct_rejection	NA	0
16	Single	67	715	1201	0	1	1	1014535	691	1	hit	373	0
16	Single	68	716	1202	9	0	0	1015243	692	0	correct_rejection	NA	0
16	Single	69	717	1203	8	0	0	1015952	692	0	correct_rejection	NA	0
16	Single	70	718	1204	0	1	1	1016661	691	1	hit	372	0
16	Single	71	719	1205	6	0	0	1017369	692	0	correct_rejection	NA	0
16	Single	72	720	1206	4	0	0	1018078	691	0	correct_rejection	NA	0
16	Single	73	721	1207	5	0	0	1018786	692	0	correct_rejection	NA	0
16	Single	74	722	1208	5	0	0	1019495	691	0	correct_rejection	NA	0
16	Single	75	723	1209	0	1	1	1020203	692	1	hit	353	0
16	Single	76	724	1210	6	0	0	1020912	692	0	correct_rejection	NA	0
16	Single	77	725	1211	7	0	0	1021620	692	0	correct_rejection	NA	0
16	Single	78	726	1212	0	1	1	1022329	692	1	hit	360	0
16	Single	79	727	1213	5	0	0	1023038	691	0	correct_rejection	NA	0
16	Single	80	728	1214	5	0	0	1023746	692	0	correct_rejection	NA	0
16	Single	81	729	1215	4	0	0	1024455	691	0	correct_rejection	NA	0
16	Single	82	730	1216	0	1	1	1025163	692	1	hit	325	0
16	Single	83	731	1217	9	0	0	1025872	692	0	correct_rejection	NA	0
16	Single	84	732	1218	5	0	0	1026580	692	0	correct_rejection	NA	0
16	Single	85	733	1219	6	0	0	1027289	692	0	correct_rejection	NA	0
16	Single	86	734	1220	4	0	0	1027998	691	0	correct_rejection	NA	0
16	Single	87	735	1221	0	1	1	1028706	692	1	hit	347	0
16	Single	88	736	1222	7	0	0	1029415	691	0	correct_rejection	NA	0
16	Single	89	737	1223	9	0	0	1030123	692	0	correct_rejection	NA	0
16	Single	90	738	1224	8	0	0	1030832	692	0	correct_rejection	NA	0
16	Single	91	739	1225	8	0	0	1031540	692	0	correct_rejection	NA	0
16	Single	92	740	1226	7	0	0	1032249	692	0	correct_rejection	NA	0
16	Single	93	741	1227	8	0	0	1032958	691	0	correct_rejection	NA	0
16	Single	94	742	1228	0	1	1	1033666	692	1	hit	383	0
16	Single	95	743	1229	4	0	0	1034375	691	0	correct_rejection	NA	0
16	Single	96	744	1230	8	0	0	1035083	692	0	correct_rejection	NA	0
16	Single	97	745	1231	5	0	0	1035792	692	0	correct_rejection	NA	0
16	Single	98	746	1232	5	0	0	1036500	692	0	correct_rejection	NA	0
16	Single	99	747	1233	8	0	0	1037209	692	0	correct_rejection	NA	0
16	Single	100	748	1234	9	0	0	1037918	691	0	correct_rejection	NA	0
16	Single	101	749	1235	4	0	0	1038626	692	0	correct_rejection	NA	0
16	Single	102	750	1236	4	0	0	1039335	691	0	correct_rejection	NA	0
16	Single	103	751	1237	0	1	1	1040043	692	1	hit	360	0
16	Single	104	752	1238	5	0	0	1040752	691	0	correct_rejection	NA	0
16	Single	105	753	1239	9	0	0	1041460	692	0	correct_rejection	NA	0
16	Single	106	754	1240	9	0	0	1042169	692	0	correct_rejection	NA	0
16	Single	107	755	1241	7	0	0	1042878	691	0	correct_rejection	NA	0
16	Single	108	756	1242	6	0	0	1043586	692	0	correct_rejection	NA	0
16	Single	109	757	1243	7	0	0	1044295	691	0	correct_rejection	NA	0
16	Single	110	758	1244	7	0	0	1045003	692	0	correct_rejection	NA	0
16	Single	111	759	1245	5	0	0	1045712	691	0	correct_rejection	NA	0
16	Single	112	760	1246	0	1	1	1046420	692	1	hit	374	0
16	Single	113	761	1247	7	0	0	1047129	692	0	correct_rejection	NA	0
16	Single	114	762	1248	4	0	0	1047837	692	0	correct_rejection	NA	0
16	Single	115	763	1249	6	0	0	1048546	692	0	correct_rejection	NA	0
16	Single	116	764	1250	9	0	0	1049255	691	0	correct_rejection	NA	0
16	Single	117	765	1251	6	0	0	1049963	692	0	correct_rejection	NA	0
16	Single	118	766	1252	6	0	0	1050672	691	0	correct_rejection	NA	0
16	Single	119	767	1253	8	0	0	1051380	692	0	correct_rejection	NA	0
16	Single	120	768	1254	6	0	0	1052089	692	0	correct_rejection	NA	0
16	Single	121	769	1255	0	1	1	1052797	692	1	hit	449	0
16	Single	122	770	1256	7	0	0	1053506	692	0	correct_rejection	NA	0
16	Single	123	771	1257	7	0	0	1054215	691	0	correct_rejection	NA	0
16	Single	124	772	1258	8	0	0	1054923	692	0	correct_rejection	NA	0
16	Single	125	773	1259	7	0	0	1055632	691	0	correct_rejection	NA	0
16	Single	126	774	1260	6	0	0	1056340	692	0	correct_rejection	NA	0
16	Single	127	775	1261	9	0	0	1057049	692	0	correct_rejection	NA	0
16	Single	128	776	1262	7	0	0	1057757	692	0	correct_rejection	NA	0
16	Single	129	777	1263	0	1	1	1058466	692	1	hit	390	0
16	Single	130	778	1264	4	0	0	1059175	691	0	correct_rejection	NA	0
16	Single	131	779	1265	9	0	0	1059883	692	0	correct_rejection	NA	0
16	Single	132	780	1266	6	0	0	1060592	691	0	correct_rejection	NA	0
16	Single	133	781	1267	5	0	0	1061300	692	0	correct_rejection	NA	0
16	Single	134	782	1268	6	0	0	1062009	692	0	correct_rejection	NA	0
16	Single	135	783	1269	0	1	1	1062717	692	1	hit	376	0
16	Single	136	784	1270	6	0	0	1063426	692	0	correct_rejection	NA	0
16	Single	137	785	1271	7	0	0	1064135	691	0	correct_rejection	NA	0
16	Single	138	786	1272	9	0	0	1064843	692	0	correct_rejection	NA	0
16	Single	139	787	1273	9	0	0	1065552	691	0	correct_rejection	NA	0
16	Single	140	788	1274	4	0	0	1066260	692	0	correct_rejection	NA	0
16	Single	141	789	1275	5	0	0	1066969	691	0	correct_rejection	NA	0
16	Single	142	790	1276	8	0	0	1067677	692	0	correct_rejection	NA	0
16	Single	143	791	1277	6	0	0	1068386	692	0	correct_rejection	NA	0
16	Single	144	792	1278	8	0	0	1069094	692	0	correct_rejection	NA	0
16	Single	145	793	1279	9	0	0	1069803	692	0	correct_rejection	NA	0
16	Single	146	794	1280	5	0	0	1070512	691	0	correct_rejection	NA	0
16	Single	147	795	1281	7	0	0	1071220	692	0	correct_rejection	NA	0
16	Single	148	796	1282	5	0	0	1071929	691	0	correct_rejection	NA	0
16	Single	149	797	1283	5	0	0	1072637	692	0	correct_rejection	NA	0
16	Single	150	798	1284	9	0	0	1073346	692	0	correct_rejection	NA	0
16	Single	151	799	1285	8	0	0	1074054	692	0	correct_rejection	NA	0
16	Single	152	800	1286	0	1	1	1074763	692	1	hit	412	0
16	Single	153	801	1287	5	0	0	1075472	691	0	correct_rejection	NA	0
16	Single	154	802	1288	4	0	0	1076180	692	0	correct_rejection	NA	0
16	Single	155	803	1289	6	0	0	1076889	691	0	correct_rejection	NA	0
16	Single	156	804	1290	0	1	1	1077597	692	1	hit	386	0
16	Single	157	805	1291	4	0	0	1078306	692	0	correct_rejection	NA	0
16	Single	158	806	1292	4	0	0	1079014	692	0	correct_rejection	NA	0
16	Single	159	807	1293	8	0	0	1079723	692	0	correct_rejection	NA	0
16	Single	160	808	1294	0	1	1	1080432	691	1	hit	401	0
16	Single	161	809	1295	8	0	0	1081140	692	0	correct_rejection	NA	0
16	Single	162	810	1296	4	0	0	1081849	691	0	correct_rejection	NA	0
16	Correct	1	487	1297	4	0	0	1092152	692	0	correct_rejection	NA	7709
16	Correct	2	488	1298	5	0	0	1092861	691	0	correct_rejection	NA	0
16	Correct	3	489	1299	6	0	0	1093569	692	0	correct_rejection	NA	0
16	Correct	4	490	1300	4	0	0	1094278	692	0	correct_rejection	NA	0
16	Correct	5	491	1301	0	1	1	1094986	692	1	hit	437	0
16	Correct	6	492	1302	5	0	0	1095695	692	0	correct_rejection	NA	0
16	Correct	7	493	1303	6	0	0	1096404	691	0	correct_rejection	NA	0
16	Correct	8	494	1304	0	1	2	1097112	692	1	hit	370	0
16	Correct	9	495	1305	4	0	0	1097821	691	0	correct_rejection	NA	0
16	Correct	10	496	1306	5	0	0	1098529	692	0	correct_rejection	NA	0
16	Correct	11	497	1307	6	0	0	1099238	691	0	correct_rejection	NA	0
16	Correct	12	498	1308	6	0	0	1099946	692	0	correct_rejection	NA	0
16	Correct	13	499	1309	5	0	0	1100655	692	0	correct_rejection	NA	0
16	Correct	14	500	1310	4	0	0	1101363	692	0	correct_rejection	NA	0
16	Correct	15	501	1311	0	1	2	1102072	692	1	hit	336	0
16	Correct	16	502	1312	6	0	0	1102781	691	0	correct_rejection	NA	0
16	Correct	17	503	1313	5	0	0	1103489	692	0	correct_rejection	NA	0
16	Correct	18	504	1314	4	0	0	1104198	691	0	correct_rejection	NA	0
16	Correct	19	505	1315	6	0	0	1104906	692	0	correct_rejection	NA	0
16	Correct	20	506	1316	0	1	1	1105615	692	1	hit	318	0
16	Correct	21	507	1317	5	0	0	1106323	692	0	correct_rejection	NA	0
16	Correct	22	508	1318	4	0	0	1107032	692	0	correct_rejection	NA	0
16	Correct	23	509	1319	9	0	0	1107741	691	0	correct_rejection	NA	0
16	Correct	24	510	1320	8	0	0	1108449	692	0	correct_rejection	NA	0
16	Correct	25	511	1321	7	0	0	1109158	691	0	correct_rejection	NA	0
16	Correct	26	512	1322	9	0	0	1109866	692	0	correct_rejection	NA	0
16	Correct	27	513	1323	0	1	1	1110575	692	1	hit	326	0
16	Correct	28	514	1324	8	0	0	1111283	692	0	correct_rejection	NA	0
16	Correct	29	515	1325	7	0	0	1111992	692	0	correct_rejection	NA	0
16	Correct	30	516	1326	9	0	0	1112701	691	0	correct_rejection	NA	0
16	Correct	31	517	1327	8	0	0	1113409	692	0	correct_rejection	NA	0
16	Correct	32	518	1328	0	1	1	1114118	691	1	hit	325	0
16	Correct	33	519	1329	7	0	0	1114826	692	0	correct_rejection	NA	0
16	Correct	34	520	1330	7	0	0	1115535	692	0	correct_rejection	NA	0
16	Correct	35	521	1331	8	0	0	1116243	692	0	correct_rejection	NA	0
16	Correct	36	522	1332	9	0	0	1116952	692	0	correct_rejection	NA	0
16	Correct	37	523	1333	7	0	0	1117661	691	0	correct_rejection	NA	0
16	Correct	38	524	1334	8	0	0	1118369	692	0	correct_rejection	NA	0
16	Correct	39	525	1335	9	0	0	1119078	691	0	correct_rejection	NA	0
16	Correct	40	526	1336	7	0	0	1119786	692	0	correct_rejection	NA	0
16	Correct	41	527	1337	8	0	0	1120495	692	0	correct_rejection	NA	0
16	Correct	42	528	1338	9	0	0	1121203	692	0	correct_rejection	NA	0
16	Correct	43	529	1339	4	0	0	1121912	692	0	correct_rejection	NA	0
16	Correct	44	530	1340	5	0	0	1122621	691	0	correct_rejection	NA	0
16	Correct	45	531	1341	6	0	0	1123329	692	0	correct_rejection	NA	0
16	Correct	46	532	1342	4	0	0	1124038	691	0	correct_rejection	NA	0
16	Correct	47	533	1343	5	0	0	1124746	692	0	correct_rejection	NA	0
16	Correct	48	534	1344	6	0	0	1125455	691	0	correct_rejection	NA	0
16	Correct	49	535	1345	4	0	0	1126163	692	0	correct_rejection	NA	0
16	Correct	50	536	1346	5	0	0	1126872	692	0	correct_rejection	NA	0
16	Correct	51	537	1347	0	1	1	1127581	691	1	hit	397	0
16	Correct	52	538	1348	6	0	0	1128289	692	0	correct_rejection	NA	0
16	Correct	53	539	1349	6	0	0	1128998	691	0	correct_rejection	NA	0
16	Correct	54	540	1350	5	0	0	1129706	692	0	correct_rejection	NA	0
16	Correct	55	541	1351	4	0	0	1130415	691	0	correct_rejection	NA	0
16	Correct	56	542	1352	6	0	0	1131123	692	0	correct_rejection	NA	0
16	Correct	57	543	1353	5	0	0	1131832	692	0	correct_rejection	NA	0
16	Correct	58	544	1354	4	0	0	1132540	692	0	correct_rejection	NA	0
16	Correct	59	545	1355	0	1	2	1133249	692	1	hit	378	0
16	Correct	60	546	1356	6	0	0	1133958	691	0	correct_rejection	NA	0
16	Correct	61	547	1357	5	0	0	1134666	692	0	correct_rejection	NA	0
16	Correct	62	548	1358	0	1	1	1135375	691	1	hit	354	0
16	Correct	63	549	1359	4	0	0	1136083	692	0	correct_rejection	NA	0
16	Correct	64	550	1360	9	0	0	1136792	692	0	correct_rejection	NA	0
16	Correct	65	551	1361	0	1	1	1137500	692	1	hit	310	0
16	Correct	66	552	1362	8	0	0	1138209	692	0	correct_rejection	NA	0
16	Correct	67	553	1363	7	0	0	1138918	691	0	correct_rejection	NA	0
16	Correct	68	554	1364	9	0	0	1139626	692	0	correct_rejection	NA	0
16	Correct	69	555	1365	8	0	0	1140335	691	0	correct_rejection	NA	0
16	Correct	70	556	1366	0	1	1	1141043	692	1	hit	349	0
16	Correct	71	557	1367	7	0	0	1141752	692	0	correct_rejection	NA	0
16	Correct	72	558	1368	9	0	0	1142460	692	0	correct_rejection	NA	0
16	Correct	73	559	1369	8	0	0	1143169	692	0	correct_rejection	NA	0
16	Correct	74	560	1370	7	0	0	1143878	691	0	correct_rejection	NA	0
16	Correct	75	561	1371	7	0	0	1144586	692	0	correct_rejection	NA	0
16	Correct	76	562	1372	8	0	0	1145295	691	0	correct_rejection	NA	0
16	Correct	77	563	1373	9	0	0	1146003	692	0	correct_rejection	NA	0
16	Correct	78	564	1374	7	0	0	1146712	692	0	correct_rejection	NA	0
16	Correct	79	565	1375	8	0	0	1147420	692	0	correct_rejection	NA	0
16	Correct	80	566	1376	9	0	0	1148129	692	0	correct_rejection	NA	0
16	Correct	81	567	1377	7	0	0	1148838	691	0	correct_rejection	NA	0
16	Correct	82	568	1378	8	0	0	1149546	692	0	correct_rejection	NA	0
16	Correct	83	569	1379	9	0	0	1150255	691	0	correct_rejection	NA	0
16	Correct	84	570	1380	4	0	0	1150963	692	0	correct_rejection	NA	0
16	Correct	85	571	1381	5	0	0	1151672	691	0	correct_rejection	NA	0
16	Correct	86	572	1382	6	0	0	1152380	692	0	correct_rejection	NA	0
16	Correct	87	573	1383	4	0	0	1153089	692	0	correct_rejection	NA	0
16	Correct	88	574	1384	5	0	0	1153797	692	0	correct_rejection	NA	0
16	Correct	89	575	1385	0	1	1	1154506	692	1	hit	345	0
16	Correct	90	576	1386	6	0	0	1155215	691	0	correct_rejection	NA	0
16	Correct	91	577	1387	4	0	0	1155923	692	0	correct_rejection	NA	0
16	Correct	92	578	1388	5	0	0	1156632	691	0	correct_rejection	NA	0
16	Correct	93	579	1389	6	0	0	1157340	692	0	correct_rejection	NA	0
16	Correct	94	580	1390	6	0	0	1158049	692	0	correct_rejection	NA	0
16	Correct	95	581	1391	0	1	1	1158757	692	1	hit	349	0
16	Correct	96	582	1392	5	0	0	1159466	692	0	correct_rejection	NA	0
16	Correct	97	583	1393	4	0	0	1160175	691	0	correct_rejection	NA	0
16	Correct	98	584	1394	6	0	0	1160883	692	0	correct_rejection	NA	0
16	Correct	99	585	1395	5	0	0	1161592	691	0	correct_rejection	NA	0
16	Correct	100	586	1396	4	0	0	1162300	692	0	correct_rejection	NA	0
16	Correct	101	587	1397	6	0	0	1163009	692	0	correct_rejection	NA	0
16	Correct	102	588	1398	5	0	0	1163717	692	0	correct_rejection	NA	0
16	Correct	103	589	1399	4	0	0	1164426	692	0	correct_rejection	NA	0
16	Correct	104	590	1400	9	0	0	1165135	691	0	correct_rejection	NA	0
16	Correct	105	591	1401	8	0	0	1165843	692	0	correct_rejection	NA	0
16	Correct	106	592	1402	7	0	0	1166552	691	0	correct_rejection	NA	0
16	Correct	107	593	1403	9	0	0	1167260	692	0	correct_rejection	NA	0
16	Correct	108	594	1404	8	0	0	1167969	692	0	correct_rejection	NA	0
16	Correct	109	595	1405	7	0	0	1168677	692	0	correct_rejection	NA	0
16	Correct	110	596	1406	9	0	0	1169386	692	0	correct_rejection	NA	0
16	Correct	111	597	1407	8	0	0	1170095	691	0	correct_rejection	NA	0
16	Correct	112	598	1408	7	0	0	1170803	692	0	correct_rejection	NA	0
16	Correct	113	599	1409	7	0	0	1171512	691	0	correct_rejection	NA	0
16	Correct	114	600	1410	8	0	0	1172220	692	0	correct_rejection	NA	0
16	Correct	115	601	1411	0	1	1	1172929	692	1	hit	513	0
16	Correct	116	602	1412	9	0	0	1173637	692	0	correct_rejection	NA	0
16	Correct	117	603	1413	7	0	0	1174346	692	0	correct_rejection	NA	0
16	Correct	118	604	1414	8	0	0	1175055	691	0	correct_rejection	NA	0
16	Correct	119	605	1415	9	0	0	1175763	692	0	correct_rejection	NA	0
16	Correct	120	606	1416	7	0	0	1176472	691	0	correct_rejection	NA	0
16	Correct	121	607	1417	8	0	0	1177180	692	0	correct_rejection	NA	0
16	Correct	122	608	1418	9	0	0	1177889	691	0	correct_rejection	NA	0
16	Correct	123	609	1419	0	1	4	1178597	692	1	hit	455	0
16	Correct	124	610	1420	4	0	0	1179306	692	0	correct_rejection	NA	0
16	Correct	125	611	1421	5	0	0	1180014	692	0	correct_rejection	NA	0
16	Correct	126	612	1422	6	0	0	1180723	692	0	correct_rejection	NA	0
16	Correct	127	613	1423	4	0	0	1181432	691	0	correct_rejection	NA	0
16	Correct	128	614	1424	5	0	0	1182140	692	0	correct_rejection	NA	0
16	Correct	129	615	1425	6	0	0	1182849	691	0	correct_rejection	NA	0
16	Correct	130	616	1426	0	1	2	1183557	692	1	hit	343	0
16	Correct	131	617	1427	4	0	0	1184266	692	0	correct_rejection	NA	0
16	Correct	132	618	1428	5	0	0	1184974	692	0	correct_rejection	NA	0
16	Correct	133	619	1429	6	0	0	1185683	692	0	correct_rejection	NA	0
16	Correct	134	620	1430	6	0	0	1186392	691	0	correct_rejection	NA	0
16	Correct	135	621	1431	5	0	0	1187100	692	0	correct_rejection	NA	0
16	Correct	136	622	1432	4	0	0	1187809	691	0	correct_rejection	NA	0
16	Correct	137	623	1433	6	0	0	1188517	692	0	correct_rejection	NA	0
16	Correct	138	624	1434	5	0	0	1189226	692	0	correct_rejection	NA	0
16	Correct	139	625	1435	0	1	1	1189934	692	1	hit	372	0
16	Correct	140	626	1436	4	0	0	1190643	692	0	correct_rejection	NA	0
16	Correct	141	627	1437	6	0	0	1191352	691	0	correct_rejection	NA	0
16	Correct	142	628	1438	5	0	0	1192060	692	0	correct_rejection	NA	0
16	Correct	143	629	1439	4	0	0	1192769	691	0	correct_rejection	NA	0
16	Correct	144	630	1440	0	1	3	1193477	692	1	hit	279	0
16	Correct	145	631	1441	9	0	0	1194186	692	0	correct_rejection	NA	0
16	Correct	146	632	1442	8	0	0	1194894	692	0	correct_rejection	NA	0
16	Correct	147	633	1443	7	0	0	1195603	692	0	correct_rejection	NA	0
16	Correct	148	634	1444	9	0	0	1196312	691	0	correct_rejection	NA	0
16	Correct	149	635	1445	8	0	0	1197020	692	0	correct_rejection	NA	0
16	Correct	150	636	1446	7	0	0	1197729	691	0	correct_rejection	NA	0
16	Correct	151	637	1447	9	0	0	1198437	692	0	correct_rejection	NA	0
16	Correct	152	638	1448	8	0	0	1199146	692	0	correct_rejection	NA	0
16	Correct	153	639	1449	7	0	0	1199854	692	0	correct_rejection	NA	0
16	Correct	154	640	1450	7	0	0	1200563	692	0	correct_rejection	NA	0
16	Correct	155	641	1451	8	0	0	1201272	691	0	correct_rejection	NA	0
16	Correct	156	642	1452	9	0	0	1201980	692	0	correct_rejection	NA	0
16	Correct	157	643	1453	7	0	0	1202689	691	0	correct_rejection	NA	0
16	Correct	158	644	1454	8	0	0	1203397	692	0	correct_rejection	NA	0
16	Correct	159	645	1455	9	0	0	1204106	691	0	correct_rejection	NA	0
16	Correct	160	646	1456	7	0	0	1204814	692	0	correct_rejection	NA	0
16	Correct	161	647	1457	8	0	0	1205523	692	0	correct_rejection	NA	0
16	Correct	162	648	1458	9	0	0	1206231	692	0	correct_rejection	NA	0
16	Triplet	1	325	1459	6	0	0	1214818	691	0	correct_rejection	NA	6379
16	Triplet	2	326	1460	5	0	0	1215526	692	0	correct_rejection	NA	0
16	Triplet	3	327	1461	4	0	0	1216235	691	0	correct_rejection	NA	0
16	Triplet	4	328	1462	6	0	0	1216943	692	0	correct_rejection	NA	0
16	Triplet	5	329	1463	5	0	0	1217652	692	0	correct_rejection	NA	0
16	Triplet	6	330	1464	4	0	0	1218361	691	0	correct_rejection	NA	0
16	Triplet	7	331	1465	9	0	0	1219069	692	0	correct_rejection	NA	0
16	Triplet	8	332	1466	8	0	0	1219778	691	0	correct_rejection	NA	0
16	Triplet	9	333	1467	7	0	0	1220486	692	0	correct_rejection	NA	0
16	Triplet	10	334	1468	9	0	0	1221195	691	0	correct_rejection	NA	0
16	Triplet	11	335	1469	8	0	0	1221903	692	0	correct_rejection	NA	0
16	Triplet	12	336	1470	7	0	0	1222612	692	0	correct_rejection	NA	0
16	Triplet	13	337	1471	7	0	0	1223320	692	0	correct_rejection	NA	0
16	Triplet	14	338	1472	0	1	1	1224029	692	1	hit	529	0
16	Triplet	15	339	1473	8	0	0	1224738	691	0	correct_rejection	NA	0
16	Triplet	16	340	1474	9	0	0	1225446	692	0	correct_rejection	NA	0
16	Triplet	17	341	1475	9	0	0	1226155	691	0	correct_rejection	NA	0
16	Triplet	18	342	1476	8	0	0	1226863	692	0	correct_rejection	NA	0
16	Triplet	19	343	1477	7	0	0	1227572	692	0	correct_rejection	NA	0
16	Triplet	20	344	1478	6	0	0	1228280	692	0	correct_rejection	NA	0
16	Triplet	21	345	1479	5	0	0	1228989	692	0	correct_rejection	NA	0
16	Triplet	22	346	1480	4	0	0	1229698	691	0	correct_rejection	NA	0
16	Triplet	23	347	1481	7	0	0	1230406	692	0	correct_rejection	NA	0
16	Triplet	24	348	1482	8	0	0	1231115	691	0	correct_rejection	NA	0
16	Triplet	25	349	1483	9	0	0	1231823	692	0	correct_rejection	NA	0
16	Triplet	26	350	1484	4	0	0	1232532	692	0	correct_rejection	NA	0
16	Triplet	27	351	1485	5	0	0	1233240	692	0	correct_rejection	NA	0
16	Triplet	28	352	1486	6	0	0	1233949	692	0	correct_rejection	NA	0
16	Triplet	29	353	1487	6	0	0	1234658	691	0	correct_rejection	NA	0
16	Triplet	30	354	1488	0	1	1	1235366	692	1	hit	384	0
16	Triplet	31	355	1489	5	0	0	1236075	691	0	correct_rejection	NA	0
16	Triplet	32	356	1490	4	0	0	1236783	692	0	correct_rejection	NA	0
16	Triplet	33	357	1491	4	0	0	1237492	692	0	correct_rejection	NA	0
16	Triplet	34	358	1492	5	0	0	1238200	692	0	correct_rejection	NA	0
16	Triplet	35	359	1493	6	0	0	1238909	692	0	correct_rejection	NA	0
16	Triplet	36	360	1494	9	0	0	1239618	691	0	correct_rejection	NA	0
16	Triplet	37	361	1495	8	0	0	1240326	692	0	correct_rejection	NA	0
16	Triplet	38	362	1496	7	0	0	1241035	691	0	correct_rejection	NA	0
16	Triplet	39	363	1497	4	0	0	1241743	692	0	correct_rejection	NA	0
16	Triplet	40	364	1498	5	0	0	1242452	691	0	correct_rejection	NA	0
16	Triplet	41	365	1499	6	0	0	1243160	692	0	correct_rejection	NA	0
16	Triplet	42	366	1500	4	0	0	1243869	692	0	correct_rejection	NA	0
16	Triplet	43	367	1501	0	1	1	1244578	691	1	hit	431	0
16	Triplet	44	368	1502	5	0	0	1245286	692	0	correct_rejection	NA	0
16	Triplet	45	369	1503	6	0	0	1245995	691	0	correct_rejection	NA	0
16	Triplet	46	370	1504	7	0	0	1246703	692	0	correct_rejection	NA	0
16	Triplet	47	371	1505	8	0	0	1247412	691	0	correct_rejection	NA	0
16	Triplet	48	372	1506	9	0	0	1248120	692	0	correct_rejection	NA	0
16	Triplet	49	373	1507	7	0	0	1248829	692	0	correct_rejection	NA	0
16	Triplet	50	374	1508	8	0	0	1249537	692	0	correct_rejection	NA	0
16	Triplet	51	375	1509	9	0	0	1250246	692	0	correct_rejection	NA	0
16	Triplet	52	376	1510	0	1	2	1250955	691	1	hit	316	0
16	Triplet	53	377	1511	6	0	0	1251663	692	0	correct_rejection	NA	0
16	Triplet	54	378	1512	5	0	0	1252372	691	0	correct_rejection	NA	0
16	Triplet	55	379	1513	4	0	0	1253080	692	0	correct_rejection	NA	0
16	Triplet	56	380	1514	0	1	2	1253789	692	1	hit	341	0
16	Triplet	57	381	1515	7	0	0	1254497	692	0	correct_rejection	NA	0
16	Triplet	58	382	1516	8	0	0	1255206	692	0	correct_rejection	NA	0
16	Triplet	59	383	1517	9	0	0	1255915	691	0	correct_rejection	NA	0
16	Triplet	60	384	1518	9	0	0	1256623	692	0	correct_rejection	NA	0
16	Triplet	61	385	1519	8	0	0	1257332	691	0	correct_rejection	NA	0
16	Triplet	62	386	1520	7	0	0	1258040	692	0	correct_rejection	NA	0
16	Triplet	63	387	1521	4	0	0	1258749	692	0	correct_rejection	NA	0
16	Triplet	64	388	1522	5	0	0	1259457	692	0	correct_rejection	NA	0
16	Triplet	65	389	1523	6	0	0	1260166	692	0	correct_rejection	NA	0
16	Triplet	66	390	1524	7	0	0	1260875	691	0	correct_rejection	NA	0
16	Triplet	67	391	1525	8	0	0	1261583	692	0	correct_rejection	NA	0
16	Triplet	68	392	1526	0	1	1	1262292	691	1	hit	351	0
16	Triplet	69	393	1527	9	0	0	1263000	692	0	correct_rejection	NA	0
16	Triplet	70	394	1528	4	0	0	1263709	692	0	correct_rejection	NA	0
16	Triplet	71	395	1529	5	0	0	1264417	692	0	correct_rejection	NA	0
16	Triplet	72	396	1530	0	1	1	1265126	692	1	hit	333	0
16	Triplet	73	397	1531	6	0	0	1265835	691	0	correct_rejection	NA	0
16	Triplet	74	398	1532	4	0	0	1266543	692	0	correct_rejection	NA	0
16	Triplet	75	399	1533	0	1	1	1267252	691	1	hit	331	0
16	Triplet	76	400	1534	5	0	0	1267960	692	0	correct_rejection	NA	0
16	Triplet	77	401	1535	6	0	0	1268669	691	0	correct_rejection	NA	0
16	Triplet	78	402	1536	9	0	0	1269377	692	0	correct_rejection	NA	0
16	Triplet	79	403	1537	0	1	1	1270086	692	1	hit	379	0
16	Triplet	80	404	1538	8	0	0	1270794	692	0	correct_rejection	NA	0
16	Triplet	81	405	1539	7	0	0	1271503	692	0	correct_rejection	NA	0
16	Triplet	82	406	1540	9	0	0	1272212	691	0	correct_rejection	NA	0
16	Triplet	83	407	1541	8	0	0	1272920	692	0	correct_rejection	NA	0
16	Triplet	84	408	1542	7	0	0	1273629	691	0	correct_rejection	NA	0
16	Triplet	85	409	1543	6	0	0	1274337	692	0	correct_rejection	NA	0
16	Triplet	86	410	1544	5	0	0	1275046	692	0	correct_rejection	NA	0
16	Triplet	87	411	1545	4	0	0	1275754	692	0	correct_rejection	NA	0
16	Triplet	88	412	1546	4	0	0	1276463	692	0	correct_rejection	NA	0
16	Triplet	89	413	1547	5	0	0	1277172	691	0	correct_rejection	NA	0
16	Triplet	90	414	1548	6	0	0	1277880	692	0	correct_rejection	NA	0
16	Triplet	91	415	1549	6	0	0	1278589	691	0	correct_rejection	NA	0
16	Triplet	92	416	1550	5	0	0	1279297	692	0	correct_rejection	NA	0
16	Triplet	93	417	1551	4	0	0	1280006	692	0	correct_rejection	NA	0
16	Triplet	94	418	1552	9	0	0	1280714	692	0	correct_rejection	NA	0
16	Triplet	95	419	1553	8	0	0	1281423	692	0	correct_rejection	NA	0
16	Triplet	96	420	1554	7	0	0	1282132	691	0	correct_rejection	NA	0
16	Triplet	97	421	1555	0	1	2	1282840	692	1	hit	348	0
16	Triplet	98	422	1556	7	0	0	1283549	691	0	correct_rejection	NA	0
16	Triplet	99	423	1557	8	0	0	1284257	692	0	correct_rejection	NA	0
16	Triplet	100	424	1558	9	0	0	1284966	692	0	correct_rejection	NA	0
16	Triplet	101	425	1559	7	0	0	1285674	692	0	correct_rejection	NA	0
16	Triplet	102	426	1560	8	0	0	1286383	692	0	correct_rejection	NA	0
16	Triplet	103	427	1561	9	0	0	1287092	691	0	correct_rejection	NA	0
16	Triplet	104	428	1562	6	0	0	1287800	692	0	correct_rejection	NA	0
16	Triplet	105	429	1563	5	0	0	1288509	691	0	correct_rejection	NA	0
16	Triplet	106	430	1564	4	0	0	1289217	692	0	correct_rejection	NA	0
16	Triplet	107	431	1565	0	1	2	1289926	692	1	hit	313	0
16	Triplet	108	432	1566	6	0	0	1290634	692	0	correct_rejection	NA	0
16	Triplet	109	433	1567	5	0	0	1291343	692	0	correct_rejection	NA	0
16	Triplet	110	434	1568	0	1	1	1292052	691	1	hit	341	0
16	Triplet	111	435	1569	4	0	0	1292760	692	0	correct_rejection	NA	0
16	Triplet	112	436	1570	9	0	0	1293469	691	0	correct_rejection	NA	0
16	Triplet	113	437	1571	8	0	0	1294177	692	0	correct_rejection	NA	0
16	Triplet	114	438	1572	7	0	0	1294886	691	0	correct_rejection	NA	0
16	Triplet	115	439	1573	4	0	0	1295594	692	0	correct_rejection	NA	0
16	Triplet	116	440	1574	5	0	0	1296303	692	0	correct_rejection	NA	0
16	Triplet	117	441	1575	6	0	0	1297011	692	0	correct_rejection	NA	0
16	Triplet	118	442	1576	9	0	0	1297720	692	0	correct_rejection	NA	0
16	Triplet	119	443	1577	8	0	0	1298429	691	0	correct_rejection	NA	0
16	Triplet	120	444	1578	7	0	0	1299137	692	0	correct_rejection	NA	0
16	Triplet	121	445	1579	7	0	0	1299846	691	0	correct_rejection	NA	0
16	Triplet	122	446	1580	8	0	0	1300554	692	0	correct_rejection	NA	0
16	Triplet	123	447	1581	9	0	0	1301263	692	0	correct_rejection	NA	0
16	Triplet	124	448	1582	6	0	0	1301971	692	0	correct_rejection	NA	0
16	Triplet	125	449	1583	5	0	0	1302680	692	0	correct_rejection	NA	0
16	Triplet	126	450	1584	4	0	0	1303389	691	0	correct_rejection	NA	0
16	Triplet	127	451	1585	4	0	0	1304097	692	0	correct_rejection	NA	0
16	Triplet	128	452	1586	0	1	1	1304806	691	1	hit	421	0
16	Triplet	129	453	1587	5	0	0	1305514	692	0	correct_rejection	NA	0
16	Triplet	130	454	1588	6	0	0	1306223	692	0	correct_rejection	NA	0
16	Triplet	131	455	1589	0	1	2	1306931	692	1	hit	371	0
16	Triplet	132	456	1590	4	0	0	1307640	692	0	correct_rejection	NA	0
16	Triplet	133	457	1591	5	0	0	1308349	691	0	correct_rejection	NA	0
16	Triplet	134	458	1592	6	0	0	1309057	692	0	correct_rejection	NA	0
