ID	block	trial_block	trial_cat	trial_total	number	violation	level_violation	onset	duration	Response	Hit_Miss	RT	pre_trial_fixcross_ISI
first_trigger_at: 8528
trigger nr 4 at 11528
17	Single	1	325	1	9	0	0	19216	683	0	correct_rejection	NA	7617
17	Single	2	326	2	5	0	0	19932	684	0	correct_rejection	NA	0
17	Single	3	327	3	7	0	0	20649	684	0	correct_rejection	NA	0
17	Single	4	328	4	6	0	0	21366	683	0	correct_rejection	NA	0
17	Single	5	329	5	0	1	1	22082	684	1	hit	452	0
17	Single	6	330	6	9	0	0	22799	683	0	correct_rejection	NA	0
17	Single	7	331	7	4	0	0	23516	683	0	correct_rejection	NA	0
17	Single	8	332	8	4	0	0	24232	684	0	correct_rejection	NA	0
17	Single	9	333	9	7	0	0	24949	683	0	correct_rejection	NA	0
17	Single	10	334	10	8	0	0	25666	683	0	correct_rejection	NA	0
17	Single	11	335	11	5	0	0	26382	684	0	correct_rejection	NA	0
17	Single	12	336	12	9	0	0	27099	683	0	correct_rejection	NA	0
17	Single	13	337	13	0	1	1	27816	683	1	hit	435	0
17	Single	14	338	14	8	0	0	28532	684	0	correct_rejection	NA	0
17	Single	15	339	15	6	0	0	29249	683	0	correct_rejection	NA	0
17	Single	16	340	16	7	0	0	29966	683	0	correct_rejection	NA	0
17	Single	17	341	17	4	0	0	30682	684	0	correct_rejection	NA	0
17	Single	18	342	18	0	1	1	31399	683	1	hit	466	0
17	Single	19	343	19	5	0	0	32116	683	0	correct_rejection	NA	0
17	Single	20	344	20	8	0	0	32832	684	0	correct_rejection	NA	0
17	Single	21	345	21	8	0	0	33549	683	0	correct_rejection	NA	0
17	Single	22	346	22	9	0	0	34266	683	0	correct_rejection	NA	0
17	Single	23	347	23	7	0	0	34982	684	0	correct_rejection	NA	0
17	Single	24	348	24	5	0	0	35699	683	0	correct_rejection	NA	0
17	Single	25	349	25	5	0	0	36416	683	0	correct_rejection	NA	0
17	Single	26	350	26	4	0	0	37132	684	0	correct_rejection	NA	0
17	Single	27	351	27	9	0	0	37849	683	0	correct_rejection	NA	0
17	Single	28	352	28	9	0	0	38566	683	0	correct_rejection	NA	0
17	Single	29	353	29	6	0	0	39282	684	0	correct_rejection	NA	0
17	Single	30	354	30	8	0	0	39999	683	0	correct_rejection	NA	0
17	Single	31	355	31	4	0	0	40715	684	0	correct_rejection	NA	0
17	Single	32	356	32	6	0	0	41432	684	0	correct_rejection	NA	0
17	Single	33	357	33	0	1	1	42149	683	1	hit	512	0
17	Single	34	358	34	6	0	0	42865	684	0	correct_rejection	NA	0
17	Single	35	359	35	5	0	0	43582	683	0	correct_rejection	NA	0
17	Single	36	360	36	6	0	0	44299	683	0	correct_rejection	NA	0
17	Single	37	361	37	4	0	0	45015	684	0	correct_rejection	NA	0
17	Single	38	362	38	8	0	0	45732	683	0	correct_rejection	NA	0
17	Single	39	363	39	7	0	0	46449	683	0	correct_rejection	NA	0
17	Single	40	364	40	7	0	0	47165	684	0	correct_rejection	NA	0
17	Single	41	365	41	5	0	0	47882	683	0	correct_rejection	NA	0
17	Single	42	366	42	8	0	0	48599	683	0	correct_rejection	NA	0
17	Single	43	367	43	4	0	0	49315	684	0	correct_rejection	NA	0
17	Single	44	368	44	5	0	0	50032	683	0	correct_rejection	NA	0
17	Single	45	369	45	6	0	0	50749	683	0	correct_rejection	NA	0
17	Single	46	370	46	8	0	0	51465	684	0	correct_rejection	NA	0
17	Single	47	371	47	6	0	0	52182	683	0	correct_rejection	NA	0
17	Single	48	372	48	6	0	0	52899	683	0	correct_rejection	NA	0
17	Single	49	373	49	0	1	1	53615	684	1	hit	475	0
17	Single	50	374	50	4	0	0	54332	683	0	correct_rejection	NA	0
17	Single	51	375	51	7	0	0	55049	683	0	correct_rejection	NA	0
17	Single	52	376	52	9	0	0	55765	684	0	correct_rejection	NA	0
17	Single	53	377	53	0	1	1	56482	683	1	hit	542	0
17	Single	54	378	54	7	0	0	57199	683	0	correct_rejection	NA	0
17	Single	55	379	55	7	0	0	57915	684	0	correct_rejection	NA	0
17	Single	56	380	56	8	0	0	58632	683	0	correct_rejection	NA	0
17	Single	57	381	57	0	1	1	59349	683	1	hit	473	0
17	Single	58	382	58	7	0	0	60065	684	0	correct_rejection	NA	0
17	Single	59	383	59	4	0	0	60782	683	0	correct_rejection	NA	0
17	Single	60	384	60	0	1	1	61498	684	1	hit	481	0
17	Single	61	385	61	9	0	0	62215	683	0	correct_rejection	NA	0
17	Single	62	386	62	8	0	0	62932	683	0	correct_rejection	NA	0
17	Single	63	387	63	9	0	0	63648	684	0	correct_rejection	NA	0
17	Single	64	388	64	5	0	0	64365	683	0	correct_rejection	NA	0
17	Single	65	389	65	5	0	0	65082	683	0	correct_rejection	NA	0
17	Single	66	390	66	7	0	0	65798	684	0	correct_rejection	NA	0
17	Single	67	391	67	5	0	0	66515	683	0	correct_rejection	NA	0
17	Single	68	392	68	9	0	0	67232	683	0	correct_rejection	NA	0
17	Single	69	393	69	6	0	0	67948	684	0	correct_rejection	NA	0
17	Single	70	394	70	9	0	0	68665	683	0	correct_rejection	NA	0
17	Single	71	395	71	9	0	0	69382	683	0	correct_rejection	NA	0
17	Single	72	396	72	4	0	0	70098	684	0	correct_rejection	NA	0
17	Single	73	397	73	6	0	0	70815	683	0	correct_rejection	NA	0
17	Single	74	398	74	7	0	0	71532	683	0	correct_rejection	NA	0
17	Single	75	399	75	6	0	0	72248	684	0	correct_rejection	NA	0
17	Single	76	400	76	5	0	0	72965	683	0	correct_rejection	NA	0
17	Single	77	401	77	0	1	1	73682	683	1	hit	423	0
17	Single	78	402	78	4	0	0	74398	684	0	correct_rejection	NA	0
17	Single	79	403	79	4	0	0	75115	683	0	correct_rejection	NA	0
17	Single	80	404	80	8	0	0	75832	683	0	correct_rejection	NA	0
17	Single	81	405	81	8	0	0	76548	684	0	correct_rejection	NA	0
17	Single	82	406	82	0	1	1	77265	683	1	hit	505	0
17	Single	83	407	83	8	0	0	77982	683	0	correct_rejection	NA	0
17	Single	84	408	84	4	0	0	78698	684	0	correct_rejection	NA	0
17	Single	85	409	85	9	0	0	79415	683	0	correct_rejection	NA	0
17	Single	86	410	86	7	0	0	80132	683	0	correct_rejection	NA	0
17	Single	87	411	87	4	0	0	80848	684	0	correct_rejection	NA	0
17	Single	88	412	88	8	0	0	81565	683	0	correct_rejection	NA	0
17	Single	89	413	89	9	0	0	82281	684	0	correct_rejection	NA	0
17	Single	90	414	90	4	0	0	82998	684	0	correct_rejection	NA	0
17	Single	91	415	91	7	0	0	83715	683	0	correct_rejection	NA	0
17	Single	92	416	92	6	0	0	84431	684	0	correct_rejection	NA	0
17	Single	93	417	93	6	0	0	85148	683	0	correct_rejection	NA	0
17	Single	94	418	94	0	1	1	85865	683	1	hit	432	0
17	Single	95	419	95	8	0	0	86581	684	0	correct_rejection	NA	0
17	Single	96	420	96	8	0	0	87298	683	0	correct_rejection	NA	0
17	Single	97	421	97	5	0	0	88015	683	0	correct_rejection	NA	0
17	Single	98	422	98	5	0	0	88731	684	0	correct_rejection	NA	0
17	Single	99	423	99	6	0	0	89448	683	0	correct_rejection	NA	0
17	Single	100	424	100	0	1	1	90165	683	1	hit	480	0
17	Single	101	425	101	7	0	0	90881	684	0	correct_rejection	NA	0
17	Single	102	426	102	9	0	0	91598	683	0	correct_rejection	NA	0
17	Single	103	427	103	6	0	0	92315	683	0	correct_rejection	NA	0
17	Single	104	428	104	4	0	0	93031	684	0	correct_rejection	NA	0
17	Single	105	429	105	4	0	0	93748	683	0	correct_rejection	NA	0
17	Single	106	430	106	6	0	0	94465	683	0	correct_rejection	NA	0
17	Single	107	431	107	9	0	0	95181	684	0	correct_rejection	NA	0
17	Single	108	432	108	5	0	0	95898	683	0	correct_rejection	NA	0
17	Single	109	433	109	4	0	0	96615	683	0	correct_rejection	NA	0
17	Single	110	434	110	5	0	0	97331	684	0	correct_rejection	NA	0
17	Single	111	435	111	9	0	0	98048	683	0	correct_rejection	NA	0
17	Single	112	436	112	9	0	0	98765	683	0	correct_rejection	NA	0
17	Single	113	437	113	8	0	0	99481	684	0	correct_rejection	NA	0
17	Single	114	438	114	7	0	0	100198	683	0	correct_rejection	NA	0
17	Single	115	439	115	8	0	0	100915	683	0	correct_rejection	NA	0
17	Single	116	440	116	6	0	0	101631	684	0	correct_rejection	NA	0
17	Single	117	441	117	5	0	0	102348	683	0	correct_rejection	NA	0
17	Single	118	442	118	7	0	0	103064	684	0	correct_rejection	NA	0
17	Single	119	443	119	7	0	0	103781	684	0	correct_rejection	NA	0
17	Single	120	444	120	5	0	0	104498	683	0	correct_rejection	NA	0
17	Single	121	445	121	8	0	0	105214	684	0	correct_rejection	NA	0
17	Single	122	446	122	7	0	0	105931	683	0	correct_rejection	NA	0
17	Single	123	447	123	9	0	0	106648	683	0	correct_rejection	NA	0
17	Single	124	448	124	0	1	1	107364	684	1	hit	441	0
17	Single	125	449	125	9	0	0	108081	683	0	correct_rejection	NA	0
17	Single	126	450	126	6	0	0	108798	683	0	correct_rejection	NA	0
17	Single	127	451	127	0	1	1	109514	684	1	hit	482	0
17	Single	128	452	128	5	0	0	110231	683	0	correct_rejection	NA	0
17	Single	129	453	129	5	0	0	110948	683	0	correct_rejection	NA	0
17	Single	130	454	130	9	0	0	111664	684	0	correct_rejection	NA	0
17	Single	131	455	131	4	0	0	112381	683	0	correct_rejection	NA	0
17	Single	132	456	132	9	0	0	113098	683	0	correct_rejection	NA	0
17	Single	133	457	133	5	0	0	113814	684	0	correct_rejection	NA	0
17	Single	134	458	134	7	0	0	114531	683	0	correct_rejection	NA	0
17	Single	135	459	135	4	0	0	115248	683	0	correct_rejection	NA	0
17	Single	136	460	136	4	0	0	115964	684	0	correct_rejection	NA	0
17	Single	137	461	137	5	0	0	116681	683	0	correct_rejection	NA	0
17	Single	138	462	138	8	0	0	117398	683	0	correct_rejection	NA	0
17	Single	139	463	139	8	0	0	118114	684	0	correct_rejection	NA	0
17	Single	140	464	140	0	1	1	118831	683	1	hit	478	0
17	Single	141	465	141	9	0	0	119548	683	0	correct_rejection	NA	0
17	Single	142	466	142	7	0	0	120264	684	0	correct_rejection	NA	0
17	Single	143	467	143	8	0	0	120981	683	0	correct_rejection	NA	0
17	Single	144	468	144	4	0	0	121698	683	0	correct_rejection	NA	0
17	Single	145	469	145	8	0	0	122414	684	0	correct_rejection	NA	0
17	Single	146	470	146	6	0	0	123131	683	0	correct_rejection	NA	0
17	Single	147	471	147	9	0	0	123847	684	0	correct_rejection	NA	0
17	Single	148	472	148	8	0	0	124564	683	0	correct_rejection	NA	0
17	Single	149	473	149	0	1	1	125281	683	1	hit	519	0
17	Single	150	474	150	5	0	0	125997	684	0	correct_rejection	NA	0
17	Single	151	475	151	4	0	0	126714	683	0	correct_rejection	NA	0
17	Single	152	476	152	0	1	1	127431	683	1	hit	485	0
17	Single	153	477	153	7	0	0	128147	684	0	correct_rejection	NA	0
17	Single	154	478	154	5	0	0	128864	683	0	correct_rejection	NA	0
17	Single	155	479	155	0	1	1	129581	683	1	hit	414	0
17	Single	156	480	156	6	0	0	130297	684	0	correct_rejection	NA	0
17	Single	157	481	157	6	0	0	131014	683	0	correct_rejection	NA	0
17	Single	158	482	158	7	0	0	131731	683	0	correct_rejection	NA	0
17	Single	159	483	159	7	0	0	132447	684	0	correct_rejection	NA	0
17	Single	160	484	160	6	0	0	133164	683	0	correct_rejection	NA	0
17	Single	161	485	161	4	0	0	133881	683	0	correct_rejection	NA	0
17	Single	162	486	162	6	0	0	134597	684	0	correct_rejection	NA	0
17	Nonet	1	163	163	4	0	0	144264	683	0	correct_rejection	NA	7667
17	Nonet	2	164	164	5	0	0	144980	684	0	correct_rejection	NA	0
17	Nonet	3	165	165	6	0	0	145697	683	0	correct_rejection	NA	0
17	Nonet	4	166	166	4	0	0	146414	683	0	correct_rejection	NA	0
17	Nonet	5	167	167	5	0	0	147130	684	0	correct_rejection	NA	0
17	Nonet	6	168	168	6	0	0	147847	683	0	correct_rejection	NA	0
17	Nonet	7	169	169	4	0	0	148564	683	0	correct_rejection	NA	0
17	Nonet	8	170	170	5	0	0	149280	684	0	correct_rejection	NA	0
17	Nonet	9	171	171	0	1	1	149997	683	1	hit	551	0
17	Nonet	10	172	172	6	0	0	150714	683	0	correct_rejection	NA	0
17	Nonet	11	173	173	4	0	0	151430	684	0	correct_rejection	NA	0
17	Nonet	12	174	174	5	0	0	152147	683	0	correct_rejection	NA	0
17	Nonet	13	175	175	6	0	0	152864	683	0	correct_rejection	NA	0
17	Nonet	14	176	176	4	0	0	153580	684	0	correct_rejection	NA	0
17	Nonet	15	177	177	5	0	0	154297	683	0	correct_rejection	NA	0
17	Nonet	16	178	178	6	0	0	155014	683	0	correct_rejection	NA	0
17	Nonet	17	179	179	4	0	0	155730	684	0	correct_rejection	NA	0
17	Nonet	18	180	180	5	0	0	156447	683	0	correct_rejection	NA	0
17	Nonet	19	181	181	6	0	0	157164	683	0	correct_rejection	NA	0
17	Nonet	20	182	182	7	0	0	157880	684	0	correct_rejection	NA	0
17	Nonet	21	183	183	8	0	0	158597	683	0	correct_rejection	NA	0
17	Nonet	22	184	184	9	0	0	159314	683	0	correct_rejection	NA	0
17	Nonet	23	185	185	7	0	0	160030	684	0	correct_rejection	NA	0
17	Nonet	24	186	186	8	0	0	160747	683	0	correct_rejection	NA	0
17	Nonet	25	187	187	9	0	0	161464	683	0	correct_rejection	NA	0
17	Nonet	26	188	188	7	0	0	162180	684	0	correct_rejection	NA	0
17	Nonet	27	189	189	0	1	1	162897	683	1	hit	379	0
17	Nonet	28	190	190	8	0	0	163614	683	0	correct_rejection	NA	0
17	Nonet	29	191	191	9	0	0	164330	684	0	correct_rejection	NA	0
17	Nonet	30	192	192	0	1	3	165047	683	1	hit	483	0
17	Nonet	31	193	193	7	0	0	165763	684	0	correct_rejection	NA	0
17	Nonet	32	194	194	8	0	0	166480	683	0	correct_rejection	NA	0
17	Nonet	33	195	195	9	0	0	167197	683	0	correct_rejection	NA	0
17	Nonet	34	196	196	7	0	0	167913	684	0	correct_rejection	NA	0
17	Nonet	35	197	197	0	1	1	168630	683	1	hit	502	0
17	Nonet	36	198	198	8	0	0	169347	683	0	correct_rejection	NA	0
17	Nonet	37	199	199	9	0	0	170063	684	0	correct_rejection	NA	0
17	Nonet	38	200	200	7	0	0	170780	683	0	correct_rejection	NA	0
17	Nonet	39	201	201	8	0	0	171497	683	0	correct_rejection	NA	0
17	Nonet	40	202	202	9	0	0	172213	684	0	correct_rejection	NA	0
17	Nonet	41	203	203	6	0	0	172930	683	0	correct_rejection	NA	0
17	Nonet	42	204	204	5	0	0	173647	683	0	correct_rejection	NA	0
17	Nonet	43	205	205	4	0	0	174363	684	0	correct_rejection	NA	0
17	Nonet	44	206	206	6	0	0	175080	683	0	correct_rejection	NA	0
17	Nonet	45	207	207	5	0	0	175797	683	0	correct_rejection	NA	0
17	Nonet	46	208	208	4	0	0	176513	684	0	correct_rejection	NA	0
17	Nonet	47	209	209	6	0	0	177230	683	0	correct_rejection	NA	0
17	Nonet	48	210	210	5	0	0	177947	683	0	correct_rejection	NA	0
17	Nonet	49	211	211	0	1	1	178663	684	1	hit	499	0
17	Nonet	50	212	212	4	0	0	179380	683	0	correct_rejection	NA	0
17	Nonet	51	213	213	6	0	0	180097	683	0	correct_rejection	NA	0
17	Nonet	52	214	214	5	0	0	180813	684	0	correct_rejection	NA	0
17	Nonet	53	215	215	4	0	0	181530	683	0	correct_rejection	NA	0
17	Nonet	54	216	216	6	0	0	182247	683	0	correct_rejection	NA	0
17	Nonet	55	217	217	0	1	1	182963	684	1	hit	511	0
17	Nonet	56	218	218	5	0	0	183680	683	0	correct_rejection	NA	0
17	Nonet	57	219	219	4	0	0	184397	683	0	correct_rejection	NA	0
17	Nonet	58	220	220	6	0	0	185113	684	0	correct_rejection	NA	0
17	Nonet	59	221	221	5	0	0	185830	683	0	correct_rejection	NA	0
17	Nonet	60	222	222	4	0	0	186546	684	0	correct_rejection	NA	0
17	Nonet	61	223	223	4	0	0	187263	683	0	correct_rejection	NA	0
17	Nonet	62	224	224	0	1	1	187980	683	1	hit	472	0
17	Nonet	63	225	225	5	0	0	188696	684	0	correct_rejection	NA	0
17	Nonet	64	226	226	6	0	0	189413	683	0	correct_rejection	NA	0
17	Nonet	65	227	227	4	0	0	190130	683	0	correct_rejection	NA	0
17	Nonet	66	228	228	5	0	0	190846	684	0	correct_rejection	NA	0
17	Nonet	67	229	229	6	0	0	191563	683	0	correct_rejection	NA	0
17	Nonet	68	230	230	4	0	0	192280	683	0	correct_rejection	NA	0
17	Nonet	69	231	231	5	0	0	192996	684	0	correct_rejection	NA	0
17	Nonet	70	232	232	6	0	0	193713	683	0	correct_rejection	NA	0
17	Nonet	71	233	233	6	0	0	194430	683	0	correct_rejection	NA	0
17	Nonet	72	234	234	5	0	0	195146	684	0	correct_rejection	NA	0
17	Nonet	73	235	235	4	0	0	195863	683	0	correct_rejection	NA	0
17	Nonet	74	236	236	6	0	0	196580	683	0	correct_rejection	NA	0
17	Nonet	75	237	237	0	1	1	197296	684	1	hit	455	0
17	Nonet	76	238	238	5	0	0	198013	683	0	correct_rejection	NA	0
17	Nonet	77	239	239	4	0	0	198730	683	0	correct_rejection	NA	0
17	Nonet	78	240	240	0	1	2	199446	684	1	hit	455	0
17	Nonet	79	241	241	6	0	0	200163	683	0	correct_rejection	NA	0
17	Nonet	80	242	242	5	0	0	200880	683	0	correct_rejection	NA	0
17	Nonet	81	243	243	4	0	0	201596	684	0	correct_rejection	NA	0
17	Nonet	82	244	244	9	0	0	202313	683	0	correct_rejection	NA	0
17	Nonet	83	245	245	0	1	1	203030	683	1	hit	481	0
17	Nonet	84	246	246	8	0	0	203746	684	0	correct_rejection	NA	0
17	Nonet	85	247	247	7	0	0	204463	683	0	correct_rejection	NA	0
17	Nonet	86	248	248	9	0	0	205180	683	0	correct_rejection	NA	0
17	Nonet	87	249	249	8	0	0	205896	684	0	correct_rejection	NA	0
17	Nonet	88	250	250	7	0	0	206613	683	0	correct_rejection	NA	0
17	Nonet	89	251	251	9	0	0	207329	684	0	correct_rejection	NA	0
17	Nonet	90	252	252	8	0	0	208046	684	0	correct_rejection	NA	0
17	Nonet	91	253	253	7	0	0	208763	683	0	correct_rejection	NA	0
17	Nonet	92	254	254	4	0	0	209479	684	0	correct_rejection	NA	0
17	Nonet	93	255	255	5	0	0	210196	683	0	correct_rejection	NA	0
17	Nonet	94	256	256	6	0	0	210913	683	0	correct_rejection	NA	0
17	Nonet	95	257	257	0	1	2	211629	684	1	hit	460	0
17	Nonet	96	258	258	4	0	0	212346	683	0	correct_rejection	NA	0
17	Nonet	97	259	259	5	0	0	213063	683	0	correct_rejection	NA	0
17	Nonet	98	260	260	6	0	0	213779	684	0	correct_rejection	NA	0
17	Nonet	99	261	261	4	0	0	214496	683	0	correct_rejection	NA	0
17	Nonet	100	262	262	0	1	1	215213	683	1	hit	477	0
17	Nonet	101	263	263	5	0	0	215929	684	0	correct_rejection	NA	0
17	Nonet	102	264	264	6	0	0	216646	683	0	correct_rejection	NA	0
17	Nonet	103	265	265	9	0	0	217363	683	0	correct_rejection	NA	0
17	Nonet	104	266	266	0	1	1	218079	684	1	hit	610	0
17	Nonet	105	267	267	8	0	0	218796	683	0	correct_rejection	NA	0
17	Nonet	106	268	268	7	0	0	219513	683	0	correct_rejection	NA	0
17	Nonet	107	269	269	9	0	0	220229	684	0	correct_rejection	NA	0
17	Nonet	108	270	270	0	1	1	220946	683	1	hit	474	0
17	Nonet	109	271	271	8	0	0	221663	683	0	correct_rejection	NA	0
17	Nonet	110	272	272	7	0	0	222379	684	0	correct_rejection	NA	0
17	Nonet	111	273	273	9	0	0	223096	683	0	correct_rejection	NA	0
17	Nonet	112	274	274	8	0	0	223813	683	0	correct_rejection	NA	0
17	Nonet	113	275	275	7	0	0	224529	684	0	correct_rejection	NA	0
17	Nonet	114	276	276	0	1	3	225246	683	1	hit	453	0
17	Nonet	115	277	277	7	0	0	225963	683	0	correct_rejection	NA	0
17	Nonet	116	278	278	8	0	0	226679	684	0	correct_rejection	NA	0
17	Nonet	117	279	279	9	0	0	227396	683	0	correct_rejection	NA	0
17	Nonet	118	280	280	7	0	0	228112	684	0	correct_rejection	NA	0
17	Nonet	119	281	281	8	0	0	228829	683	0	correct_rejection	NA	0
17	Nonet	120	282	282	9	0	0	229546	683	0	correct_rejection	NA	0
17	Nonet	121	283	283	7	0	0	230262	684	0	correct_rejection	NA	0
17	Nonet	122	284	284	8	0	0	230979	683	0	correct_rejection	NA	0
17	Nonet	123	285	285	9	0	0	231696	683	0	correct_rejection	NA	0
17	Nonet	124	286	286	9	0	0	232412	684	0	correct_rejection	NA	0
17	Nonet	125	287	287	8	0	0	233129	683	0	correct_rejection	NA	0
17	Nonet	126	288	288	7	0	0	233846	683	0	correct_rejection	NA	0
17	Nonet	127	289	289	9	0	0	234562	684	0	correct_rejection	NA	0
17	Nonet	128	290	290	8	0	0	235279	683	0	correct_rejection	NA	0
17	Nonet	129	291	291	7	0	0	235996	683	0	correct_rejection	NA	0
17	Nonet	130	292	292	9	0	0	236712	684	0	correct_rejection	NA	0
17	Nonet	131	293	293	8	0	0	237429	683	0	correct_rejection	NA	0
17	Nonet	132	294	294	7	0	0	238146	683	0	correct_rejection	NA	0
17	Nonet	133	295	295	0	1	3	238862	684	1	hit	471	0
17	Nonet	134	296	296	9	0	0	239579	683	0	correct_rejection	NA	0
17	Nonet	135	297	297	8	0	0	240296	683	0	correct_rejection	NA	0
17	Nonet	136	298	298	7	0	0	241012	684	0	correct_rejection	NA	0
17	Nonet	137	299	299	9	0	0	241729	683	0	correct_rejection	NA	0
17	Nonet	138	300	300	8	0	0	242446	683	0	correct_rejection	NA	0
17	Nonet	139	301	301	7	0	0	243162	684	0	correct_rejection	NA	0
17	Nonet	140	302	302	9	0	0	243879	683	0	correct_rejection	NA	0
17	Nonet	141	303	303	8	0	0	244596	683	0	correct_rejection	NA	0
17	Nonet	142	304	304	7	0	0	245312	684	0	correct_rejection	NA	0
17	Nonet	143	305	305	6	0	0	246029	683	0	correct_rejection	NA	0
17	Nonet	144	306	306	5	0	0	246746	683	0	correct_rejection	NA	0
17	Nonet	145	307	307	4	0	0	247462	684	0	correct_rejection	NA	0
17	Nonet	146	308	308	0	1	2	248179	683	1	hit	498	0
17	Nonet	147	309	309	6	0	0	248895	684	0	correct_rejection	NA	0
17	Nonet	148	310	310	5	0	0	249612	683	0	correct_rejection	NA	0
17	Nonet	149	311	311	4	0	0	250329	683	0	correct_rejection	NA	0
17	Nonet	150	312	312	6	0	0	251045	684	0	correct_rejection	NA	0
17	Nonet	151	313	313	5	0	0	251762	683	0	correct_rejection	NA	0
17	Nonet	152	314	314	4	0	0	252479	683	0	correct_rejection	NA	0
17	Nonet	153	315	315	7	0	0	253195	684	0	correct_rejection	NA	0
17	Nonet	154	316	316	8	0	0	253912	683	0	correct_rejection	NA	0
17	Nonet	155	317	317	0	1	1	254629	683	1	hit	523	0
17	Nonet	156	318	318	9	0	0	255345	684	0	correct_rejection	NA	0
17	Nonet	157	319	319	7	0	0	256062	683	0	correct_rejection	NA	0
17	Nonet	158	320	320	8	0	0	256779	683	0	correct_rejection	NA	0
17	Nonet	159	321	321	9	0	0	257495	684	0	correct_rejection	NA	0
17	Nonet	160	322	322	7	0	0	258212	683	0	correct_rejection	NA	0
17	Nonet	161	323	323	8	0	0	258929	683	0	correct_rejection	NA	0
17	Nonet	162	324	324	9	0	0	259645	684	0	correct_rejection	NA	0
17	Correct	1	325	325	4	0	0	269395	684	0	correct_rejection	NA	7807
17	Correct	2	326	326	5	0	0	270112	683	0	correct_rejection	NA	0
17	Correct	3	327	327	6	0	0	270828	684	0	correct_rejection	NA	0
17	Correct	4	328	328	4	0	0	271545	683	0	correct_rejection	NA	0
17	Correct	5	329	329	5	0	0	272262	683	0	correct_rejection	NA	0
17	Correct	6	330	330	6	0	0	272978	684	0	correct_rejection	NA	0
17	Correct	7	331	331	4	0	0	273695	683	0	correct_rejection	NA	0
17	Correct	8	332	332	5	0	0	274412	683	0	correct_rejection	NA	0
17	Correct	9	333	333	6	0	0	275128	684	0	correct_rejection	NA	0
17	Correct	10	334	334	0	1	3	275845	683	1	hit	508	0
17	Correct	11	335	335	6	0	0	276562	683	0	correct_rejection	NA	0
17	Correct	12	336	336	5	0	0	277278	684	0	correct_rejection	NA	0
17	Correct	13	337	337	4	0	0	277995	683	0	correct_rejection	NA	0
17	Correct	14	338	338	6	0	0	278712	683	0	correct_rejection	NA	0
17	Correct	15	339	339	5	0	0	279428	684	0	correct_rejection	NA	0
17	Correct	16	340	340	4	0	0	280145	683	0	correct_rejection	NA	0
17	Correct	17	341	341	6	0	0	280862	683	0	correct_rejection	NA	0
17	Correct	18	342	342	0	1	1	281578	684	1	hit	527	0
17	Correct	19	343	343	5	0	0	282295	683	0	correct_rejection	NA	0
17	Correct	20	344	344	4	0	0	283012	683	0	correct_rejection	NA	0
17	Correct	21	345	345	9	0	0	283728	684	0	correct_rejection	NA	0
17	Correct	22	346	346	8	0	0	284445	683	0	correct_rejection	NA	0
17	Correct	23	347	347	7	0	0	285162	683	0	correct_rejection	NA	0
17	Correct	24	348	348	0	1	2	285878	684	1	hit	511	0
17	Correct	25	349	349	9	0	0	286595	683	0	correct_rejection	NA	0
17	Correct	26	350	350	8	0	0	287312	683	0	correct_rejection	NA	0
17	Correct	27	351	351	7	0	0	288028	684	0	correct_rejection	NA	0
17	Correct	28	352	352	9	0	0	288745	683	0	correct_rejection	NA	0
17	Correct	29	353	353	8	0	0	289461	684	0	correct_rejection	NA	0
17	Correct	30	354	354	7	0	0	290178	684	0	correct_rejection	NA	0
17	Correct	31	355	355	7	0	0	290895	683	0	correct_rejection	NA	0
17	Correct	32	356	356	8	0	0	291611	684	0	correct_rejection	NA	0
17	Correct	33	357	357	9	0	0	292328	683	0	correct_rejection	NA	0
17	Correct	34	358	358	7	0	0	293045	683	0	correct_rejection	NA	0
17	Correct	35	359	359	8	0	0	293761	684	0	correct_rejection	NA	0
17	Correct	36	360	360	9	0	0	294478	683	0	correct_rejection	NA	0
17	Correct	37	361	361	7	0	0	295195	683	0	correct_rejection	NA	0
17	Correct	38	362	362	0	1	1	295911	684	1	hit	546	0
17	Correct	39	363	363	8	0	0	296628	683	0	correct_rejection	NA	0
17	Correct	40	364	364	9	0	0	297345	683	0	correct_rejection	NA	0
17	Correct	41	365	365	4	0	0	298061	684	0	correct_rejection	NA	0
17	Correct	42	366	366	5	0	0	298778	683	0	correct_rejection	NA	0
17	Correct	43	367	367	6	0	0	299495	683	0	correct_rejection	NA	0
17	Correct	44	368	368	4	0	0	300211	684	0	correct_rejection	NA	0
17	Correct	45	369	369	5	0	0	300928	683	0	correct_rejection	NA	0
17	Correct	46	370	370	6	0	0	301645	683	0	correct_rejection	NA	0
17	Correct	47	371	371	4	0	0	302361	684	0	correct_rejection	NA	0
17	Correct	48	372	372	0	1	1	303078	683	1	hit	461	0
17	Correct	49	373	373	5	0	0	303795	683	0	correct_rejection	NA	0
17	Correct	50	374	374	6	0	0	304511	684	0	correct_rejection	NA	0
17	Correct	51	375	375	6	0	0	305228	683	0	correct_rejection	NA	0
17	Correct	52	376	376	5	0	0	305945	683	0	correct_rejection	NA	0
17	Correct	53	377	377	4	0	0	306661	684	0	correct_rejection	NA	0
17	Correct	54	378	378	6	0	0	307378	683	0	correct_rejection	NA	0
17	Correct	55	379	379	5	0	0	308095	683	0	correct_rejection	NA	0
17	Correct	56	380	380	4	0	0	308811	684	0	correct_rejection	NA	0
17	Correct	57	381	381	6	0	0	309528	683	0	correct_rejection	NA	0
17	Correct	58	382	382	5	0	0	310245	683	0	correct_rejection	NA	0
17	Correct	59	383	383	4	0	0	310961	684	0	correct_rejection	NA	0
17	Correct	60	384	384	9	0	0	311678	683	0	correct_rejection	NA	0
17	Correct	61	385	385	8	0	0	312394	684	0	correct_rejection	NA	0
17	Correct	62	386	386	7	0	0	313111	683	0	correct_rejection	NA	0
17	Correct	63	387	387	9	0	0	313828	683	0	correct_rejection	NA	0
17	Correct	64	388	388	8	0	0	314544	684	0	correct_rejection	NA	0
17	Correct	65	389	389	0	1	1	315261	683	1	hit	514	0
17	Correct	66	390	390	7	0	0	315978	683	0	correct_rejection	NA	0
17	Correct	67	391	391	9	0	0	316694	684	0	correct_rejection	NA	0
17	Correct	68	392	392	8	0	0	317411	683	0	correct_rejection	NA	0
17	Correct	69	393	393	7	0	0	318128	683	0	correct_rejection	NA	0
17	Correct	70	394	394	7	0	0	318844	684	0	correct_rejection	NA	0
17	Correct	71	395	395	8	0	0	319561	683	0	correct_rejection	NA	0
17	Correct	72	396	396	9	0	0	320278	683	0	correct_rejection	NA	0
17	Correct	73	397	397	0	1	2	320994	684	1	hit	631	0
17	Correct	74	398	398	7	0	0	321711	683	0	correct_rejection	NA	0
17	Correct	75	399	399	8	0	0	322428	683	0	correct_rejection	NA	0
17	Correct	76	400	400	0	1	1	323144	684	1	hit	586	0
17	Correct	77	401	401	9	0	0	323861	683	0	correct_rejection	NA	0
17	Correct	78	402	402	7	0	0	324578	683	0	correct_rejection	NA	0
17	Correct	79	403	403	8	0	0	325294	684	0	correct_rejection	NA	0
17	Correct	80	404	404	0	1	1	326011	683	1	hit	469	0
17	Correct	81	405	405	9	0	0	326728	683	0	correct_rejection	NA	0
17	Correct	82	406	406	4	0	0	327444	684	0	correct_rejection	NA	0
17	Correct	83	407	407	5	0	0	328161	683	0	correct_rejection	NA	0
17	Correct	84	408	408	0	1	1	328878	683	1	hit	606	0
17	Correct	85	409	409	6	0	0	329594	684	0	correct_rejection	NA	0
17	Correct	86	410	410	4	0	0	330311	683	0	correct_rejection	NA	0
17	Correct	87	411	411	5	0	0	331027	684	0	correct_rejection	NA	0
17	Correct	88	412	412	6	0	0	331744	684	0	correct_rejection	NA	0
17	Correct	89	413	413	4	0	0	332461	683	0	correct_rejection	NA	0
17	Correct	90	414	414	5	0	0	333177	684	0	correct_rejection	NA	0
17	Correct	91	415	415	6	0	0	333894	683	0	correct_rejection	NA	0
17	Correct	92	416	416	6	0	0	334611	683	0	correct_rejection	NA	0
17	Correct	93	417	417	5	0	0	335327	684	0	correct_rejection	NA	0
17	Correct	94	418	418	4	0	0	336044	683	0	correct_rejection	NA	0
17	Correct	95	419	419	6	0	0	336761	683	0	correct_rejection	NA	0
17	Correct	96	420	420	5	0	0	337477	684	0	correct_rejection	NA	0
17	Correct	97	421	421	4	0	0	338194	683	0	correct_rejection	NA	0
17	Correct	98	422	422	6	0	0	338911	683	0	correct_rejection	NA	0
17	Correct	99	423	423	5	0	0	339627	684	0	correct_rejection	NA	0
17	Correct	100	424	424	4	0	0	340344	683	0	correct_rejection	NA	0
17	Correct	101	425	425	9	0	0	341061	683	0	correct_rejection	NA	0
17	Correct	102	426	426	8	0	0	341777	684	0	correct_rejection	NA	0
17	Correct	103	427	427	7	0	0	342494	683	0	correct_rejection	NA	0
17	Correct	104	428	428	0	1	2	343211	683	1	hit	672	0
17	Correct	105	429	429	9	0	0	343927	684	0	correct_rejection	NA	0
17	Correct	106	430	430	8	0	0	344644	683	0	correct_rejection	NA	0
17	Correct	107	431	431	7	0	0	345361	683	0	correct_rejection	NA	0
17	Correct	108	432	432	9	0	0	346077	684	0	correct_rejection	NA	0
17	Correct	109	433	433	8	0	0	346794	683	0	correct_rejection	NA	0
17	Correct	110	434	434	7	0	0	347511	683	0	correct_rejection	NA	0
17	Correct	111	435	435	0	1	3	348227	684	1	hit	455	0
17	Correct	112	436	436	7	0	0	348944	683	0	correct_rejection	NA	0
17	Correct	113	437	437	8	0	0	349661	683	0	correct_rejection	NA	0
17	Correct	114	438	438	9	0	0	350377	684	0	correct_rejection	NA	0
17	Correct	115	439	439	7	0	0	351094	683	0	correct_rejection	NA	0
17	Correct	116	440	440	0	1	1	351810	684	1	hit	470	0
17	Correct	117	441	441	8	0	0	352527	684	0	correct_rejection	NA	0
17	Correct	118	442	442	9	0	0	353244	683	0	correct_rejection	NA	0
17	Correct	119	443	443	7	0	0	353960	684	0	correct_rejection	NA	0
17	Correct	120	444	444	0	1	1	354677	683	1	hit	449	0
17	Correct	121	445	445	8	0	0	355394	683	0	correct_rejection	NA	0
17	Correct	122	446	446	9	0	0	356110	684	0	correct_rejection	NA	0
17	Correct	123	447	447	4	0	0	356827	683	0	correct_rejection	NA	0
17	Correct	124	448	448	5	0	0	357544	683	0	correct_rejection	NA	0
17	Correct	125	449	449	6	0	0	358260	684	0	correct_rejection	NA	0
17	Correct	126	450	450	4	0	0	358977	683	0	correct_rejection	NA	0
17	Correct	127	451	451	0	1	1	359694	683	1	hit	489	0
17	Correct	128	452	452	5	0	0	360410	684	0	correct_rejection	NA	0
17	Correct	129	453	453	6	0	0	361127	683	0	correct_rejection	NA	0
17	Correct	130	454	454	4	0	0	361844	683	0	correct_rejection	NA	0
17	Correct	131	455	455	5	0	0	362560	684	0	correct_rejection	NA	0
17	Correct	132	456	456	6	0	0	363277	683	0	correct_rejection	NA	0
17	Correct	133	457	457	6	0	0	363994	683	0	correct_rejection	NA	0
17	Correct	134	458	458	5	0	0	364710	684	0	correct_rejection	NA	0
17	Correct	135	459	459	0	1	1	365427	683	1	hit	582	0
17	Correct	136	460	460	4	0	0	366144	683	0	correct_rejection	NA	0
17	Correct	137	461	461	6	0	0	366860	684	0	correct_rejection	NA	0
17	Correct	138	462	462	5	0	0	367577	683	0	correct_rejection	NA	0
17	Correct	139	463	463	4	0	0	368294	683	0	correct_rejection	NA	0
17	Correct	140	464	464	6	0	0	369010	684	0	correct_rejection	NA	0
17	Correct	141	465	465	5	0	0	369727	683	0	correct_rejection	NA	0
17	Correct	142	466	466	4	0	0	370444	683	0	correct_rejection	NA	0
17	Correct	143	467	467	9	0	0	371160	684	0	correct_rejection	NA	0
17	Correct	144	468	468	8	0	0	371877	683	0	correct_rejection	NA	0
17	Correct	145	469	469	7	0	0	372593	684	0	correct_rejection	NA	0
17	Correct	146	470	470	9	0	0	373310	684	0	correct_rejection	NA	0
17	Correct	147	471	471	0	1	1	374027	683	1	hit	516	0
17	Correct	148	472	472	8	0	0	374743	684	0	correct_rejection	NA	0
17	Correct	149	473	473	7	0	0	375460	683	0	correct_rejection	NA	0
17	Correct	150	474	474	9	0	0	376177	683	0	correct_rejection	NA	0
17	Correct	151	475	475	8	0	0	376893	684	0	correct_rejection	NA	0
17	Correct	152	476	476	7	0	0	377610	683	0	correct_rejection	NA	0
17	Correct	153	477	477	7	0	0	378327	683	0	correct_rejection	NA	0
17	Correct	154	478	478	8	0	0	379043	684	0	correct_rejection	NA	0
17	Correct	155	479	479	9	0	0	379760	683	0	correct_rejection	NA	0
17	Correct	156	480	480	0	1	2	380477	683	1	hit	553	0
17	Correct	157	481	481	7	0	0	381193	684	0	correct_rejection	NA	0
17	Correct	158	482	482	8	0	0	381910	683	0	correct_rejection	NA	0
17	Correct	159	483	483	9	0	0	382627	683	0	correct_rejection	NA	0
17	Correct	160	484	484	7	0	0	383343	684	0	correct_rejection	NA	0
17	Correct	161	485	485	8	0	0	384060	683	0	correct_rejection	NA	0
17	Correct	162	486	486	9	0	0	384777	683	0	correct_rejection	NA	0
17	Single	1	487	487	7	0	0	393743	684	0	correct_rejection	NA	7157
17	Single	2	488	488	4	0	0	394460	683	0	correct_rejection	NA	0
17	Single	3	489	489	5	0	0	395176	684	0	correct_rejection	NA	0
17	Single	4	490	490	0	1	1	395893	683	1	hit	446	0
17	Single	5	491	491	5	0	0	396610	683	0	correct_rejection	NA	0
17	Single	6	492	492	7	0	0	397326	684	0	correct_rejection	NA	0
17	Single	7	493	493	6	0	0	398043	683	0	correct_rejection	NA	0
17	Single	8	494	494	4	0	0	398760	683	0	correct_rejection	NA	0
17	Single	9	495	495	9	0	0	399476	684	0	correct_rejection	NA	0
17	Single	10	496	496	0	1	1	400193	683	0	miss	NA	0
17	Single	11	497	497	5	0	0	400910	683	1	false_alarm	82	0
17	Single	12	498	498	9	0	0	401626	684	0	correct_rejection	NA	0
17	Single	13	499	499	0	1	1	402343	683	1	hit	439	0
17	Single	14	500	500	4	0	0	403060	683	0	correct_rejection	NA	0
17	Single	15	501	501	8	0	0	403776	684	0	correct_rejection	NA	0
17	Single	16	502	502	5	0	0	404493	683	0	correct_rejection	NA	0
17	Single	17	503	503	8	0	0	405210	683	0	correct_rejection	NA	0
17	Single	18	504	504	4	0	0	405926	684	0	correct_rejection	NA	0
17	Single	19	505	505	7	0	0	406643	683	0	correct_rejection	NA	0
17	Single	20	506	506	8	0	0	407360	683	0	correct_rejection	NA	0
17	Single	21	507	507	6	0	0	408076	684	0	correct_rejection	NA	0
17	Single	22	508	508	8	0	0	408793	683	0	correct_rejection	NA	0
17	Single	23	509	509	9	0	0	409510	683	0	correct_rejection	NA	0
17	Single	24	510	510	7	0	0	410226	684	0	correct_rejection	NA	0
17	Single	25	511	511	0	1	1	410943	683	1	hit	490	0
17	Single	26	512	512	5	0	0	411660	683	0	correct_rejection	NA	0
17	Single	27	513	513	6	0	0	412376	684	0	correct_rejection	NA	0
17	Single	28	514	514	9	0	0	413093	683	0	correct_rejection	NA	0
17	Single	29	515	515	6	0	0	413809	684	0	correct_rejection	NA	0
17	Single	30	516	516	6	0	0	414526	684	0	correct_rejection	NA	0
17	Single	31	517	517	5	0	0	415243	683	0	correct_rejection	NA	0
17	Single	32	518	518	4	0	0	415959	684	0	correct_rejection	NA	0
17	Single	33	519	519	4	0	0	416676	683	0	correct_rejection	NA	0
17	Single	34	520	520	0	1	1	417393	683	1	hit	534	0
17	Single	35	521	521	6	0	0	418109	684	0	correct_rejection	NA	0
17	Single	36	522	522	7	0	0	418826	683	0	correct_rejection	NA	0
17	Single	37	523	523	7	0	0	419543	683	0	correct_rejection	NA	0
17	Single	38	524	524	9	0	0	420259	684	0	correct_rejection	NA	0
17	Single	39	525	525	9	0	0	420976	683	0	correct_rejection	NA	0
17	Single	40	526	526	8	0	0	421693	683	0	correct_rejection	NA	0
17	Single	41	527	527	8	0	0	422409	684	0	correct_rejection	NA	0
17	Single	42	528	528	5	0	0	423126	683	0	correct_rejection	NA	0
17	Single	43	529	529	9	0	0	423843	683	0	correct_rejection	NA	0
17	Single	44	530	530	9	0	0	424559	684	0	correct_rejection	NA	0
17	Single	45	531	531	7	0	0	425276	683	0	correct_rejection	NA	0
17	Single	46	532	532	0	1	1	425993	683	1	hit	511	0
17	Single	47	533	533	9	0	0	426709	684	0	correct_rejection	NA	0
17	Single	48	534	534	5	0	0	427426	683	0	correct_rejection	NA	0
17	Single	49	535	535	5	0	0	428143	683	0	correct_rejection	NA	0
17	Single	50	536	536	0	1	1	428859	684	1	hit	578	0
17	Single	51	537	537	8	0	0	429576	683	0	correct_rejection	NA	0
17	Single	52	538	538	7	0	0	430293	683	0	correct_rejection	NA	0
17	Single	53	539	539	5	0	0	431009	684	0	correct_rejection	NA	0
17	Single	54	540	540	4	0	0	431726	683	0	correct_rejection	NA	0
17	Single	55	541	541	5	0	0	432443	683	0	correct_rejection	NA	0
17	Single	56	542	542	7	0	0	433159	684	0	correct_rejection	NA	0
17	Single	57	543	543	7	0	0	433876	683	0	correct_rejection	NA	0
17	Single	58	544	544	4	0	0	434592	684	0	correct_rejection	NA	0
17	Single	59	545	545	9	0	0	435309	684	0	correct_rejection	NA	0
17	Single	60	546	546	6	0	0	436026	683	0	correct_rejection	NA	0
17	Single	61	547	547	7	0	0	436742	684	0	correct_rejection	NA	0
17	Single	62	548	548	8	0	0	437459	683	0	correct_rejection	NA	0
17	Single	63	549	549	4	0	0	438176	683	0	correct_rejection	NA	0
17	Single	64	550	550	6	0	0	438892	684	0	correct_rejection	NA	0
17	Single	65	551	551	5	0	0	439609	683	0	correct_rejection	NA	0
17	Single	66	552	552	6	0	0	440326	683	0	correct_rejection	NA	0
17	Single	67	553	553	6	0	0	441042	684	0	correct_rejection	NA	0
17	Single	68	554	554	9	0	0	441759	683	0	correct_rejection	NA	0
17	Single	69	555	555	8	0	0	442476	683	0	correct_rejection	NA	0
17	Single	70	556	556	9	0	0	443192	684	0	correct_rejection	NA	0
17	Single	71	557	557	4	0	0	443909	683	0	correct_rejection	NA	0
17	Single	72	558	558	4	0	0	444626	683	0	correct_rejection	NA	0
17	Single	73	559	559	8	0	0	445342	684	0	correct_rejection	NA	0
17	Single	74	560	560	6	0	0	446059	683	0	correct_rejection	NA	0
17	Single	75	561	561	4	0	0	446776	683	0	correct_rejection	NA	0
17	Single	76	562	562	7	0	0	447492	684	0	correct_rejection	NA	0
17	Single	77	563	563	6	0	0	448209	683	0	correct_rejection	NA	0
17	Single	78	564	564	8	0	0	448926	683	0	correct_rejection	NA	0
17	Single	79	565	565	8	0	0	449642	684	0	correct_rejection	NA	0
17	Single	80	566	566	4	0	0	450359	683	0	correct_rejection	NA	0
17	Single	81	567	567	7	0	0	451076	683	0	correct_rejection	NA	0
17	Single	82	568	568	5	0	0	451792	684	0	correct_rejection	NA	0
17	Single	83	569	569	5	0	0	452509	683	0	correct_rejection	NA	0
17	Single	84	570	570	4	0	0	453226	683	0	correct_rejection	NA	0
17	Single	85	571	571	0	1	1	453942	684	1	hit	510	0
17	Single	86	572	572	8	0	0	454659	683	0	correct_rejection	NA	0
17	Single	87	573	573	9	0	0	455375	684	0	correct_rejection	NA	0
17	Single	88	574	574	0	1	1	456092	683	1	hit	560	0
17	Single	89	575	575	6	0	0	456809	683	0	correct_rejection	NA	0
17	Single	90	576	576	9	0	0	457525	684	0	correct_rejection	NA	0
17	Single	91	577	577	9	0	0	458242	683	0	correct_rejection	NA	0
17	Single	92	578	578	5	0	0	458959	683	0	correct_rejection	NA	0
17	Single	93	579	579	8	0	0	459675	684	0	correct_rejection	NA	0
17	Single	94	580	580	5	0	0	460392	683	0	correct_rejection	NA	0
17	Single	95	581	581	6	0	0	461109	683	0	correct_rejection	NA	0
17	Single	96	582	582	7	0	0	461825	684	0	correct_rejection	NA	0
17	Single	97	583	583	9	0	0	462542	683	0	correct_rejection	NA	0
17	Single	98	584	584	4	0	0	463259	683	0	correct_rejection	NA	0
17	Single	99	585	585	6	0	0	463975	684	0	correct_rejection	NA	0
17	Single	100	586	586	8	0	0	464692	683	0	correct_rejection	NA	0
17	Single	101	587	587	0	1	1	465409	683	1	hit	489	0
17	Single	102	588	588	4	0	0	466125	684	0	correct_rejection	NA	0
17	Single	103	589	589	5	0	0	466842	683	0	correct_rejection	NA	0
17	Single	104	590	590	9	0	0	467559	683	0	correct_rejection	NA	0
17	Single	105	591	591	8	0	0	468275	684	0	correct_rejection	NA	0
17	Single	106	592	592	7	0	0	468992	683	0	correct_rejection	NA	0
17	Single	107	593	593	0	1	1	469709	683	1	hit	562	0
17	Single	108	594	594	6	0	0	470425	684	0	correct_rejection	NA	0
17	Single	109	595	595	6	0	0	471142	683	0	correct_rejection	NA	0
17	Single	110	596	596	4	0	0	471859	683	0	correct_rejection	NA	0
17	Single	111	597	597	0	1	1	472575	684	1	hit	492	0
17	Single	112	598	598	4	0	0	473292	683	0	correct_rejection	NA	0
17	Single	113	599	599	9	0	0	474009	683	0	correct_rejection	NA	0
17	Single	114	600	600	7	0	0	474725	684	0	correct_rejection	NA	0
17	Single	115	601	601	7	0	0	475442	683	0	correct_rejection	NA	0
17	Single	116	602	602	0	1	1	476158	684	1	hit	455	0
17	Single	117	603	603	8	0	0	476875	684	0	correct_rejection	NA	0
17	Single	118	604	604	8	0	0	477592	683	0	correct_rejection	NA	0
17	Single	119	605	605	6	0	0	478308	684	0	correct_rejection	NA	0
17	Single	120	606	606	5	0	0	479025	683	0	correct_rejection	NA	0
17	Single	121	607	607	7	0	0	479742	683	0	correct_rejection	NA	0
17	Single	122	608	608	0	1	1	480458	684	1	hit	473	0
17	Single	123	609	609	7	0	0	481175	683	0	correct_rejection	NA	0
17	Single	124	610	610	8	0	0	481892	683	0	correct_rejection	NA	0
17	Single	125	611	611	5	0	0	482608	684	0	correct_rejection	NA	0
17	Single	126	612	612	0	1	1	483325	683	1	hit	523	0
17	Single	127	613	613	7	0	0	484042	683	0	correct_rejection	NA	0
17	Single	128	614	614	6	0	0	484758	684	0	correct_rejection	NA	0
17	Single	129	615	615	4	0	0	485475	683	0	correct_rejection	NA	0
17	Single	130	616	616	5	0	0	486192	683	0	correct_rejection	NA	0
17	Single	131	617	617	5	0	0	486908	684	0	correct_rejection	NA	0
17	Single	132	618	618	6	0	0	487625	683	0	correct_rejection	NA	0
17	Single	133	619	619	8	0	0	488342	683	0	correct_rejection	NA	0
17	Single	134	620	620	0	1	1	489058	684	1	hit	678	0
17	Single	135	621	621	6	0	0	489775	683	0	correct_rejection	NA	0
17	Single	136	622	622	9	0	0	490492	683	0	correct_rejection	NA	0
17	Single	137	623	623	4	0	0	491208	684	0	correct_rejection	NA	0
17	Single	138	624	624	8	0	0	491925	683	0	correct_rejection	NA	0
17	Single	139	625	625	7	0	0	492642	683	0	correct_rejection	NA	0
17	Single	140	626	626	0	1	1	493358	684	1	hit	585	0
17	Single	141	627	627	4	0	0	494075	683	0	correct_rejection	NA	0
17	Single	142	628	628	6	0	0	494792	683	0	correct_rejection	NA	0
17	Single	143	629	629	6	0	0	495508	684	0	correct_rejection	NA	0
17	Single	144	630	630	7	0	0	496225	683	0	correct_rejection	NA	0
17	Single	145	631	631	5	0	0	496941	684	0	correct_rejection	NA	0
17	Single	146	632	632	8	0	0	497658	684	0	correct_rejection	NA	0
17	Single	147	633	633	9	0	0	498375	683	0	correct_rejection	NA	0
17	Single	148	634	634	8	0	0	499091	684	0	correct_rejection	NA	0
17	Single	149	635	635	8	0	0	499808	683	0	correct_rejection	NA	0
17	Single	150	636	636	4	0	0	500525	683	0	correct_rejection	NA	0
17	Single	151	637	637	9	0	0	501241	684	0	correct_rejection	NA	0
17	Single	152	638	638	5	0	0	501958	683	0	correct_rejection	NA	0
17	Single	153	639	639	4	0	0	502675	683	0	correct_rejection	NA	0
17	Single	154	640	640	4	0	0	503391	684	0	correct_rejection	NA	0
17	Single	155	641	641	7	0	0	504108	683	0	correct_rejection	NA	0
17	Single	156	642	642	9	0	0	504825	683	0	correct_rejection	NA	0
17	Single	157	643	643	9	0	0	505541	684	0	correct_rejection	NA	0
17	Single	158	644	644	6	0	0	506258	683	0	correct_rejection	NA	0
17	Single	159	645	645	5	0	0	506975	683	0	correct_rejection	NA	0
17	Single	160	646	646	0	1	1	507691	684	0	miss	NA	0
17	Single	161	647	647	9	0	0	508408	683	1	false_alarm	0	0
17	Single	162	648	648	7	0	0	509125	683	0	correct_rejection	NA	0
17	Triplet	1	1	649	9	0	0	519424	684	0	correct_rejection	NA	7837
17	Triplet	2	2	650	8	0	0	520141	683	0	correct_rejection	NA	0
17	Triplet	3	3	651	7	0	0	520858	683	0	correct_rejection	NA	0
17	Triplet	4	4	652	6	0	0	521574	684	0	correct_rejection	NA	0
17	Triplet	5	5	653	5	0	0	522291	683	0	correct_rejection	NA	0
17	Triplet	6	6	654	4	0	0	523008	683	0	correct_rejection	NA	0
17	Triplet	7	7	655	7	0	0	523724	684	0	correct_rejection	NA	0
17	Triplet	8	8	656	8	0	0	524441	683	0	correct_rejection	NA	0
17	Triplet	9	9	657	9	0	0	525158	683	0	correct_rejection	NA	0
17	Triplet	10	10	658	7	0	0	525874	684	0	correct_rejection	NA	0
17	Triplet	11	11	659	8	0	0	526591	683	0	correct_rejection	NA	0
17	Triplet	12	12	660	9	0	0	527308	683	0	correct_rejection	NA	0
17	Triplet	13	13	661	0	1	2	528024	684	1	hit	512	0
17	Triplet	14	14	662	4	0	0	528741	683	0	correct_rejection	NA	0
17	Triplet	15	15	663	5	0	0	529458	683	0	correct_rejection	NA	0
17	Triplet	16	16	664	0	1	1	530174	684	1	hit	555	0
17	Triplet	17	17	665	6	0	0	530891	683	0	correct_rejection	NA	0
17	Triplet	18	18	666	6	0	0	531608	683	0	correct_rejection	NA	0
17	Triplet	19	19	667	0	1	1	532324	684	1	hit	462	0
17	Triplet	20	20	668	5	0	0	533041	683	0	correct_rejection	NA	0
17	Triplet	21	21	669	4	0	0	533758	683	0	correct_rejection	NA	0
17	Triplet	22	22	670	4	0	0	534474	684	0	correct_rejection	NA	0
17	Triplet	23	23	671	5	0	0	535191	683	0	correct_rejection	NA	0
17	Triplet	24	24	672	6	0	0	535908	683	0	correct_rejection	NA	0
17	Triplet	25	25	673	0	1	2	536624	684	1	hit	502	0
17	Triplet	26	26	674	7	0	0	537341	683	0	correct_rejection	NA	0
17	Triplet	27	27	675	8	0	0	538058	683	0	correct_rejection	NA	0
17	Triplet	28	28	676	9	0	0	538774	684	0	correct_rejection	NA	0
17	Triplet	29	29	677	9	0	0	539491	683	0	correct_rejection	NA	0
17	Triplet	30	30	678	8	0	0	540207	684	0	correct_rejection	NA	0
17	Triplet	31	31	679	7	0	0	540924	683	0	correct_rejection	NA	0
17	Triplet	32	32	680	7	0	0	541641	683	0	correct_rejection	NA	0
17	Triplet	33	33	681	8	0	0	542357	684	0	correct_rejection	NA	0
17	Triplet	34	34	682	9	0	0	543074	683	0	correct_rejection	NA	0
17	Triplet	35	35	683	6	0	0	543791	683	0	correct_rejection	NA	0
17	Triplet	36	36	684	5	0	0	544507	684	0	correct_rejection	NA	0
17	Triplet	37	37	685	4	0	0	545224	683	0	correct_rejection	NA	0
17	Triplet	38	38	686	6	0	0	545941	683	0	correct_rejection	NA	0
17	Triplet	39	39	687	5	0	0	546657	684	0	correct_rejection	NA	0
17	Triplet	40	40	688	4	0	0	547374	683	0	correct_rejection	NA	0
17	Triplet	41	41	689	9	0	0	548091	683	0	correct_rejection	NA	0
17	Triplet	42	42	690	8	0	0	548807	684	0	correct_rejection	NA	0
17	Triplet	43	43	691	7	0	0	549524	683	0	correct_rejection	NA	0
17	Triplet	44	44	692	9	0	0	550241	683	0	correct_rejection	NA	0
17	Triplet	45	45	693	8	0	0	550957	684	0	correct_rejection	NA	0
17	Triplet	46	46	694	7	0	0	551674	683	0	correct_rejection	NA	0
17	Triplet	47	47	695	0	1	2	552391	683	1	hit	573	0
17	Triplet	48	48	696	4	0	0	553107	684	0	correct_rejection	NA	0
17	Triplet	49	49	697	5	0	0	553824	683	0	correct_rejection	NA	0
17	Triplet	50	50	698	0	1	1	554541	683	1	hit	507	0
17	Triplet	51	51	699	6	0	0	555257	684	0	correct_rejection	NA	0
17	Triplet	52	52	700	4	0	0	555974	683	0	correct_rejection	NA	0
17	Triplet	53	53	701	5	0	0	556691	683	0	correct_rejection	NA	0
17	Triplet	54	54	702	6	0	0	557407	684	0	correct_rejection	NA	0
17	Triplet	55	55	703	9	0	0	558124	683	0	correct_rejection	NA	0
17	Triplet	56	56	704	8	0	0	558840	684	0	correct_rejection	NA	0
17	Triplet	57	57	705	7	0	0	559557	684	0	correct_rejection	NA	0
17	Triplet	58	58	706	4	0	0	560274	683	0	correct_rejection	NA	0
17	Triplet	59	59	707	5	0	0	560990	684	0	correct_rejection	NA	0
17	Triplet	60	60	708	6	0	0	561707	683	0	correct_rejection	NA	0
17	Triplet	61	61	709	0	1	2	562424	683	1	hit	604	0
17	Triplet	62	62	710	6	0	0	563140	684	0	correct_rejection	NA	0
17	Triplet	63	63	711	5	0	0	563857	683	0	correct_rejection	NA	0
17	Triplet	64	64	712	0	1	1	564574	683	1	hit	438	0
17	Triplet	65	65	713	4	0	0	565290	684	0	correct_rejection	NA	0
17	Triplet	66	66	714	6	0	0	566007	683	0	correct_rejection	NA	0
17	Triplet	67	67	715	5	0	0	566724	683	0	correct_rejection	NA	0
17	Triplet	68	68	716	4	0	0	567440	684	0	correct_rejection	NA	0
17	Triplet	69	69	717	0	1	2	568157	683	1	hit	419	0
17	Triplet	70	70	718	7	0	0	568874	683	0	correct_rejection	NA	0
17	Triplet	71	71	719	8	0	0	569590	684	0	correct_rejection	NA	0
17	Triplet	72	72	720	0	1	1	570307	683	1	hit	459	0
17	Triplet	73	73	721	9	0	0	571024	683	0	correct_rejection	NA	0
17	Triplet	74	74	722	4	0	0	571740	684	0	correct_rejection	NA	0
17	Triplet	75	75	723	0	1	1	572457	683	1	hit	361	0
17	Triplet	76	76	724	5	0	0	573174	683	0	correct_rejection	NA	0
17	Triplet	77	77	725	6	0	0	573890	684	0	correct_rejection	NA	0
17	Triplet	78	78	726	9	0	0	574607	683	0	correct_rejection	NA	0
17	Triplet	79	79	727	8	0	0	575324	683	0	correct_rejection	NA	0
17	Triplet	80	80	728	7	0	0	576040	684	0	correct_rejection	NA	0
17	Triplet	81	81	729	7	0	0	576757	683	0	correct_rejection	NA	0
17	Triplet	82	82	730	8	0	0	577474	683	0	correct_rejection	NA	0
17	Triplet	83	83	731	9	0	0	578190	684	0	correct_rejection	NA	0
17	Triplet	84	84	732	0	1	2	578907	683	1	hit	540	0
17	Triplet	85	85	733	9	0	0	579623	684	0	correct_rejection	NA	0
17	Triplet	86	86	734	8	0	0	580340	684	0	correct_rejection	NA	0
17	Triplet	87	87	735	7	0	0	581057	683	0	correct_rejection	NA	0
17	Triplet	88	88	736	6	0	0	581773	684	0	correct_rejection	NA	0
17	Triplet	89	89	737	5	0	0	582490	683	0	correct_rejection	NA	0
17	Triplet	90	90	738	4	0	0	583207	683	0	correct_rejection	NA	0
17	Triplet	91	91	739	4	0	0	583923	684	0	correct_rejection	NA	0
17	Triplet	92	92	740	5	0	0	584640	683	0	correct_rejection	NA	0
17	Triplet	93	93	741	6	0	0	585357	683	0	correct_rejection	NA	0
17	Triplet	94	94	742	4	0	0	586073	684	0	correct_rejection	NA	0
17	Triplet	95	95	743	0	1	1	586790	683	1	hit	562	0
17	Triplet	96	96	744	5	0	0	587507	683	0	correct_rejection	NA	0
17	Triplet	97	97	745	6	0	0	588223	684	0	correct_rejection	NA	0
17	Triplet	98	98	746	7	0	0	588940	683	0	correct_rejection	NA	0
17	Triplet	99	99	747	8	0	0	589657	683	0	correct_rejection	NA	0
17	Triplet	100	100	748	9	0	0	590373	684	0	correct_rejection	NA	0
17	Triplet	101	101	749	7	0	0	591090	683	0	correct_rejection	NA	0
17	Triplet	102	102	750	8	0	0	591807	683	0	correct_rejection	NA	0
17	Triplet	103	103	751	9	0	0	592523	684	0	correct_rejection	NA	0
17	Triplet	104	104	752	6	0	0	593240	683	0	correct_rejection	NA	0
17	Triplet	105	105	753	5	0	0	593957	683	0	correct_rejection	NA	0
17	Triplet	106	106	754	4	0	0	594673	684	0	correct_rejection	NA	0
17	Triplet	107	107	755	9	0	0	595390	683	0	correct_rejection	NA	0
17	Triplet	108	108	756	8	0	0	596107	683	0	correct_rejection	NA	0
17	Triplet	109	109	757	0	1	1	596823	684	1	hit	520	0
17	Triplet	110	110	758	7	0	0	597540	683	0	correct_rejection	NA	0
17	Triplet	111	111	759	7	0	0	598257	683	0	correct_rejection	NA	0
17	Triplet	112	112	760	8	0	0	598973	684	0	correct_rejection	NA	0
17	Triplet	113	113	761	9	0	0	599690	683	0	correct_rejection	NA	0
17	Triplet	114	114	762	4	0	0	600406	684	0	correct_rejection	NA	0
17	Triplet	115	115	763	5	0	0	601123	684	0	correct_rejection	NA	0
17	Triplet	116	116	764	6	0	0	601840	683	0	correct_rejection	NA	0
17	Triplet	117	117	765	4	0	0	602556	684	0	correct_rejection	NA	0
17	Triplet	118	118	766	5	0	0	603273	683	0	correct_rejection	NA	0
17	Triplet	119	119	767	6	0	0	603990	683	0	correct_rejection	NA	0
17	Triplet	120	120	768	0	1	2	604706	684	1	hit	448	0
17	Triplet	121	121	769	9	0	0	605423	683	0	correct_rejection	NA	0
17	Triplet	122	122	770	8	0	0	606140	683	0	correct_rejection	NA	0
17	Triplet	123	123	771	7	0	0	606856	684	0	correct_rejection	NA	0
17	Triplet	124	124	772	4	0	0	607573	683	0	correct_rejection	NA	0
17	Triplet	125	125	773	5	0	0	608290	683	0	correct_rejection	NA	0
17	Triplet	126	126	774	6	0	0	609006	684	0	correct_rejection	NA	0
17	Triplet	127	127	775	7	0	0	609723	683	0	correct_rejection	NA	0
17	Triplet	128	128	776	8	0	0	610440	683	0	correct_rejection	NA	0
17	Triplet	129	129	777	0	1	1	611156	684	1	hit	569	0
17	Triplet	130	130	778	9	0	0	611873	683	0	correct_rejection	NA	0
17	Triplet	131	131	779	6	0	0	612590	683	0	correct_rejection	NA	0
17	Triplet	132	132	780	5	0	0	613306	684	0	correct_rejection	NA	0
17	Triplet	133	133	781	4	0	0	614023	683	0	correct_rejection	NA	0
17	Triplet	134	134	782	0	1	2	614740	683	1	hit	650	0
17	Triplet	135	135	783	4	0	0	615456	684	0	correct_rejection	NA	0
17	Triplet	136	136	784	5	0	0	616173	683	0	correct_rejection	NA	0
17	Triplet	137	137	785	6	0	0	616890	683	0	correct_rejection	NA	0
17	Triplet	138	138	786	6	0	0	617606	684	0	correct_rejection	NA	0
17	Triplet	139	139	787	5	0	0	618323	683	0	correct_rejection	NA	0
17	Triplet	140	140	788	4	0	0	619040	683	0	correct_rejection	NA	0
17	Triplet	141	141	789	9	0	0	619756	684	0	correct_rejection	NA	0
17	Triplet	142	142	790	8	0	0	620473	683	0	correct_rejection	NA	0
17	Triplet	143	143	791	7	0	0	621189	684	0	correct_rejection	NA	0
17	Triplet	144	144	792	7	0	0	621906	683	0	correct_rejection	NA	0
17	Triplet	145	145	793	8	0	0	622623	683	0	correct_rejection	NA	0
17	Triplet	146	146	794	9	0	0	623339	684	0	correct_rejection	NA	0
17	Triplet	147	147	795	7	0	0	624056	683	0	correct_rejection	NA	0
17	Triplet	148	148	796	8	0	0	624773	683	0	correct_rejection	NA	0
17	Triplet	149	149	797	9	0	0	625489	684	0	correct_rejection	NA	0
17	Triplet	150	150	798	9	0	0	626206	683	0	correct_rejection	NA	0
17	Triplet	151	151	799	0	1	1	626923	683	1	hit	451	0
17	Triplet	152	152	800	8	0	0	627639	684	0	correct_rejection	NA	0
17	Triplet	153	153	801	7	0	0	628356	683	0	correct_rejection	NA	0
17	Triplet	154	154	802	9	0	0	629073	683	0	correct_rejection	NA	0
17	Triplet	155	155	803	8	0	0	629789	684	0	correct_rejection	NA	0
17	Triplet	156	156	804	7	0	0	630506	683	0	correct_rejection	NA	0
17	Triplet	157	157	805	6	0	0	631223	683	0	correct_rejection	NA	0
17	Triplet	158	158	806	5	0	0	631939	684	0	correct_rejection	NA	0
17	Triplet	159	159	807	4	0	0	632656	683	0	correct_rejection	NA	0
17	Triplet	160	160	808	6	0	0	633373	683	0	correct_rejection	NA	0
17	Triplet	161	161	809	5	0	0	634089	684	0	correct_rejection	NA	0
17	Triplet	162	162	810	4	0	0	634806	683	0	correct_rejection	NA	0
trigger nr 629 at 636512
trigger nr 633 at 719580
17	Correct	1	649	811	4	0	0	727604	684	0	correct_rejection	NA	7957
17	Correct	2	650	812	5	0	0	728321	683	0	correct_rejection	NA	0
17	Correct	3	651	813	6	0	0	729038	683	0	correct_rejection	NA	0
17	Correct	4	652	814	4	0	0	729754	684	0	correct_rejection	NA	0
17	Correct	5	653	815	5	0	0	730471	683	0	correct_rejection	NA	0
17	Correct	6	654	816	6	0	0	731188	683	0	correct_rejection	NA	0
17	Correct	7	655	817	4	0	0	731904	684	0	correct_rejection	NA	0
17	Correct	8	656	818	5	0	0	732621	683	0	correct_rejection	NA	0
17	Correct	9	657	819	6	0	0	733338	683	0	correct_rejection	NA	0
17	Correct	10	658	820	6	0	0	734054	684	0	correct_rejection	NA	0
17	Correct	11	659	821	5	0	0	734771	683	0	correct_rejection	NA	0
17	Correct	12	660	822	4	0	0	735488	683	0	correct_rejection	NA	0
17	Correct	13	661	823	6	0	0	736204	684	0	correct_rejection	NA	0
17	Correct	14	662	824	5	0	0	736921	683	0	correct_rejection	NA	0
17	Correct	15	663	825	4	0	0	737638	683	0	correct_rejection	NA	0
17	Correct	16	664	826	6	0	0	738354	684	0	correct_rejection	NA	0
17	Correct	17	665	827	5	0	0	739071	683	0	correct_rejection	NA	0
17	Correct	18	666	828	4	0	0	739788	683	0	correct_rejection	NA	0
17	Correct	19	667	829	9	0	0	740504	684	0	correct_rejection	NA	0
17	Correct	20	668	830	8	0	0	741221	683	0	correct_rejection	NA	0
17	Correct	21	669	831	7	0	0	741938	683	0	correct_rejection	NA	0
17	Correct	22	670	832	0	1	2	742654	684	1	hit	628	0
17	Correct	23	671	833	9	0	0	743371	683	0	correct_rejection	NA	0
17	Correct	24	672	834	8	0	0	744088	683	0	correct_rejection	NA	0
17	Correct	25	673	835	7	0	0	744804	684	0	correct_rejection	NA	0
17	Correct	26	674	836	9	0	0	745521	683	0	correct_rejection	NA	0
17	Correct	27	675	837	8	0	0	746237	684	0	correct_rejection	NA	0
17	Correct	28	676	838	7	0	0	746954	683	0	correct_rejection	NA	0
17	Correct	29	677	839	7	0	0	747671	683	0	correct_rejection	NA	0
17	Correct	30	678	840	8	0	0	748387	684	0	correct_rejection	NA	0
17	Correct	31	679	841	9	0	0	749104	683	0	correct_rejection	NA	0
17	Correct	32	680	842	7	0	0	749821	683	0	correct_rejection	NA	0
17	Correct	33	681	843	8	0	0	750537	684	0	correct_rejection	NA	0
17	Correct	34	682	844	9	0	0	751254	683	0	correct_rejection	NA	0
17	Correct	35	683	845	0	1	2	751971	683	0	miss	NA	0
17	Correct	36	684	846	7	0	0	752687	684	1	false_alarm	9	0
17	Correct	37	685	847	8	0	0	753404	683	0	correct_rejection	NA	0
17	Correct	38	686	848	9	0	0	754121	683	0	correct_rejection	NA	0
17	Correct	39	687	849	0	1	4	754837	684	1	hit	556	0
17	Correct	40	688	850	4	0	0	755554	683	0	correct_rejection	NA	0
17	Correct	41	689	851	5	0	0	756271	683	0	correct_rejection	NA	0
17	Correct	42	690	852	6	0	0	756987	684	0	correct_rejection	NA	0
17	Correct	43	691	853	4	0	0	757704	683	0	correct_rejection	NA	0
17	Correct	44	692	854	0	1	1	758421	683	0	miss	NA	0
17	Correct	45	693	855	5	0	0	759137	684	0	correct_rejection	NA	0
17	Correct	46	694	856	6	0	0	759854	683	0	correct_rejection	NA	0
17	Correct	47	695	857	4	0	0	760571	683	0	correct_rejection	NA	0
17	Correct	48	696	858	5	0	0	761287	684	0	correct_rejection	NA	0
17	Correct	49	697	859	6	0	0	762004	683	0	correct_rejection	NA	0
17	Correct	50	698	860	6	0	0	762721	683	0	correct_rejection	NA	0
17	Correct	51	699	861	5	0	0	763437	684	0	correct_rejection	NA	0
17	Correct	52	700	862	4	0	0	764154	683	0	correct_rejection	NA	0
17	Correct	53	701	863	6	0	0	764871	683	0	correct_rejection	NA	0
17	Correct	54	702	864	5	0	0	765587	684	0	correct_rejection	NA	0
17	Correct	55	703	865	4	0	0	766304	683	0	correct_rejection	NA	0
17	Correct	56	704	866	6	0	0	767020	684	0	correct_rejection	NA	0
17	Correct	57	705	867	5	0	0	767737	683	0	correct_rejection	NA	0
17	Correct	58	706	868	0	1	1	768454	683	1	hit	661	0
17	Correct	59	707	869	4	0	0	769170	684	0	correct_rejection	NA	0
17	Correct	60	708	870	9	0	0	769887	683	0	correct_rejection	NA	0
17	Correct	61	709	871	8	0	0	770604	683	0	correct_rejection	NA	0
17	Correct	62	710	872	7	0	0	771320	684	0	correct_rejection	NA	0
17	Correct	63	711	873	9	0	0	772037	683	0	correct_rejection	NA	0
17	Correct	64	712	874	0	1	1	772754	683	1	hit	546	0
17	Correct	65	713	875	8	0	0	773470	684	0	correct_rejection	NA	0
17	Correct	66	714	876	7	0	0	774187	683	0	correct_rejection	NA	0
17	Correct	67	715	877	9	0	0	774904	683	0	correct_rejection	NA	0
17	Correct	68	716	878	8	0	0	775620	684	0	correct_rejection	NA	0
17	Correct	69	717	879	7	0	0	776337	683	0	correct_rejection	NA	0
17	Correct	70	718	880	7	0	0	777054	683	0	correct_rejection	NA	0
17	Correct	71	719	881	8	0	0	777770	684	0	correct_rejection	NA	0
17	Correct	72	720	882	9	0	0	778487	683	0	correct_rejection	NA	0
17	Correct	73	721	883	7	0	0	779204	683	0	correct_rejection	NA	0
17	Correct	74	722	884	8	0	0	779920	684	0	correct_rejection	NA	0
17	Correct	75	723	885	9	0	0	780637	683	0	correct_rejection	NA	0
17	Correct	76	724	886	7	0	0	781354	683	0	correct_rejection	NA	0
17	Correct	77	725	887	0	1	1	782070	684	1	hit	590	0
17	Correct	78	726	888	8	0	0	782787	683	0	correct_rejection	NA	0
17	Correct	79	727	889	9	0	0	783504	683	0	correct_rejection	NA	0
17	Correct	80	728	890	4	0	0	784220	684	0	correct_rejection	NA	0
17	Correct	81	729	891	5	0	0	784937	683	0	correct_rejection	NA	0
17	Correct	82	730	892	6	0	0	785654	683	0	correct_rejection	NA	0
17	Correct	83	731	893	4	0	0	786370	684	0	correct_rejection	NA	0
17	Correct	84	732	894	5	0	0	787087	683	0	correct_rejection	NA	0
17	Correct	85	733	895	6	0	0	787803	684	0	correct_rejection	NA	0
17	Correct	86	734	896	4	0	0	788520	683	0	correct_rejection	NA	0
17	Correct	87	735	897	5	0	0	789237	683	0	correct_rejection	NA	0
17	Correct	88	736	898	6	0	0	789953	684	0	correct_rejection	NA	0
17	Correct	89	737	899	6	0	0	790670	683	0	correct_rejection	NA	0
17	Correct	90	738	900	5	0	0	791387	683	0	correct_rejection	NA	0
17	Correct	91	739	901	4	0	0	792103	684	0	correct_rejection	NA	0
17	Correct	92	740	902	6	0	0	792820	683	0	correct_rejection	NA	0
17	Correct	93	741	903	0	1	1	793537	683	1	hit	515	0
17	Correct	94	742	904	5	0	0	794253	684	0	correct_rejection	NA	0
17	Correct	95	743	905	4	0	0	794970	683	0	correct_rejection	NA	0
17	Correct	96	744	906	6	0	0	795687	683	0	correct_rejection	NA	0
17	Correct	97	745	907	5	0	0	796403	684	0	correct_rejection	NA	0
17	Correct	98	746	908	4	0	0	797120	683	0	correct_rejection	NA	0
17	Correct	99	747	909	0	1	3	797837	683	1	hit	556	0
17	Correct	100	748	910	9	0	0	798553	684	0	correct_rejection	NA	0
17	Correct	101	749	911	8	0	0	799270	683	0	correct_rejection	NA	0
17	Correct	102	750	912	7	0	0	799987	683	0	correct_rejection	NA	0
17	Correct	103	751	913	9	0	0	800703	684	0	correct_rejection	NA	0
17	Correct	104	752	914	8	0	0	801420	683	0	correct_rejection	NA	0
17	Correct	105	753	915	7	0	0	802137	683	0	correct_rejection	NA	0
17	Correct	106	754	916	9	0	0	802853	684	0	correct_rejection	NA	0
17	Correct	107	755	917	8	0	0	803570	683	0	correct_rejection	NA	0
17	Correct	108	756	918	7	0	0	804287	683	0	correct_rejection	NA	0
17	Correct	109	757	919	0	1	3	805003	684	1	hit	633	0
17	Correct	110	758	920	7	0	0	805720	683	0	correct_rejection	NA	0
17	Correct	111	759	921	8	0	0	806437	683	0	correct_rejection	NA	0
17	Correct	112	760	922	9	0	0	807153	684	0	correct_rejection	NA	0
17	Correct	113	761	923	0	1	2	807870	683	1	hit	448	0
17	Correct	114	762	924	7	0	0	808586	684	0	correct_rejection	NA	0
17	Correct	115	763	925	8	0	0	809303	683	0	correct_rejection	NA	0
17	Correct	116	764	926	9	0	0	810020	683	0	correct_rejection	NA	0
17	Correct	117	765	927	7	0	0	810736	684	0	correct_rejection	NA	0
17	Correct	118	766	928	8	0	0	811453	683	0	correct_rejection	NA	0
17	Correct	119	767	929	9	0	0	812170	683	0	correct_rejection	NA	0
17	Correct	120	768	930	4	0	0	812886	684	0	correct_rejection	NA	0
17	Correct	121	769	931	0	1	1	813603	683	1	hit	435	0
17	Correct	122	770	932	5	0	0	814320	683	0	correct_rejection	NA	0
17	Correct	123	771	933	6	0	0	815036	684	0	correct_rejection	NA	0
17	Correct	124	772	934	4	0	0	815753	683	0	correct_rejection	NA	0
17	Correct	125	773	935	5	0	0	816470	683	0	correct_rejection	NA	0
17	Correct	126	774	936	0	1	1	817186	684	1	hit	564	0
17	Correct	127	775	937	6	0	0	817903	683	0	correct_rejection	NA	0
17	Correct	128	776	938	4	0	0	818620	683	0	correct_rejection	NA	0
17	Correct	129	777	939	5	0	0	819336	684	0	correct_rejection	NA	0
17	Correct	130	778	940	6	0	0	820053	683	0	correct_rejection	NA	0
17	Correct	131	779	941	6	0	0	820770	683	0	correct_rejection	NA	0
17	Correct	132	780	942	5	0	0	821486	684	0	correct_rejection	NA	0
17	Correct	133	781	943	0	1	1	822203	683	1	hit	509	0
17	Correct	134	782	944	4	0	0	822920	683	0	correct_rejection	NA	0
17	Correct	135	783	945	6	0	0	823636	684	0	correct_rejection	NA	0
17	Correct	136	784	946	0	1	1	824353	683	1	hit	485	0
17	Correct	137	785	947	5	0	0	825070	683	0	correct_rejection	NA	0
17	Correct	138	786	948	4	0	0	825786	684	0	correct_rejection	NA	0
17	Correct	139	787	949	6	0	0	826503	683	0	correct_rejection	NA	0
17	Correct	140	788	950	5	0	0	827219	684	0	correct_rejection	NA	0
17	Correct	141	789	951	4	0	0	827936	684	0	correct_rejection	NA	0
17	Correct	142	790	952	9	0	0	828653	683	0	correct_rejection	NA	0
17	Correct	143	791	953	8	0	0	829369	684	0	correct_rejection	NA	0
17	Correct	144	792	954	0	1	1	830086	683	1	hit	552	0
17	Correct	145	793	955	7	0	0	830803	683	0	correct_rejection	NA	0
17	Correct	146	794	956	9	0	0	831519	684	0	correct_rejection	NA	0
17	Correct	147	795	957	8	0	0	832236	683	0	correct_rejection	NA	0
17	Correct	148	796	958	7	0	0	832953	683	0	correct_rejection	NA	0
17	Correct	149	797	959	9	0	0	833669	684	0	correct_rejection	NA	0
17	Correct	150	798	960	8	0	0	834386	683	0	correct_rejection	NA	0
17	Correct	151	799	961	7	0	0	835103	683	0	correct_rejection	NA	0
17	Correct	152	800	962	7	0	0	835819	684	0	correct_rejection	NA	0
17	Correct	153	801	963	8	0	0	836536	683	0	correct_rejection	NA	0
17	Correct	154	802	964	9	0	0	837253	683	0	correct_rejection	NA	0
17	Correct	155	803	965	7	0	0	837969	684	0	correct_rejection	NA	0
17	Correct	156	804	966	8	0	0	838686	683	0	correct_rejection	NA	0
17	Correct	157	805	967	0	1	1	839403	683	1	hit	497	0
17	Correct	158	806	968	9	0	0	840119	684	0	correct_rejection	NA	0
17	Correct	159	807	969	7	0	0	840836	683	0	correct_rejection	NA	0
17	Correct	160	808	970	8	0	0	841553	683	0	correct_rejection	NA	0
17	Correct	161	809	971	0	1	1	842269	684	0	miss	NA	0
17	Correct	162	810	972	9	0	0	842986	683	1	false_alarm	0	0
17	Triplet	1	649	973	4	0	0	853369	683	0	correct_rejection	NA	7727
17	Triplet	2	650	974	5	0	0	854086	683	0	correct_rejection	NA	0
17	Triplet	3	651	975	6	0	0	854802	684	0	correct_rejection	NA	0
17	Triplet	4	652	976	6	0	0	855519	683	0	correct_rejection	NA	0
17	Triplet	5	653	977	5	0	0	856236	683	0	correct_rejection	NA	0
17	Triplet	6	654	978	4	0	0	856952	684	0	correct_rejection	NA	0
17	Triplet	7	655	979	4	0	0	857669	683	0	correct_rejection	NA	0
17	Triplet	8	656	980	5	0	0	858386	683	0	correct_rejection	NA	0
17	Triplet	9	657	981	6	0	0	859102	684	0	correct_rejection	NA	0
17	Triplet	10	658	982	9	0	0	859819	683	0	correct_rejection	NA	0
17	Triplet	11	659	983	0	1	1	860536	683	1	hit	656	0
17	Triplet	12	660	984	8	0	0	861252	684	0	correct_rejection	NA	0
17	Triplet	13	661	985	7	0	0	861969	683	0	correct_rejection	NA	0
17	Triplet	14	662	986	6	0	0	862686	683	0	correct_rejection	NA	0
17	Triplet	15	663	987	0	1	1	863402	684	0	miss	NA	0
17	Triplet	16	664	988	5	0	0	864119	683	1	false_alarm	180	0
17	Triplet	17	665	989	4	0	0	864836	683	0	correct_rejection	NA	0
17	Triplet	18	666	990	6	0	0	865552	684	0	correct_rejection	NA	0
17	Triplet	19	667	991	5	0	0	866269	683	0	correct_rejection	NA	0
17	Triplet	20	668	992	4	0	0	866986	683	0	correct_rejection	NA	0
17	Triplet	21	669	993	7	0	0	867702	684	0	correct_rejection	NA	0
17	Triplet	22	670	994	8	0	0	868419	683	0	correct_rejection	NA	0
17	Triplet	23	671	995	9	0	0	869136	683	0	correct_rejection	NA	0
17	Triplet	24	672	996	6	0	0	869852	684	0	correct_rejection	NA	0
17	Triplet	25	673	997	0	1	1	870569	683	1	hit	450	0
17	Triplet	26	674	998	5	0	0	871285	684	0	correct_rejection	NA	0
17	Triplet	27	675	999	4	0	0	872002	683	0	correct_rejection	NA	0
17	Triplet	28	676	1000	9	0	0	872719	683	0	correct_rejection	NA	0
17	Triplet	29	677	1001	8	0	0	873435	684	0	correct_rejection	NA	0
17	Triplet	30	678	1002	7	0	0	874152	683	0	correct_rejection	NA	0
17	Triplet	31	679	1003	7	0	0	874869	683	0	correct_rejection	NA	0
17	Triplet	32	680	1004	8	0	0	875585	684	0	correct_rejection	NA	0
17	Triplet	33	681	1005	9	0	0	876302	683	0	correct_rejection	NA	0
17	Triplet	34	682	1006	4	0	0	877019	683	0	correct_rejection	NA	0
17	Triplet	35	683	1007	5	0	0	877735	684	0	correct_rejection	NA	0
17	Triplet	36	684	1008	6	0	0	878452	683	0	correct_rejection	NA	0
17	Triplet	37	685	1009	4	0	0	879169	683	0	correct_rejection	NA	0
17	Triplet	38	686	1010	5	0	0	879885	684	0	correct_rejection	NA	0
17	Triplet	39	687	1011	0	1	1	880602	683	1	hit	447	0
17	Triplet	40	688	1012	6	0	0	881319	683	0	correct_rejection	NA	0
17	Triplet	41	689	1013	7	0	0	882035	684	0	correct_rejection	NA	0
17	Triplet	42	690	1014	8	0	0	882752	683	0	correct_rejection	NA	0
17	Triplet	43	691	1015	9	0	0	883469	683	0	correct_rejection	NA	0
17	Triplet	44	692	1016	7	0	0	884185	684	0	correct_rejection	NA	0
17	Triplet	45	693	1017	8	0	0	884902	683	0	correct_rejection	NA	0
17	Triplet	46	694	1018	9	0	0	885619	683	0	correct_rejection	NA	0
17	Triplet	47	695	1019	9	0	0	886335	684	0	correct_rejection	NA	0
17	Triplet	48	696	1020	8	0	0	887052	683	0	correct_rejection	NA	0
17	Triplet	49	697	1021	0	1	1	887769	683	1	hit	568	0
17	Triplet	50	698	1022	7	0	0	888485	684	0	correct_rejection	NA	0
17	Triplet	51	699	1023	9	0	0	889202	683	0	correct_rejection	NA	0
17	Triplet	52	700	1024	8	0	0	889919	683	0	correct_rejection	NA	0
17	Triplet	53	701	1025	7	0	0	890635	683	0	correct_rejection	NA	0
17	Triplet	54	702	1026	7	0	0	891352	683	0	correct_rejection	NA	0
17	Triplet	55	703	1027	0	1	1	892068	684	1	hit	635	0
17	Triplet	56	704	1028	8	0	0	892785	683	0	correct_rejection	NA	0
17	Triplet	57	705	1029	9	0	0	893502	683	0	correct_rejection	NA	0
17	Triplet	58	706	1030	7	0	0	894218	684	0	correct_rejection	NA	0
17	Triplet	59	707	1031	8	0	0	894935	683	0	correct_rejection	NA	0
17	Triplet	60	708	1032	0	1	1	895652	683	1	hit	450	0
17	Triplet	61	709	1033	9	0	0	896368	684	0	correct_rejection	NA	0
17	Triplet	62	710	1034	6	0	0	897085	683	0	correct_rejection	NA	0
17	Triplet	63	711	1035	5	0	0	897802	683	0	correct_rejection	NA	0
17	Triplet	64	712	1036	4	0	0	898518	684	0	correct_rejection	NA	0
17	Triplet	65	713	1037	6	0	0	899235	683	0	correct_rejection	NA	0
17	Triplet	66	714	1038	5	0	0	899952	683	0	correct_rejection	NA	0
17	Triplet	67	715	1039	4	0	0	900668	684	0	correct_rejection	NA	0
17	Triplet	68	716	1040	0	1	2	901385	683	1	hit	549	0
17	Triplet	69	717	1041	4	0	0	902102	683	0	correct_rejection	NA	0
17	Triplet	70	718	1042	5	0	0	902818	684	0	correct_rejection	NA	0
17	Triplet	71	719	1043	6	0	0	903535	683	0	correct_rejection	NA	0
17	Triplet	72	720	1044	4	0	0	904252	683	0	correct_rejection	NA	0
17	Triplet	73	721	1045	5	0	0	904968	684	0	correct_rejection	NA	0
17	Triplet	74	722	1046	6	0	0	905685	683	0	correct_rejection	NA	0
17	Triplet	75	723	1047	6	0	0	906402	683	0	correct_rejection	NA	0
17	Triplet	76	724	1048	5	0	0	907118	684	0	correct_rejection	NA	0
17	Triplet	77	725	1049	0	1	1	907835	683	1	hit	530	0
17	Triplet	78	726	1050	4	0	0	908552	683	0	correct_rejection	NA	0
17	Triplet	79	727	1051	7	0	0	909268	684	0	correct_rejection	NA	0
17	Triplet	80	728	1052	8	0	0	909985	683	0	correct_rejection	NA	0
17	Triplet	81	729	1053	9	0	0	910702	683	0	correct_rejection	NA	0
17	Triplet	82	730	1054	4	0	0	911418	684	0	correct_rejection	NA	0
17	Triplet	83	731	1055	5	0	0	912135	683	0	correct_rejection	NA	0
17	Triplet	84	732	1056	6	0	0	912851	684	0	correct_rejection	NA	0
17	Triplet	85	733	1057	9	0	0	913568	683	0	correct_rejection	NA	0
17	Triplet	86	734	1058	8	0	0	914285	683	0	correct_rejection	NA	0
17	Triplet	87	735	1059	7	0	0	915001	684	0	correct_rejection	NA	0
17	Triplet	88	736	1060	9	0	0	915718	683	0	correct_rejection	NA	0
17	Triplet	89	737	1061	8	0	0	916435	683	0	correct_rejection	NA	0
17	Triplet	90	738	1062	7	0	0	917151	684	0	correct_rejection	NA	0
17	Triplet	91	739	1063	7	0	0	917868	683	0	correct_rejection	NA	0
17	Triplet	92	740	1064	8	0	0	918585	683	0	correct_rejection	NA	0
17	Triplet	93	741	1065	9	0	0	919301	684	0	correct_rejection	NA	0
17	Triplet	94	742	1066	9	0	0	920018	683	0	correct_rejection	NA	0
17	Triplet	95	743	1067	8	0	0	920735	683	0	correct_rejection	NA	0
17	Triplet	96	744	1068	7	0	0	921451	684	0	correct_rejection	NA	0
17	Triplet	97	745	1069	6	0	0	922168	683	0	correct_rejection	NA	0
17	Triplet	98	746	1070	5	0	0	922885	683	0	correct_rejection	NA	0
17	Triplet	99	747	1071	4	0	0	923601	684	0	correct_rejection	NA	0
17	Triplet	100	748	1072	9	0	0	924318	683	0	correct_rejection	NA	0
17	Triplet	101	749	1073	8	0	0	925035	683	0	correct_rejection	NA	0
17	Triplet	102	750	1074	0	1	1	925751	684	0	miss	NA	0
17	Triplet	103	751	1075	7	0	0	926468	683	1	false_alarm	30	0
17	Triplet	104	752	1076	4	0	0	927185	683	0	correct_rejection	NA	0
17	Triplet	105	753	1077	5	0	0	927901	684	0	correct_rejection	NA	0
17	Triplet	106	754	1078	6	0	0	928618	683	0	correct_rejection	NA	0
17	Triplet	107	755	1079	7	0	0	929335	683	0	correct_rejection	NA	0
17	Triplet	108	756	1080	8	0	0	930051	684	0	correct_rejection	NA	0
17	Triplet	109	757	1081	9	0	0	930768	683	0	correct_rejection	NA	0
17	Triplet	110	758	1082	0	1	2	931484	684	1	hit	514	0
17	Triplet	111	759	1083	9	0	0	932201	684	0	correct_rejection	NA	0
17	Triplet	112	760	1084	8	0	0	932918	683	0	correct_rejection	NA	0
17	Triplet	113	761	1085	7	0	0	933634	684	0	correct_rejection	NA	0
17	Triplet	114	762	1086	4	0	0	934351	683	0	correct_rejection	NA	0
17	Triplet	115	763	1087	5	0	0	935068	683	0	correct_rejection	NA	0
17	Triplet	116	764	1088	6	0	0	935784	684	0	correct_rejection	NA	0
17	Triplet	117	765	1089	0	1	2	936501	683	1	hit	495	0
17	Triplet	118	766	1090	4	0	0	937218	683	0	correct_rejection	NA	0
17	Triplet	119	767	1091	5	0	0	937934	684	0	correct_rejection	NA	0
17	Triplet	120	768	1092	6	0	0	938651	683	0	correct_rejection	NA	0
17	Triplet	121	769	1093	9	0	0	939368	683	0	correct_rejection	NA	0
17	Triplet	122	770	1094	8	0	0	940084	684	0	correct_rejection	NA	0
17	Triplet	123	771	1095	0	1	1	940801	683	1	hit	438	0
17	Triplet	124	772	1096	7	0	0	941518	683	0	correct_rejection	NA	0
17	Triplet	125	773	1097	7	0	0	942234	684	0	correct_rejection	NA	0
17	Triplet	126	774	1098	8	0	0	942951	683	0	correct_rejection	NA	0
17	Triplet	127	775	1099	9	0	0	943668	683	0	correct_rejection	NA	0
17	Triplet	128	776	1100	0	1	2	944384	684	0	miss	NA	0
17	Triplet	129	777	1101	6	0	0	945101	683	1	false_alarm	52	0
17	Triplet	130	778	1102	5	0	0	945818	683	0	correct_rejection	NA	0
17	Triplet	131	779	1103	4	0	0	946534	684	0	correct_rejection	NA	0
17	Triplet	132	780	1104	7	0	0	947251	683	0	correct_rejection	NA	0
17	Triplet	133	781	1105	8	0	0	947968	683	0	correct_rejection	NA	0
17	Triplet	134	782	1106	9	0	0	948684	684	0	correct_rejection	NA	0
17	Triplet	135	783	1107	7	0	0	949401	683	0	correct_rejection	NA	0
17	Triplet	136	784	1108	8	0	0	950118	683	0	correct_rejection	NA	0
17	Triplet	137	785	1109	9	0	0	950834	684	0	correct_rejection	NA	0
17	Triplet	138	786	1110	4	0	0	951551	683	0	correct_rejection	NA	0
17	Triplet	139	787	1111	0	1	1	952267	684	1	hit	460	0
17	Triplet	140	788	1112	5	0	0	952984	683	0	correct_rejection	NA	0
17	Triplet	141	789	1113	6	0	0	953701	683	0	correct_rejection	NA	0
17	Triplet	142	790	1114	0	1	2	954417	684	1	hit	658	0
17	Triplet	143	791	1115	6	0	0	955134	683	0	correct_rejection	NA	0
17	Triplet	144	792	1116	5	0	0	955851	683	0	correct_rejection	NA	0
17	Triplet	145	793	1117	4	0	0	956567	684	0	correct_rejection	NA	0
17	Triplet	146	794	1118	6	0	0	957284	683	0	correct_rejection	NA	0
17	Triplet	147	795	1119	5	0	0	958001	683	0	correct_rejection	NA	0
17	Triplet	148	796	1120	4	0	0	958717	684	0	correct_rejection	NA	0
17	Triplet	149	797	1121	0	1	2	959434	683	1	hit	488	0
17	Triplet	150	798	1122	9	0	0	960151	683	0	correct_rejection	NA	0
17	Triplet	151	799	1123	8	0	0	960867	684	0	correct_rejection	NA	0
17	Triplet	152	800	1124	7	0	0	961584	683	0	correct_rejection	NA	0
17	Triplet	153	801	1125	0	1	2	962301	683	0	miss	NA	0
17	Triplet	154	802	1126	9	0	0	963017	684	1	false_alarm	0	0
17	Triplet	155	803	1127	8	0	0	963734	683	0	correct_rejection	NA	0
17	Triplet	156	804	1128	7	0	0	964451	683	0	correct_rejection	NA	0
17	Triplet	157	805	1129	6	0	0	965167	684	0	correct_rejection	NA	0
17	Triplet	158	806	1130	5	0	0	965884	683	0	correct_rejection	NA	0
17	Triplet	159	807	1131	4	0	0	966601	683	0	correct_rejection	NA	0
17	Triplet	160	808	1132	4	0	0	967317	684	0	correct_rejection	NA	0
17	Triplet	161	809	1133	5	0	0	968034	683	0	correct_rejection	NA	0
17	Triplet	162	810	1134	6	0	0	968751	683	0	correct_rejection	NA	0
17	Nonet	1	649	1135	6	0	0	978467	683	0	correct_rejection	NA	7817
17	Nonet	2	650	1136	5	0	0	979184	683	0	correct_rejection	NA	0
17	Nonet	3	651	1137	4	0	0	979900	684	0	correct_rejection	NA	0
17	Nonet	4	652	1138	6	0	0	980617	683	0	correct_rejection	NA	0
17	Nonet	5	653	1139	5	0	0	981334	683	0	correct_rejection	NA	0
17	Nonet	6	654	1140	4	0	0	982050	684	0	correct_rejection	NA	0
17	Nonet	7	655	1141	6	0	0	982767	683	0	correct_rejection	NA	0
17	Nonet	8	656	1142	5	0	0	983484	683	0	correct_rejection	NA	0
17	Nonet	9	657	1143	4	0	0	984200	684	0	correct_rejection	NA	0
17	Nonet	10	658	1144	9	0	0	984917	683	0	correct_rejection	NA	0
17	Nonet	11	659	1145	8	0	0	985634	683	0	correct_rejection	NA	0
17	Nonet	12	660	1146	7	0	0	986350	684	0	correct_rejection	NA	0
17	Nonet	13	661	1147	9	0	0	987067	683	0	correct_rejection	NA	0
17	Nonet	14	662	1148	8	0	0	987784	683	0	correct_rejection	NA	0
17	Nonet	15	663	1149	7	0	0	988500	684	0	correct_rejection	NA	0
17	Nonet	16	664	1150	0	1	2	989217	683	1	hit	448	0
17	Nonet	17	665	1151	9	0	0	989934	683	0	correct_rejection	NA	0
17	Nonet	18	666	1152	8	0	0	990650	684	0	correct_rejection	NA	0
17	Nonet	19	667	1153	7	0	0	991367	683	0	correct_rejection	NA	0
17	Nonet	20	668	1154	0	1	3	992084	683	1	hit	514	0
17	Nonet	21	669	1155	4	0	0	992800	684	0	correct_rejection	NA	0
17	Nonet	22	670	1156	5	0	0	993517	683	0	correct_rejection	NA	0
17	Nonet	23	671	1157	0	1	1	994233	684	1	hit	536	0
17	Nonet	24	672	1158	6	0	0	994950	683	0	correct_rejection	NA	0
17	Nonet	25	673	1159	4	0	0	995667	683	0	correct_rejection	NA	0
17	Nonet	26	674	1160	5	0	0	996383	684	0	correct_rejection	NA	0
17	Nonet	27	675	1161	6	0	0	997100	683	0	correct_rejection	NA	0
17	Nonet	28	676	1162	4	0	0	997817	683	0	correct_rejection	NA	0
17	Nonet	29	677	1163	5	0	0	998533	684	0	correct_rejection	NA	0
17	Nonet	30	678	1164	0	1	1	999250	683	1	hit	507	0
17	Nonet	31	679	1165	6	0	0	999967	683	0	correct_rejection	NA	0
17	Nonet	32	680	1166	4	0	0	1000683	684	0	correct_rejection	NA	0
17	Nonet	33	681	1167	5	0	0	1001400	683	0	correct_rejection	NA	0
17	Nonet	34	682	1168	6	0	0	1002117	683	0	correct_rejection	NA	0
17	Nonet	35	683	1169	4	0	0	1002833	684	0	correct_rejection	NA	0
17	Nonet	36	684	1170	5	0	0	1003550	683	0	correct_rejection	NA	0
17	Nonet	37	685	1171	6	0	0	1004267	683	0	correct_rejection	NA	0
17	Nonet	38	686	1172	4	0	0	1004983	684	0	correct_rejection	NA	0
17	Nonet	39	687	1173	5	0	0	1005700	683	0	correct_rejection	NA	0
17	Nonet	40	688	1174	6	0	0	1006417	683	0	correct_rejection	NA	0
17	Nonet	41	689	1175	6	0	0	1007133	684	0	correct_rejection	NA	0
17	Nonet	42	690	1176	5	0	0	1007850	683	0	correct_rejection	NA	0
17	Nonet	43	691	1177	4	0	0	1008567	683	0	correct_rejection	NA	0
17	Nonet	44	692	1178	6	0	0	1009283	684	0	correct_rejection	NA	0
17	Nonet	45	693	1179	5	0	0	1010000	683	0	correct_rejection	NA	0
17	Nonet	46	694	1180	4	0	0	1010717	683	0	correct_rejection	NA	0
17	Nonet	47	695	1181	6	0	0	1011433	684	0	correct_rejection	NA	0
17	Nonet	48	696	1182	5	0	0	1012150	683	0	correct_rejection	NA	0
17	Nonet	49	697	1183	0	1	1	1012867	683	1	hit	614	0
17	Nonet	50	698	1184	4	0	0	1013583	684	0	correct_rejection	NA	0
17	Nonet	51	699	1185	6	0	0	1014300	683	0	correct_rejection	NA	0
17	Nonet	52	700	1186	5	0	0	1015016	684	0	correct_rejection	NA	0
17	Nonet	53	701	1187	4	0	0	1015733	683	0	correct_rejection	NA	0
17	Nonet	54	702	1188	6	0	0	1016450	683	0	correct_rejection	NA	0
17	Nonet	55	703	1189	0	1	1	1017166	684	1	hit	570	0
17	Nonet	56	704	1190	5	0	0	1017883	683	0	correct_rejection	NA	0
17	Nonet	57	705	1191	4	0	0	1018600	683	0	correct_rejection	NA	0
17	Nonet	58	706	1192	0	1	2	1019316	684	1	hit	445	0
17	Nonet	59	707	1193	6	0	0	1020033	683	0	correct_rejection	NA	0
17	Nonet	60	708	1194	5	0	0	1020750	683	0	correct_rejection	NA	0
17	Nonet	61	709	1195	4	0	0	1021466	684	0	correct_rejection	NA	0
17	Nonet	62	710	1196	4	0	0	1022183	683	0	correct_rejection	NA	0
17	Nonet	63	711	1197	5	0	0	1022900	683	0	correct_rejection	NA	0
17	Nonet	64	712	1198	6	0	0	1023616	684	0	correct_rejection	NA	0
17	Nonet	65	713	1199	4	0	0	1024333	683	0	correct_rejection	NA	0
17	Nonet	66	714	1200	5	0	0	1025050	683	0	correct_rejection	NA	0
17	Nonet	67	715	1201	6	0	0	1025766	684	0	correct_rejection	NA	0
17	Nonet	68	716	1202	4	0	0	1026483	683	0	correct_rejection	NA	0
17	Nonet	69	717	1203	5	0	0	1027200	683	0	correct_rejection	NA	0
17	Nonet	70	718	1204	6	0	0	1027916	684	0	correct_rejection	NA	0
17	Nonet	71	719	1205	7	0	0	1028633	683	0	correct_rejection	NA	0
17	Nonet	72	720	1206	8	0	0	1029350	683	0	correct_rejection	NA	0
17	Nonet	73	721	1207	9	0	0	1030066	684	0	correct_rejection	NA	0
17	Nonet	74	722	1208	0	1	2	1030783	683	1	hit	623	0
17	Nonet	75	723	1209	7	0	0	1031500	683	0	correct_rejection	NA	0
17	Nonet	76	724	1210	8	0	0	1032216	684	0	correct_rejection	NA	0
17	Nonet	77	725	1211	0	1	1	1032933	683	1	hit	585	0
17	Nonet	78	726	1212	9	0	0	1033650	683	0	correct_rejection	NA	0
17	Nonet	79	727	1213	7	0	0	1034366	684	0	correct_rejection	NA	0
17	Nonet	80	728	1214	8	0	0	1035083	683	0	correct_rejection	NA	0
17	Nonet	81	729	1215	9	0	0	1035799	684	0	correct_rejection	NA	0
17	Nonet	82	730	1216	6	0	0	1036516	683	0	correct_rejection	NA	0
17	Nonet	83	731	1217	5	0	0	1037233	683	0	correct_rejection	NA	0
17	Nonet	84	732	1218	4	0	0	1037949	684	0	correct_rejection	NA	0
17	Nonet	85	733	1219	6	0	0	1038666	683	0	correct_rejection	NA	0
17	Nonet	86	734	1220	5	0	0	1039383	683	0	correct_rejection	NA	0
17	Nonet	87	735	1221	4	0	0	1040099	684	0	correct_rejection	NA	0
17	Nonet	88	736	1222	0	1	2	1040816	683	1	hit	559	0
17	Nonet	89	737	1223	6	0	0	1041533	683	0	correct_rejection	NA	0
17	Nonet	90	738	1224	5	0	0	1042249	684	0	correct_rejection	NA	0
17	Nonet	91	739	1225	4	0	0	1042966	683	0	correct_rejection	NA	0
17	Nonet	92	740	1226	7	0	0	1043683	683	0	correct_rejection	NA	0
17	Nonet	93	741	1227	8	0	0	1044399	684	0	correct_rejection	NA	0
17	Nonet	94	742	1228	9	0	0	1045116	683	0	correct_rejection	NA	0
17	Nonet	95	743	1229	7	0	0	1045833	683	0	correct_rejection	NA	0
17	Nonet	96	744	1230	8	0	0	1046549	684	0	correct_rejection	NA	0
17	Nonet	97	745	1231	9	0	0	1047266	683	0	correct_rejection	NA	0
17	Nonet	98	746	1232	7	0	0	1047983	683	0	correct_rejection	NA	0
17	Nonet	99	747	1233	0	1	1	1048699	684	0	miss	NA	0
17	Nonet	100	748	1234	8	0	0	1049416	683	1	false_alarm	0	0
17	Nonet	101	749	1235	9	0	0	1050133	683	0	correct_rejection	NA	0
17	Nonet	102	750	1236	4	0	0	1050849	684	0	correct_rejection	NA	0
17	Nonet	103	751	1237	0	1	1	1051566	683	1	hit	434	0
17	Nonet	104	752	1238	5	0	0	1052283	683	0	correct_rejection	NA	0
17	Nonet	105	753	1239	6	0	0	1052999	684	0	correct_rejection	NA	0
17	Nonet	106	754	1240	0	1	2	1053716	683	1	hit	467	0
17	Nonet	107	755	1241	4	0	0	1054433	683	0	correct_rejection	NA	0
17	Nonet	108	756	1242	5	0	0	1055149	684	0	correct_rejection	NA	0
17	Nonet	109	757	1243	6	0	0	1055866	683	0	correct_rejection	NA	0
17	Nonet	110	758	1244	4	0	0	1056582	684	0	correct_rejection	NA	0
17	Nonet	111	759	1245	5	0	0	1057299	683	0	correct_rejection	NA	0
17	Nonet	112	760	1246	6	0	0	1058016	683	0	correct_rejection	NA	0
17	Nonet	113	761	1247	9	0	0	1058732	684	0	correct_rejection	NA	0
17	Nonet	114	762	1248	8	0	0	1059449	683	0	correct_rejection	NA	0
17	Nonet	115	763	1249	7	0	0	1060166	683	0	correct_rejection	NA	0
17	Nonet	116	764	1250	9	0	0	1060882	684	0	correct_rejection	NA	0
17	Nonet	117	765	1251	0	1	1	1061599	683	1	hit	521	0
17	Nonet	118	766	1252	8	0	0	1062316	683	0	correct_rejection	NA	0
17	Nonet	119	767	1253	7	0	0	1063032	684	0	correct_rejection	NA	0
17	Nonet	120	768	1254	9	0	0	1063749	683	0	correct_rejection	NA	0
17	Nonet	121	769	1255	8	0	0	1064466	683	0	correct_rejection	NA	0
17	Nonet	122	770	1256	0	1	1	1065182	684	1	hit	486	0
17	Nonet	123	771	1257	7	0	0	1065899	683	0	correct_rejection	NA	0
17	Nonet	124	772	1258	9	0	0	1066616	683	0	correct_rejection	NA	0
17	Nonet	125	773	1259	8	0	0	1067332	684	0	correct_rejection	NA	0
17	Nonet	126	774	1260	7	0	0	1068049	683	0	correct_rejection	NA	0
17	Nonet	127	775	1261	0	1	2	1068766	683	1	hit	417	0
17	Nonet	128	776	1262	9	0	0	1069482	684	0	correct_rejection	NA	0
17	Nonet	129	777	1263	8	0	0	1070199	683	0	correct_rejection	NA	0
17	Nonet	130	778	1264	0	1	1	1070916	683	1	hit	588	0
17	Nonet	131	779	1265	7	0	0	1071632	684	0	correct_rejection	NA	0
17	Nonet	132	780	1266	9	0	0	1072349	683	0	correct_rejection	NA	0
17	Nonet	133	781	1267	8	0	0	1073066	683	0	correct_rejection	NA	0
17	Nonet	134	782	1268	7	0	0	1073782	684	0	correct_rejection	NA	0
17	Nonet	135	783	1269	7	0	0	1074499	683	0	correct_rejection	NA	0
17	Nonet	136	784	1270	8	0	0	1075216	683	0	correct_rejection	NA	0
17	Nonet	137	785	1271	9	0	0	1075932	684	0	correct_rejection	NA	0
17	Nonet	138	786	1272	7	0	0	1076649	683	0	correct_rejection	NA	0
17	Nonet	139	787	1273	8	0	0	1077365	684	0	correct_rejection	NA	0
17	Nonet	140	788	1274	9	0	0	1078082	683	0	correct_rejection	NA	0
17	Nonet	141	789	1275	7	0	0	1078799	683	0	correct_rejection	NA	0
17	Nonet	142	790	1276	8	0	0	1079515	684	0	correct_rejection	NA	0
17	Nonet	143	791	1277	9	0	0	1080232	683	0	correct_rejection	NA	0
17	Nonet	144	792	1278	0	1	3	1080949	683	1	hit	583	0
17	Nonet	145	793	1279	7	0	0	1081665	684	0	correct_rejection	NA	0
17	Nonet	146	794	1280	8	0	0	1082382	683	0	correct_rejection	NA	0
17	Nonet	147	795	1281	9	0	0	1083099	683	0	correct_rejection	NA	0
17	Nonet	148	796	1282	7	0	0	1083815	684	0	correct_rejection	NA	0
17	Nonet	149	797	1283	8	0	0	1084532	683	0	correct_rejection	NA	0
17	Nonet	150	798	1284	9	0	0	1085249	683	0	correct_rejection	NA	0
17	Nonet	151	799	1285	7	0	0	1085965	684	0	correct_rejection	NA	0
17	Nonet	152	800	1286	8	0	0	1086682	683	0	correct_rejection	NA	0
17	Nonet	153	801	1287	9	0	0	1087399	683	0	correct_rejection	NA	0
17	Nonet	154	802	1288	9	0	0	1088115	684	0	correct_rejection	NA	0
17	Nonet	155	803	1289	8	0	0	1088832	683	0	correct_rejection	NA	0
17	Nonet	156	804	1290	7	0	0	1089549	683	0	correct_rejection	NA	0
17	Nonet	157	805	1291	9	0	0	1090265	684	0	correct_rejection	NA	0
17	Nonet	158	806	1292	8	0	0	1090982	683	0	correct_rejection	NA	0
17	Nonet	159	807	1293	7	0	0	1091699	683	0	correct_rejection	NA	0
17	Nonet	160	808	1294	9	0	0	1092415	684	0	correct_rejection	NA	0
17	Nonet	161	809	1295	8	0	0	1093132	683	0	correct_rejection	NA	0
17	Nonet	162	810	1296	7	0	0	1093849	683	0	correct_rejection	NA	0
17	Single	1	163	1297	8	0	0	1102648	684	0	correct_rejection	NA	7007
17	Single	2	164	1298	6	0	0	1103365	683	0	correct_rejection	NA	0
17	Single	3	165	1299	7	0	0	1104082	683	0	correct_rejection	NA	0
17	Single	4	166	1300	5	0	0	1104798	684	0	correct_rejection	NA	0
17	Single	5	167	1301	0	1	1	1105515	683	1	hit	507	0
17	Single	6	168	1302	5	0	0	1106232	683	0	correct_rejection	NA	0
17	Single	7	169	1303	7	0	0	1106948	684	0	correct_rejection	NA	0
17	Single	8	170	1304	6	0	0	1107665	683	0	correct_rejection	NA	0
17	Single	9	171	1305	0	1	1	1108382	683	1	hit	485	0
17	Single	10	172	1306	8	0	0	1109098	684	0	correct_rejection	NA	0
17	Single	11	173	1307	7	0	0	1109815	683	0	correct_rejection	NA	0
17	Single	12	174	1308	7	0	0	1110532	683	0	correct_rejection	NA	0
17	Single	13	175	1309	8	0	0	1111248	684	0	correct_rejection	NA	0
17	Single	14	176	1310	8	0	0	1111965	683	0	correct_rejection	NA	0
17	Single	15	177	1311	4	0	0	1112682	683	0	correct_rejection	NA	0
17	Single	16	178	1312	7	0	0	1113398	684	0	correct_rejection	NA	0
17	Single	17	179	1313	0	1	1	1114115	683	1	hit	393	0
17	Single	18	180	1314	9	0	0	1114832	683	0	correct_rejection	NA	0
17	Single	19	181	1315	6	0	0	1115548	684	0	correct_rejection	NA	0
17	Single	20	182	1316	5	0	0	1116265	683	0	correct_rejection	NA	0
17	Single	21	183	1317	9	0	0	1116982	683	0	correct_rejection	NA	0
17	Single	22	184	1318	7	0	0	1117698	684	0	correct_rejection	NA	0
17	Single	23	185	1319	4	0	0	1118415	683	0	correct_rejection	NA	0
17	Single	24	186	1320	4	0	0	1119131	684	0	correct_rejection	NA	0
17	Single	25	187	1321	0	1	1	1119848	683	1	hit	574	0
17	Single	26	188	1322	6	0	0	1120565	683	0	correct_rejection	NA	0
17	Single	27	189	1323	9	0	0	1121281	684	0	correct_rejection	NA	0
17	Single	28	190	1324	9	0	0	1121998	683	0	correct_rejection	NA	0
17	Single	29	191	1325	5	0	0	1122715	683	0	correct_rejection	NA	0
17	Single	30	192	1326	6	0	0	1123431	684	0	correct_rejection	NA	0
17	Single	31	193	1327	6	0	0	1124148	683	0	correct_rejection	NA	0
17	Single	32	194	1328	0	1	1	1124865	683	1	hit	567	0
17	Single	33	195	1329	4	0	0	1125581	684	0	correct_rejection	NA	0
17	Single	34	196	1330	8	0	0	1126298	683	0	correct_rejection	NA	0
17	Single	35	197	1331	5	0	0	1127015	683	0	correct_rejection	NA	0
17	Single	36	198	1332	4	0	0	1127731	684	0	correct_rejection	NA	0
17	Single	37	199	1333	9	0	0	1128448	683	0	correct_rejection	NA	0
17	Single	38	200	1334	4	0	0	1129165	683	0	correct_rejection	NA	0
17	Single	39	201	1335	5	0	0	1129881	684	0	correct_rejection	NA	0
17	Single	40	202	1336	8	0	0	1130598	683	0	correct_rejection	NA	0
17	Single	41	203	1337	9	0	0	1131315	683	0	correct_rejection	NA	0
17	Single	42	204	1338	9	0	0	1132031	684	0	correct_rejection	NA	0
17	Single	43	205	1339	7	0	0	1132748	683	0	correct_rejection	NA	0
17	Single	44	206	1340	6	0	0	1133465	683	0	correct_rejection	NA	0
17	Single	45	207	1341	9	0	0	1134181	684	0	correct_rejection	NA	0
17	Single	46	208	1342	6	0	0	1134898	683	0	correct_rejection	NA	0
17	Single	47	209	1343	8	0	0	1135615	683	0	correct_rejection	NA	0
17	Single	48	210	1344	0	1	1	1136331	684	1	hit	602	0
17	Single	49	211	1345	4	0	0	1137048	683	0	correct_rejection	NA	0
17	Single	50	212	1346	8	0	0	1137765	683	0	correct_rejection	NA	0
17	Single	51	213	1347	8	0	0	1138481	684	0	correct_rejection	NA	0
17	Single	52	214	1348	0	1	1	1139198	683	1	hit	643	0
17	Single	53	215	1349	5	0	0	1139914	684	0	correct_rejection	NA	0
17	Single	54	216	1350	7	0	0	1140631	683	0	correct_rejection	NA	0
17	Single	55	217	1351	7	0	0	1141348	683	0	correct_rejection	NA	0
17	Single	56	218	1352	5	0	0	1142064	684	0	correct_rejection	NA	0
17	Single	57	219	1353	6	0	0	1142781	683	0	correct_rejection	NA	0
17	Single	58	220	1354	4	0	0	1143498	683	0	correct_rejection	NA	0
17	Single	59	221	1355	7	0	0	1144214	684	0	correct_rejection	NA	0
17	Single	60	222	1356	0	1	1	1144931	683	1	hit	546	0
17	Single	61	223	1357	4	0	0	1145648	683	0	correct_rejection	NA	0
17	Single	62	224	1358	6	0	0	1146364	684	0	correct_rejection	NA	0
17	Single	63	225	1359	5	0	0	1147081	683	0	correct_rejection	NA	0
17	Single	64	226	1360	5	0	0	1147798	683	0	correct_rejection	NA	0
17	Single	65	227	1361	8	0	0	1148514	684	0	correct_rejection	NA	0
17	Single	66	228	1362	0	1	1	1149231	683	1	hit	598	0
17	Single	67	229	1363	7	0	0	1149948	683	0	correct_rejection	NA	0
17	Single	68	230	1364	8	0	0	1150664	684	0	correct_rejection	NA	0
17	Single	69	231	1365	9	0	0	1151381	683	0	correct_rejection	NA	0
17	Single	70	232	1366	0	1	1	1152098	683	1	hit	487	0
17	Single	71	233	1367	4	0	0	1152814	684	0	correct_rejection	NA	0
17	Single	72	234	1368	9	0	0	1153531	683	0	correct_rejection	NA	0
17	Single	73	235	1369	5	0	0	1154248	683	0	correct_rejection	NA	0
17	Single	74	236	1370	4	0	0	1154964	684	0	correct_rejection	NA	0
17	Single	75	237	1371	4	0	0	1155681	683	0	correct_rejection	NA	0
17	Single	76	238	1372	5	0	0	1156398	683	0	correct_rejection	NA	0
17	Single	77	239	1373	0	1	1	1157114	684	1	hit	564	0
17	Single	78	240	1374	9	0	0	1157831	683	0	correct_rejection	NA	0
17	Single	79	241	1375	9	0	0	1158547	684	0	correct_rejection	NA	0
17	Single	80	242	1376	8	0	0	1159264	684	0	correct_rejection	NA	0
17	Single	81	243	1377	6	0	0	1159981	683	0	correct_rejection	NA	0
17	Single	82	244	1378	6	0	0	1160697	684	0	correct_rejection	NA	0
17	Single	83	245	1379	7	0	0	1161414	683	0	correct_rejection	NA	0
17	Single	84	246	1380	7	0	0	1162131	683	0	correct_rejection	NA	0
17	Single	85	247	1381	5	0	0	1162847	684	0	correct_rejection	NA	0
17	Single	86	248	1382	7	0	0	1163564	683	0	correct_rejection	NA	0
17	Single	87	249	1383	9	0	0	1164281	683	0	correct_rejection	NA	0
17	Single	88	250	1384	9	0	0	1164997	684	0	correct_rejection	NA	0
17	Single	89	251	1385	7	0	0	1165714	683	0	correct_rejection	NA	0
17	Single	90	252	1386	7	0	0	1166431	683	0	correct_rejection	NA	0
17	Single	91	253	1387	4	0	0	1167147	684	0	correct_rejection	NA	0
17	Single	92	254	1388	8	0	0	1167864	683	0	correct_rejection	NA	0
17	Single	93	255	1389	7	0	0	1168581	683	0	correct_rejection	NA	0
17	Single	94	256	1390	6	0	0	1169297	684	0	correct_rejection	NA	0
17	Single	95	257	1391	5	0	0	1170014	683	0	correct_rejection	NA	0
17	Single	96	258	1392	6	0	0	1170731	683	0	correct_rejection	NA	0
17	Single	97	259	1393	7	0	0	1171447	684	0	correct_rejection	NA	0
17	Single	98	260	1394	8	0	0	1172164	683	0	correct_rejection	NA	0
17	Single	99	261	1395	5	0	0	1172881	683	0	correct_rejection	NA	0
17	Single	100	262	1396	9	0	0	1173597	684	0	correct_rejection	NA	0
17	Single	101	263	1397	4	0	0	1174314	683	0	correct_rejection	NA	0
17	Single	102	264	1398	4	0	0	1175031	683	0	correct_rejection	NA	0
17	Single	103	265	1399	9	0	0	1175747	684	0	correct_rejection	NA	0
17	Single	104	266	1400	0	1	1	1176464	683	1	hit	539	0
17	Single	105	267	1401	8	0	0	1177181	683	0	correct_rejection	NA	0
17	Single	106	268	1402	9	0	0	1177897	684	0	correct_rejection	NA	0
17	Single	107	269	1403	6	0	0	1178614	683	0	correct_rejection	NA	0
17	Single	108	270	1404	9	0	0	1179331	683	0	correct_rejection	NA	0
17	Single	109	271	1405	0	1	1	1180047	684	0	miss	NA	0
17	Single	110	272	1406	5	0	0	1180764	683	0	correct_rejection	NA	0
17	Single	111	273	1407	8	0	0	1181480	684	0	correct_rejection	NA	0
17	Single	112	274	1408	4	0	0	1182197	683	0	correct_rejection	NA	0
17	Single	113	275	1409	5	0	0	1182914	683	0	correct_rejection	NA	0
17	Single	114	276	1410	5	0	0	1183630	684	0	correct_rejection	NA	0
17	Single	115	277	1411	4	0	0	1184347	683	0	correct_rejection	NA	0
17	Single	116	278	1412	6	0	0	1185064	683	0	correct_rejection	NA	0
17	Single	117	279	1413	6	0	0	1185780	684	0	correct_rejection	NA	0
17	Single	118	280	1414	8	0	0	1186497	683	0	correct_rejection	NA	0
17	Single	119	281	1415	8	0	0	1187214	683	0	correct_rejection	NA	0
17	Single	120	282	1416	6	0	0	1187930	684	0	correct_rejection	NA	0
17	Single	121	283	1417	4	0	0	1188647	683	0	correct_rejection	NA	0
17	Single	122	284	1418	8	0	0	1189364	683	0	correct_rejection	NA	0
17	Single	123	285	1419	4	0	0	1190080	684	0	correct_rejection	NA	0
17	Single	124	286	1420	6	0	0	1190797	683	0	correct_rejection	NA	0
17	Single	125	287	1421	0	1	1	1191514	683	0	miss	NA	0
17	Single	126	288	1422	9	0	0	1192230	684	1	false_alarm	484	0
17	Single	127	289	1423	8	0	0	1192947	683	0	correct_rejection	NA	0
17	Single	128	290	1424	8	0	0	1193664	683	0	correct_rejection	NA	0
17	Single	129	291	1425	0	1	1	1194380	684	1	hit	483	0
17	Single	130	292	1426	9	0	0	1195097	683	0	correct_rejection	NA	0
17	Single	131	293	1427	5	0	0	1195814	683	0	correct_rejection	NA	0
17	Single	132	294	1428	9	0	0	1196530	684	0	correct_rejection	NA	0
17	Single	133	295	1429	7	0	0	1197247	683	0	correct_rejection	NA	0
17	Single	134	296	1430	5	0	0	1197964	683	0	correct_rejection	NA	0
17	Single	135	297	1431	8	0	0	1198680	684	0	correct_rejection	NA	0
17	Single	136	298	1432	5	0	0	1199397	683	0	correct_rejection	NA	0
17	Single	137	299	1433	5	0	0	1200114	683	0	correct_rejection	NA	0
17	Single	138	300	1434	6	0	0	1200830	684	0	correct_rejection	NA	0
17	Single	139	301	1435	8	0	0	1201547	683	0	correct_rejection	NA	0
17	Single	140	302	1436	0	1	1	1202263	684	1	hit	498	0
17	Single	141	303	1437	6	0	0	1202980	683	0	correct_rejection	NA	0
17	Single	142	304	1438	7	0	0	1203697	683	0	correct_rejection	NA	0
17	Single	143	305	1439	9	0	0	1204413	684	0	correct_rejection	NA	0
17	Single	144	306	1440	6	0	0	1205130	683	0	correct_rejection	NA	0
17	Single	145	307	1441	0	1	1	1205847	683	1	hit	450	0
17	Single	146	308	1442	5	0	0	1206563	684	0	correct_rejection	NA	0
17	Single	147	309	1443	4	0	0	1207280	683	0	correct_rejection	NA	0
17	Single	148	310	1444	0	1	1	1207997	683	1	hit	514	0
17	Single	149	311	1445	5	0	0	1208713	684	0	correct_rejection	NA	0
17	Single	150	312	1446	7	0	0	1209430	683	0	correct_rejection	NA	0
17	Single	151	313	1447	8	0	0	1210147	683	0	correct_rejection	NA	0
17	Single	152	314	1448	7	0	0	1210863	684	0	correct_rejection	NA	0
17	Single	153	315	1449	4	0	0	1211580	683	0	correct_rejection	NA	0
17	Single	154	316	1450	4	0	0	1212297	683	0	correct_rejection	NA	0
17	Single	155	317	1451	7	0	0	1213013	684	0	correct_rejection	NA	0
17	Single	156	318	1452	7	0	0	1213730	683	0	correct_rejection	NA	0
17	Single	157	319	1453	6	0	0	1214447	683	0	correct_rejection	NA	0
17	Single	158	320	1454	6	0	0	1215163	684	0	correct_rejection	NA	0
17	Single	159	321	1455	4	0	0	1215880	683	0	correct_rejection	NA	0
17	Single	160	322	1456	9	0	0	1216597	683	0	correct_rejection	NA	0
17	Single	161	323	1457	9	0	0	1217313	684	0	correct_rejection	NA	0
17	Single	162	324	1458	4	0	0	1218030	683	0	correct_rejection	NA	0
17	Nonet	1	1	1459	9	0	0	1227080	683	0	correct_rejection	NA	6436
17	Nonet	2	2	1460	8	0	0	1227796	684	0	correct_rejection	NA	0
17	Nonet	3	3	1461	7	0	0	1228513	683	0	correct_rejection	NA	0
17	Nonet	4	4	1462	9	0	0	1229230	683	0	correct_rejection	NA	0
17	Nonet	5	5	1463	8	0	0	1229946	684	0	correct_rejection	NA	0
17	Nonet	6	6	1464	7	0	0	1230663	683	0	correct_rejection	NA	0
17	Nonet	7	7	1465	9	0	0	1231380	683	0	correct_rejection	NA	0
17	Nonet	8	8	1466	8	0	0	1232096	684	0	correct_rejection	NA	0
17	Nonet	9	9	1467	7	0	0	1232813	683	0	correct_rejection	NA	0
17	Nonet	10	10	1468	6	0	0	1233530	683	0	correct_rejection	NA	0
17	Nonet	11	11	1469	5	0	0	1234246	684	0	correct_rejection	NA	0
17	Nonet	12	12	1470	4	0	0	1234963	683	0	correct_rejection	NA	0
17	Nonet	13	13	1471	6	0	0	1235680	683	0	correct_rejection	NA	0
17	Nonet	14	14	1472	5	0	0	1236396	684	0	correct_rejection	NA	0
17	Nonet	15	15	1473	4	0	0	1237113	683	0	correct_rejection	NA	0
17	Nonet	16	16	1474	6	0	0	1237830	683	0	correct_rejection	NA	0
17	Nonet	17	17	1475	0	1	1	1238546	684	1	hit	682	0
17	Nonet	18	18	1476	5	0	0	1239263	683	0	correct_rejection	NA	0
17	Nonet	19	19	1477	4	0	0	1239980	683	0	correct_rejection	NA	0
17	Nonet	20	20	1478	6	0	0	1240696	684	0	correct_rejection	NA	0
17	Nonet	21	21	1479	5	0	0	1241413	683	0	correct_rejection	NA	0
17	Nonet	22	22	1480	0	1	1	1242129	684	1	hit	518	0
17	Nonet	23	23	1481	4	0	0	1242846	684	0	correct_rejection	NA	0
17	Nonet	24	24	1482	6	0	0	1243563	683	0	correct_rejection	NA	0
17	Nonet	25	25	1483	5	0	0	1244279	684	0	correct_rejection	NA	0
17	Nonet	26	26	1484	4	0	0	1244996	683	0	correct_rejection	NA	0
17	Nonet	27	27	1485	6	0	0	1245713	683	0	correct_rejection	NA	0
17	Nonet	28	28	1486	5	0	0	1246429	684	0	correct_rejection	NA	0
17	Nonet	29	29	1487	4	0	0	1247146	683	0	correct_rejection	NA	0
17	Nonet	30	30	1488	9	0	0	1247863	683	0	correct_rejection	NA	0
17	Nonet	31	31	1489	8	0	0	1248579	684	0	correct_rejection	NA	0
17	Nonet	32	32	1490	0	1	1	1249296	683	1	hit	496	0
17	Nonet	33	33	1491	7	0	0	1250013	683	0	correct_rejection	NA	0
17	Nonet	34	34	1492	9	0	0	1250729	684	0	correct_rejection	NA	0
17	Nonet	35	35	1493	8	0	0	1251446	683	0	correct_rejection	NA	0
17	Nonet	36	36	1494	7	0	0	1252163	683	0	correct_rejection	NA	0
17	Nonet	37	37	1495	9	0	0	1252879	684	0	correct_rejection	NA	0
17	Nonet	38	38	1496	8	0	0	1253596	683	0	correct_rejection	NA	0
17	Nonet	39	39	1497	7	0	0	1254313	683	0	correct_rejection	NA	0
17	Nonet	40	40	1498	4	0	0	1255029	684	0	correct_rejection	NA	0
17	Nonet	41	41	1499	5	0	0	1255746	683	0	correct_rejection	NA	0
17	Nonet	42	42	1500	6	0	0	1256463	683	0	correct_rejection	NA	0
17	Nonet	43	43	1501	0	1	2	1257179	684	1	hit	554	0
17	Nonet	44	44	1502	4	0	0	1257896	683	0	correct_rejection	NA	0
17	Nonet	45	45	1503	5	0	0	1258613	683	0	correct_rejection	NA	0
17	Nonet	46	46	1504	6	0	0	1259329	684	0	correct_rejection	NA	0
17	Nonet	47	47	1505	0	1	2	1260046	683	1	hit	539	0
17	Nonet	48	48	1506	4	0	0	1260763	683	0	correct_rejection	NA	0
17	Nonet	49	49	1507	5	0	0	1261479	684	0	correct_rejection	NA	0
17	Nonet	50	50	1508	6	0	0	1262196	683	0	correct_rejection	NA	0
17	Nonet	51	51	1509	4	0	0	1262913	683	0	correct_rejection	NA	0
17	Nonet	52	52	1510	5	0	0	1263629	683	0	correct_rejection	NA	0
17	Nonet	53	53	1511	0	1	1	1264346	683	1	hit	558	0
17	Nonet	54	54	1512	6	0	0	1265062	684	0	correct_rejection	NA	0
17	Nonet	55	55	1513	4	0	0	1265779	683	0	correct_rejection	NA	0
17	Nonet	56	56	1514	5	0	0	1266496	683	0	correct_rejection	NA	0
17	Nonet	57	57	1515	6	0	0	1267212	684	0	correct_rejection	NA	0
17	Nonet	58	58	1516	4	0	0	1267929	683	0	correct_rejection	NA	0
17	Nonet	59	59	1517	5	0	0	1268646	683	0	correct_rejection	NA	0
17	Nonet	60	60	1518	6	0	0	1269362	684	0	correct_rejection	NA	0
17	Nonet	61	61	1519	7	0	0	1270079	683	0	correct_rejection	NA	0
17	Nonet	62	62	1520	8	0	0	1270796	683	0	correct_rejection	NA	0
17	Nonet	63	63	1521	9	0	0	1271512	684	0	correct_rejection	NA	0
17	Nonet	64	64	1522	7	0	0	1272229	683	0	correct_rejection	NA	0
17	Nonet	65	65	1523	8	0	0	1272946	683	0	correct_rejection	NA	0
17	Nonet	66	66	1524	0	1	1	1273662	684	1	hit	538	0
17	Nonet	67	67	1525	9	0	0	1274379	683	0	correct_rejection	NA	0
17	Nonet	68	68	1526	7	0	0	1275096	683	0	correct_rejection	NA	0
17	Nonet	69	69	1527	8	0	0	1275812	684	0	correct_rejection	NA	0
17	Nonet	70	70	1528	9	0	0	1276529	683	0	correct_rejection	NA	0
17	Nonet	71	71	1529	4	0	0	1277246	683	0	correct_rejection	NA	0
17	Nonet	72	72	1530	5	0	0	1277962	684	0	correct_rejection	NA	0
17	Nonet	73	73	1531	6	0	0	1278679	683	0	correct_rejection	NA	0
17	Nonet	74	74	1532	4	0	0	1279396	683	0	correct_rejection	NA	0
17	Nonet	75	75	1533	5	0	0	1280112	684	0	correct_rejection	NA	0
17	Nonet	76	76	1534	6	0	0	1280829	683	0	correct_rejection	NA	0
17	Nonet	77	77	1535	4	0	0	1281546	683	0	correct_rejection	NA	0
17	Nonet	78	78	1536	5	0	0	1282262	684	0	correct_rejection	NA	0
17	Nonet	79	79	1537	6	0	0	1282979	683	0	correct_rejection	NA	0
17	Nonet	80	80	1538	9	0	0	1283695	684	0	correct_rejection	NA	0
17	Nonet	81	81	1539	8	0	0	1284412	684	0	correct_rejection	NA	0
17	Nonet	82	82	1540	0	1	1	1285129	683	1	hit	605	0
17	Nonet	83	83	1541	7	0	0	1285845	684	0	correct_rejection	NA	0
17	Nonet	84	84	1542	9	0	0	1286562	683	0	correct_rejection	NA	0
17	Nonet	85	85	1543	8	0	0	1287279	683	0	correct_rejection	NA	0
17	Nonet	86	86	1544	0	1	1	1287995	684	0	miss	NA	0
17	Nonet	87	87	1545	7	0	0	1288712	683	1	false_alarm	58	0
17	Nonet	88	88	1546	9	0	0	1289429	683	0	correct_rejection	NA	0
17	Nonet	89	89	1547	8	0	0	1290145	684	0	correct_rejection	NA	0
17	Nonet	90	90	1548	7	0	0	1290862	683	0	correct_rejection	NA	0
17	Nonet	91	91	1549	0	1	3	1291579	683	1	hit	427	0
17	Nonet	92	92	1550	9	0	0	1292295	684	0	correct_rejection	NA	0
17	Nonet	93	93	1551	8	0	0	1293012	683	0	correct_rejection	NA	0
17	Nonet	94	94	1552	7	0	0	1293729	683	0	correct_rejection	NA	0
17	Nonet	95	95	1553	9	0	0	1294445	684	0	correct_rejection	NA	0
17	Nonet	96	96	1554	8	0	0	1295162	683	0	correct_rejection	NA	0
17	Nonet	97	97	1555	7	0	0	1295879	683	0	correct_rejection	NA	0
17	Nonet	98	98	1556	9	0	0	1296595	684	0	correct_rejection	NA	0
17	Nonet	99	99	1557	8	0	0	1297312	683	0	correct_rejection	NA	0
17	Nonet	100	100	1558	7	0	0	1298029	683	0	correct_rejection	NA	0
17	Nonet	101	101	1559	7	0	0	1298745	684	0	correct_rejection	NA	0
17	Nonet	102	102	1560	0	1	1	1299462	683	1	hit	497	0
17	Nonet	103	103	1561	8	0	0	1300179	683	0	correct_rejection	NA	0
17	Nonet	104	104	1562	9	0	0	1300895	684	0	correct_rejection	NA	0
17	Nonet	105	105	1563	7	0	0	1301612	683	0	correct_rejection	NA	0
17	Nonet	106	106	1564	8	0	0	1302329	683	0	correct_rejection	NA	0
17	Nonet	107	107	1565	9	0	0	1303045	684	0	correct_rejection	NA	0
17	Nonet	108	108	1566	7	0	0	1303762	683	0	correct_rejection	NA	0
17	Nonet	109	109	1567	8	0	0	1304478	684	0	correct_rejection	NA	0
17	Nonet	110	110	1568	9	0	0	1305195	683	0	correct_rejection	NA	0
17	Nonet	111	111	1569	6	0	0	1305912	683	0	correct_rejection	NA	0
17	Nonet	112	112	1570	5	0	0	1306628	684	0	correct_rejection	NA	0
17	Nonet	113	113	1571	0	1	1	1307345	683	1	hit	641	0
17	Nonet	114	114	1572	4	0	0	1308062	683	0	correct_rejection	NA	0
17	Nonet	115	115	1573	6	0	0	1308778	684	0	correct_rejection	NA	0
17	Nonet	116	116	1574	5	0	0	1309495	683	0	correct_rejection	NA	0
17	Nonet	117	117	1575	4	0	0	1310212	683	0	correct_rejection	NA	0
17	Nonet	118	118	1576	0	1	2	1310928	684	1	hit	635	0
17	Nonet	119	119	1577	6	0	0	1311645	683	0	correct_rejection	NA	0
17	Nonet	120	120	1578	5	0	0	1312362	683	0	correct_rejection	NA	0
17	Nonet	121	121	1579	4	0	0	1313078	684	0	correct_rejection	NA	0
17	Nonet	122	122	1580	4	0	0	1313795	683	0	correct_rejection	NA	0
17	Nonet	123	123	1581	5	0	0	1314512	683	0	correct_rejection	NA	0
17	Nonet	124	124	1582	6	0	0	1315228	684	0	correct_rejection	NA	0
17	Nonet	125	125	1583	4	0	0	1315945	683	0	correct_rejection	NA	0
17	Nonet	126	126	1584	5	0	0	1316662	683	0	correct_rejection	NA	0
17	Nonet	127	127	1585	0	1	1	1317378	684	1	hit	666	0
17	Nonet	128	128	1586	6	0	0	1318095	683	0	correct_rejection	NA	0
17	Nonet	129	129	1587	4	0	0	1318812	683	0	correct_rejection	NA	0
17	Nonet	130	130	1588	0	1	1	1319528	684	0	miss	NA	0
17	Nonet	131	131	1589	5	0	0	1320245	683	1	false_alarm	91	0
17	Nonet	132	132	1590	6	0	0	1320962	683	0	correct_rejection	NA	0
17	Nonet	133	133	1591	6	0	0	1321678	684	0	correct_rejection	NA	0
17	Nonet	134	134	1592	5	0	0	1322395	683	0	correct_rejection	NA	0
17	Nonet	135	135	1593	4	0	0	1323112	683	0	correct_rejection	NA	0
17	Nonet	136	136	1594	6	0	0	1323828	684	0	correct_rejection	NA	0
17	Nonet	137	137	1595	5	0	0	1324545	683	0	correct_rejection	NA	0
17	Nonet	138	138	1596	4	0	0	1325261	684	0	correct_rejection	NA	0
17	Nonet	139	139	1597	6	0	0	1325978	684	0	correct_rejection	NA	0
17	Nonet	140	140	1598	5	0	0	1326695	683	0	correct_rejection	NA	0
17	Nonet	141	141	1599	4	0	0	1327411	684	0	correct_rejection	NA	0
17	Nonet	142	142	1600	7	0	0	1328128	683	0	correct_rejection	NA	0
