ID	block	trial_block	trial_cat	trial_total	number	violation	level_violation	onset	duration	Response	Hit_Miss	RT	pre_trial_fixcross_ISI
first_trigger_at: 11173
trigger nr 3 at 13173
18	Triplet	1	649	1	4	0	0	20931	692	0	correct_rejection	NA	7719
18	Triplet	2	650	2	5	0	0	21640	692	0	correct_rejection	NA	0
18	Triplet	3	651	3	6	0	0	22349	691	0	correct_rejection	NA	0
18	Triplet	4	652	4	6	0	0	23057	692	0	correct_rejection	NA	0
18	Triplet	5	653	5	5	0	0	23766	691	0	correct_rejection	NA	0
18	Triplet	6	654	6	4	0	0	24474	692	0	correct_rejection	NA	0
18	Triplet	7	655	7	4	0	0	25183	692	0	correct_rejection	NA	0
18	Triplet	8	656	8	5	0	0	25891	692	0	correct_rejection	NA	0
18	Triplet	9	657	9	6	0	0	26600	692	0	correct_rejection	NA	0
18	Triplet	10	658	10	9	0	0	27309	691	0	correct_rejection	NA	0
18	Triplet	11	659	11	0	1	1	28017	692	1	hit	357	0
18	Triplet	12	660	12	8	0	0	28726	691	0	correct_rejection	NA	0
18	Triplet	13	661	13	7	0	0	29434	692	0	correct_rejection	NA	0
18	Triplet	14	662	14	6	0	0	30143	691	0	correct_rejection	NA	0
18	Triplet	15	663	15	0	1	1	30851	692	1	hit	482	0
18	Triplet	16	664	16	5	0	0	31560	692	0	correct_rejection	NA	0
18	Triplet	17	665	17	4	0	0	32268	692	0	correct_rejection	NA	0
18	Triplet	18	666	18	6	0	0	32977	692	0	correct_rejection	NA	0
18	Triplet	19	667	19	5	0	0	33686	691	0	correct_rejection	NA	0
18	Triplet	20	668	20	4	0	0	34394	692	0	correct_rejection	NA	0
18	Triplet	21	669	21	7	0	0	35103	691	0	correct_rejection	NA	0
18	Triplet	22	670	22	8	0	0	35811	692	0	correct_rejection	NA	0
18	Triplet	23	671	23	9	0	0	36520	692	0	correct_rejection	NA	0
18	Triplet	24	672	24	6	0	0	37228	692	0	correct_rejection	NA	0
18	Triplet	25	673	25	0	1	1	37937	692	1	hit	349	0
18	Triplet	26	674	26	5	0	0	38646	691	0	correct_rejection	NA	0
18	Triplet	27	675	27	4	0	0	39354	692	0	correct_rejection	NA	0
18	Triplet	28	676	28	9	0	0	40063	691	0	correct_rejection	NA	0
18	Triplet	29	677	29	8	0	0	40771	692	0	correct_rejection	NA	0
18	Triplet	30	678	30	7	0	0	41480	692	0	correct_rejection	NA	0
18	Triplet	31	679	31	7	0	0	42188	692	0	correct_rejection	NA	0
18	Triplet	32	680	32	8	0	0	42897	692	0	correct_rejection	NA	0
18	Triplet	33	681	33	9	0	0	43606	691	0	correct_rejection	NA	0
18	Triplet	34	682	34	4	0	0	44314	692	0	correct_rejection	NA	0
18	Triplet	35	683	35	5	0	0	45023	691	0	correct_rejection	NA	0
18	Triplet	36	684	36	6	0	0	45731	692	0	correct_rejection	NA	0
18	Triplet	37	685	37	4	0	0	46440	692	0	correct_rejection	NA	0
18	Triplet	38	686	38	5	0	0	47148	692	0	correct_rejection	NA	0
18	Triplet	39	687	39	0	1	1	47857	692	1	hit	430	0
18	Triplet	40	688	40	6	0	0	48566	691	0	correct_rejection	NA	0
18	Triplet	41	689	41	7	0	0	49274	692	0	correct_rejection	NA	0
18	Triplet	42	690	42	8	0	0	49983	691	0	correct_rejection	NA	0
18	Triplet	43	691	43	9	0	0	50691	692	0	correct_rejection	NA	0
18	Triplet	44	692	44	7	0	0	51400	692	0	correct_rejection	NA	0
18	Triplet	45	693	45	8	0	0	52108	692	0	correct_rejection	NA	0
18	Triplet	46	694	46	9	0	0	52817	692	0	correct_rejection	NA	0
18	Triplet	47	695	47	9	0	0	53526	691	0	correct_rejection	NA	0
18	Triplet	48	696	48	8	0	0	54234	692	0	correct_rejection	NA	0
18	Triplet	49	697	49	0	1	1	54943	691	1	hit	458	0
18	Triplet	50	698	50	7	0	0	55651	692	0	correct_rejection	NA	0
18	Triplet	51	699	51	9	0	0	56360	692	0	correct_rejection	NA	0
18	Triplet	52	700	52	8	0	0	57068	692	0	correct_rejection	NA	0
18	Triplet	53	701	53	7	0	0	57777	692	0	correct_rejection	NA	0
18	Triplet	54	702	54	7	0	0	58486	691	0	correct_rejection	NA	0
18	Triplet	55	703	55	0	1	1	59194	692	1	hit	619	0
18	Triplet	56	704	56	8	0	0	59903	691	0	correct_rejection	NA	0
18	Triplet	57	705	57	9	0	0	60611	692	0	correct_rejection	NA	0
18	Triplet	58	706	58	7	0	0	61320	691	0	correct_rejection	NA	0
18	Triplet	59	707	59	8	0	0	62028	692	0	correct_rejection	NA	0
18	Triplet	60	708	60	0	1	1	62737	692	1	hit	391	0
18	Triplet	61	709	61	9	0	0	63445	692	0	correct_rejection	NA	0
18	Triplet	62	710	62	6	0	0	64154	692	0	correct_rejection	NA	0
18	Triplet	63	711	63	5	0	0	64863	691	0	correct_rejection	NA	0
18	Triplet	64	712	64	4	0	0	65571	692	0	correct_rejection	NA	0
18	Triplet	65	713	65	6	0	0	66280	691	0	correct_rejection	NA	0
18	Triplet	66	714	66	5	0	0	66988	692	0	correct_rejection	NA	0
18	Triplet	67	715	67	4	0	0	67697	692	0	correct_rejection	NA	0
18	Triplet	68	716	68	0	1	2	68405	692	1	hit	350	0
18	Triplet	69	717	69	4	0	0	69114	692	0	correct_rejection	NA	0
18	Triplet	70	718	70	5	0	0	69823	691	0	correct_rejection	NA	0
18	Triplet	71	719	71	6	0	0	70531	692	0	correct_rejection	NA	0
18	Triplet	72	720	72	4	0	0	71240	691	0	correct_rejection	NA	0
18	Triplet	73	721	73	5	0	0	71948	692	0	correct_rejection	NA	0
18	Triplet	74	722	74	6	0	0	72657	692	0	correct_rejection	NA	0
18	Triplet	75	723	75	6	0	0	73365	692	0	correct_rejection	NA	0
18	Triplet	76	724	76	5	0	0	74074	692	0	correct_rejection	NA	0
18	Triplet	77	725	77	0	1	1	74783	691	1	hit	372	0
18	Triplet	78	726	78	4	0	0	75491	692	0	correct_rejection	NA	0
18	Triplet	79	727	79	7	0	0	76200	691	0	correct_rejection	NA	0
18	Triplet	80	728	80	8	0	0	76908	692	0	correct_rejection	NA	0
18	Triplet	81	729	81	9	0	0	77617	692	0	correct_rejection	NA	0
18	Triplet	82	730	82	4	0	0	78325	692	0	correct_rejection	NA	0
18	Triplet	83	731	83	5	0	0	79034	692	0	correct_rejection	NA	0
18	Triplet	84	732	84	6	0	0	79743	691	0	correct_rejection	NA	0
18	Triplet	85	733	85	9	0	0	80451	692	0	correct_rejection	NA	0
18	Triplet	86	734	86	8	0	0	81160	691	0	correct_rejection	NA	0
18	Triplet	87	735	87	7	0	0	81868	692	0	correct_rejection	NA	0
18	Triplet	88	736	88	9	0	0	82577	692	0	correct_rejection	NA	0
18	Triplet	89	737	89	8	0	0	83285	692	0	correct_rejection	NA	0
18	Triplet	90	738	90	7	0	0	83994	692	0	correct_rejection	NA	0
18	Triplet	91	739	91	7	0	0	84703	691	0	correct_rejection	NA	0
18	Triplet	92	740	92	8	0	0	85411	692	0	correct_rejection	NA	0
18	Triplet	93	741	93	9	0	0	86120	691	0	correct_rejection	NA	0
18	Triplet	94	742	94	9	0	0	86828	692	0	correct_rejection	NA	0
18	Triplet	95	743	95	8	0	0	87537	691	0	correct_rejection	NA	0
18	Triplet	96	744	96	7	0	0	88245	692	0	correct_rejection	NA	0
18	Triplet	97	745	97	6	0	0	88954	692	0	correct_rejection	NA	0
18	Triplet	98	746	98	5	0	0	89663	691	0	correct_rejection	NA	0
18	Triplet	99	747	99	4	0	0	90371	692	0	correct_rejection	NA	0
18	Triplet	100	748	100	9	0	0	91080	691	0	correct_rejection	NA	0
18	Triplet	101	749	101	8	0	0	91788	692	0	correct_rejection	NA	0
18	Triplet	102	750	102	0	1	1	92497	691	1	hit	371	0
18	Triplet	103	751	103	7	0	0	93205	692	0	correct_rejection	NA	0
18	Triplet	104	752	104	4	0	0	93914	692	0	correct_rejection	NA	0
18	Triplet	105	753	105	5	0	0	94622	692	0	correct_rejection	NA	0
18	Triplet	106	754	106	6	0	0	95331	692	0	correct_rejection	NA	0
18	Triplet	107	755	107	7	0	0	96040	691	0	correct_rejection	NA	0
18	Triplet	108	756	108	8	0	0	96748	692	0	correct_rejection	NA	0
18	Triplet	109	757	109	9	0	0	97457	691	0	correct_rejection	NA	0
18	Triplet	110	758	110	0	1	2	98165	692	1	hit	318	0
18	Triplet	111	759	111	9	0	0	98874	692	0	correct_rejection	NA	0
18	Triplet	112	760	112	8	0	0	99582	692	0	correct_rejection	NA	0
18	Triplet	113	761	113	7	0	0	100291	692	0	correct_rejection	NA	0
18	Triplet	114	762	114	4	0	0	101000	691	0	correct_rejection	NA	0
18	Triplet	115	763	115	5	0	0	101708	692	0	correct_rejection	NA	0
18	Triplet	116	764	116	6	0	0	102417	691	0	correct_rejection	NA	0
18	Triplet	117	765	117	0	1	2	103125	692	1	hit	549	0
18	Triplet	118	766	118	4	0	0	103834	692	0	correct_rejection	NA	0
18	Triplet	119	767	119	5	0	0	104542	692	0	correct_rejection	NA	0
18	Triplet	120	768	120	6	0	0	105251	692	0	correct_rejection	NA	0
18	Triplet	121	769	121	9	0	0	105960	691	0	correct_rejection	NA	0
18	Triplet	122	770	122	8	0	0	106668	692	0	correct_rejection	NA	0
18	Triplet	123	771	123	0	1	1	107377	691	1	hit	439	0
18	Triplet	124	772	124	7	0	0	108085	692	0	correct_rejection	NA	0
18	Triplet	125	773	125	7	0	0	108794	692	0	correct_rejection	NA	0
18	Triplet	126	774	126	8	0	0	109502	692	0	correct_rejection	NA	0
18	Triplet	127	775	127	9	0	0	110211	692	0	correct_rejection	NA	0
18	Triplet	128	776	128	0	1	2	110920	691	1	hit	377	0
18	Triplet	129	777	129	6	0	0	111628	692	0	correct_rejection	NA	0
18	Triplet	130	778	130	5	0	0	112337	691	0	correct_rejection	NA	0
18	Triplet	131	779	131	4	0	0	113045	692	0	correct_rejection	NA	0
18	Triplet	132	780	132	7	0	0	113754	692	0	correct_rejection	NA	0
18	Triplet	133	781	133	8	0	0	114462	692	0	correct_rejection	NA	0
18	Triplet	134	782	134	9	0	0	115171	692	0	correct_rejection	NA	0
18	Triplet	135	783	135	7	0	0	115880	691	0	correct_rejection	NA	0
18	Triplet	136	784	136	8	0	0	116588	692	0	correct_rejection	NA	0
18	Triplet	137	785	137	9	0	0	117297	691	0	correct_rejection	NA	0
18	Triplet	138	786	138	4	0	0	118005	692	0	correct_rejection	NA	0
18	Triplet	139	787	139	0	1	1	118714	691	1	hit	393	0
18	Triplet	140	788	140	5	0	0	119422	692	0	correct_rejection	NA	0
18	Triplet	141	789	141	6	0	0	120131	692	0	correct_rejection	NA	0
18	Triplet	142	790	142	0	1	2	120840	691	1	hit	461	0
18	Triplet	143	791	143	6	0	0	121548	692	0	correct_rejection	NA	0
18	Triplet	144	792	144	5	0	0	122257	691	0	correct_rejection	NA	0
18	Triplet	145	793	145	4	0	0	122965	692	0	correct_rejection	NA	0
18	Triplet	146	794	146	6	0	0	123674	691	0	correct_rejection	NA	0
18	Triplet	147	795	147	5	0	0	124382	692	0	correct_rejection	NA	0
18	Triplet	148	796	148	4	0	0	125091	692	0	correct_rejection	NA	0
18	Triplet	149	797	149	0	1	2	125799	692	1	hit	489	0
18	Triplet	150	798	150	9	0	0	126508	692	0	correct_rejection	NA	0
18	Triplet	151	799	151	8	0	0	127217	691	0	correct_rejection	NA	0
18	Triplet	152	800	152	7	0	0	127925	692	0	correct_rejection	NA	0
18	Triplet	153	801	153	0	1	2	128634	691	1	hit	487	0
18	Triplet	154	802	154	9	0	0	129342	692	0	correct_rejection	NA	0
18	Triplet	155	803	155	8	0	0	130051	692	0	correct_rejection	NA	0
18	Triplet	156	804	156	7	0	0	130759	692	0	correct_rejection	NA	0
18	Triplet	157	805	157	6	0	0	131468	692	0	correct_rejection	NA	0
18	Triplet	158	806	158	5	0	0	132177	691	0	correct_rejection	NA	0
18	Triplet	159	807	159	4	0	0	132885	692	0	correct_rejection	NA	0
18	Triplet	160	808	160	4	0	0	133594	691	0	correct_rejection	NA	0
18	Triplet	161	809	161	5	0	0	134302	692	0	correct_rejection	NA	0
18	Triplet	162	810	162	6	0	0	135011	692	0	correct_rejection	NA	0
18	Nonet	1	163	163	4	0	0	144872	692	0	correct_rejection	NA	7659
18	Nonet	2	164	164	5	0	0	145581	692	0	correct_rejection	NA	0
18	Nonet	3	165	165	6	0	0	146290	691	0	correct_rejection	NA	0
18	Nonet	4	166	166	4	0	0	146998	692	0	correct_rejection	NA	0
18	Nonet	5	167	167	5	0	0	147707	691	0	correct_rejection	NA	0
18	Nonet	6	168	168	6	0	0	148415	692	0	correct_rejection	NA	0
18	Nonet	7	169	169	4	0	0	149124	692	0	correct_rejection	NA	0
18	Nonet	8	170	170	5	0	0	149832	692	0	correct_rejection	NA	0
18	Nonet	9	171	171	0	1	1	150541	692	1	hit	404	0
18	Nonet	10	172	172	6	0	0	151250	691	0	correct_rejection	NA	0
18	Nonet	11	173	173	4	0	0	151958	692	0	correct_rejection	NA	0
18	Nonet	12	174	174	5	0	0	152667	691	0	correct_rejection	NA	0
18	Nonet	13	175	175	6	0	0	153375	692	0	correct_rejection	NA	0
18	Nonet	14	176	176	4	0	0	154084	692	0	correct_rejection	NA	0
18	Nonet	15	177	177	5	0	0	154792	692	0	correct_rejection	NA	0
18	Nonet	16	178	178	6	0	0	155501	692	0	correct_rejection	NA	0
18	Nonet	17	179	179	4	0	0	156210	691	0	correct_rejection	NA	0
18	Nonet	18	180	180	5	0	0	156918	692	0	correct_rejection	NA	0
18	Nonet	19	181	181	6	0	0	157627	691	0	correct_rejection	NA	0
18	Nonet	20	182	182	7	0	0	158335	692	0	correct_rejection	NA	0
18	Nonet	21	183	183	8	0	0	159044	692	0	correct_rejection	NA	0
18	Nonet	22	184	184	9	0	0	159752	692	0	correct_rejection	NA	0
18	Nonet	23	185	185	7	0	0	160461	692	0	correct_rejection	NA	0
18	Nonet	24	186	186	8	0	0	161170	691	0	correct_rejection	NA	0
18	Nonet	25	187	187	9	0	0	161878	692	0	correct_rejection	NA	0
18	Nonet	26	188	188	7	0	0	162587	691	0	correct_rejection	NA	0
18	Nonet	27	189	189	0	1	1	163295	692	1	hit	491	0
18	Nonet	28	190	190	8	0	0	164004	691	0	correct_rejection	NA	0
18	Nonet	29	191	191	9	0	0	164712	692	0	correct_rejection	NA	0
18	Nonet	30	192	192	0	1	3	165421	692	1	hit	471	0
18	Nonet	31	193	193	7	0	0	166130	691	0	correct_rejection	NA	0
18	Nonet	32	194	194	8	0	0	166838	692	0	correct_rejection	NA	0
18	Nonet	33	195	195	9	0	0	167547	691	0	correct_rejection	NA	0
18	Nonet	34	196	196	7	0	0	168255	692	0	correct_rejection	NA	0
18	Nonet	35	197	197	0	1	1	168964	691	1	hit	441	0
18	Nonet	36	198	198	8	0	0	169672	692	0	correct_rejection	NA	0
18	Nonet	37	199	199	9	0	0	170381	692	0	correct_rejection	NA	0
18	Nonet	38	200	200	7	0	0	171089	692	0	correct_rejection	NA	0
18	Nonet	39	201	201	8	0	0	171798	692	0	correct_rejection	NA	0
18	Nonet	40	202	202	9	0	0	172507	691	0	correct_rejection	NA	0
18	Nonet	41	203	203	6	0	0	173215	692	0	correct_rejection	NA	0
18	Nonet	42	204	204	5	0	0	173924	691	0	correct_rejection	NA	0
18	Nonet	43	205	205	4	0	0	174632	692	0	correct_rejection	NA	0
18	Nonet	44	206	206	6	0	0	175341	692	0	correct_rejection	NA	0
18	Nonet	45	207	207	5	0	0	176049	692	0	correct_rejection	NA	0
18	Nonet	46	208	208	4	0	0	176758	692	0	correct_rejection	NA	0
18	Nonet	47	209	209	6	0	0	177467	691	0	correct_rejection	NA	0
18	Nonet	48	210	210	5	0	0	178175	692	0	correct_rejection	NA	0
18	Nonet	49	211	211	0	1	1	178884	691	1	hit	361	0
18	Nonet	50	212	212	4	0	0	179592	692	0	correct_rejection	NA	0
18	Nonet	51	213	213	6	0	0	180301	692	0	correct_rejection	NA	0
18	Nonet	52	214	214	5	0	0	181009	692	0	correct_rejection	NA	0
18	Nonet	53	215	215	4	0	0	181718	692	0	correct_rejection	NA	0
18	Nonet	54	216	216	6	0	0	182427	691	0	correct_rejection	NA	0
18	Nonet	55	217	217	0	1	1	183135	692	1	hit	472	0
18	Nonet	56	218	218	5	0	0	183844	691	0	correct_rejection	NA	0
18	Nonet	57	219	219	4	0	0	184552	692	0	correct_rejection	NA	0
18	Nonet	58	220	220	6	0	0	185261	692	0	correct_rejection	NA	0
18	Nonet	59	221	221	5	0	0	185969	692	0	correct_rejection	NA	0
18	Nonet	60	222	222	4	0	0	186678	692	0	correct_rejection	NA	0
18	Nonet	61	223	223	4	0	0	187387	691	0	correct_rejection	NA	0
18	Nonet	62	224	224	0	1	1	188095	692	1	hit	464	0
18	Nonet	63	225	225	5	0	0	188804	691	0	correct_rejection	NA	0
18	Nonet	64	226	226	6	0	0	189512	692	0	correct_rejection	NA	0
18	Nonet	65	227	227	4	0	0	190221	692	0	correct_rejection	NA	0
18	Nonet	66	228	228	5	0	0	190929	692	0	correct_rejection	NA	0
18	Nonet	67	229	229	6	0	0	191638	692	0	correct_rejection	NA	0
18	Nonet	68	230	230	4	0	0	192347	691	0	correct_rejection	NA	0
18	Nonet	69	231	231	5	0	0	193055	692	0	correct_rejection	NA	0
18	Nonet	70	232	232	6	0	0	193764	691	0	correct_rejection	NA	0
18	Nonet	71	233	233	6	0	0	194472	692	0	correct_rejection	NA	0
18	Nonet	72	234	234	5	0	0	195181	691	0	correct_rejection	NA	0
18	Nonet	73	235	235	4	0	0	195889	692	0	correct_rejection	NA	0
18	Nonet	74	236	236	6	0	0	196598	692	0	correct_rejection	NA	0
18	Nonet	75	237	237	0	1	1	197307	691	1	hit	360	0
18	Nonet	76	238	238	5	0	0	198015	692	0	correct_rejection	NA	0
18	Nonet	77	239	239	4	0	0	198724	691	0	correct_rejection	NA	0
18	Nonet	78	240	240	0	1	2	199432	692	1	hit	664	0
18	Nonet	79	241	241	6	0	0	200141	691	0	correct_rejection	NA	0
18	Nonet	80	242	242	5	0	0	200849	692	0	correct_rejection	NA	0
18	Nonet	81	243	243	4	0	0	201558	692	0	correct_rejection	NA	0
18	Nonet	82	244	244	9	0	0	202266	692	0	correct_rejection	NA	0
18	Nonet	83	245	245	0	1	1	202975	692	1	hit	461	0
18	Nonet	84	246	246	8	0	0	203684	691	0	correct_rejection	NA	0
18	Nonet	85	247	247	7	0	0	204392	692	0	correct_rejection	NA	0
18	Nonet	86	248	248	9	0	0	205101	691	0	correct_rejection	NA	0
18	Nonet	87	249	249	8	0	0	205809	692	0	correct_rejection	NA	0
18	Nonet	88	250	250	7	0	0	206518	692	0	correct_rejection	NA	0
18	Nonet	89	251	251	9	0	0	207226	692	0	correct_rejection	NA	0
18	Nonet	90	252	252	8	0	0	207935	692	0	correct_rejection	NA	0
18	Nonet	91	253	253	7	0	0	208644	691	0	correct_rejection	NA	0
18	Nonet	92	254	254	4	0	0	209352	692	0	correct_rejection	NA	0
18	Nonet	93	255	255	5	0	0	210061	691	0	correct_rejection	NA	0
18	Nonet	94	256	256	6	0	0	210769	692	0	correct_rejection	NA	0
18	Nonet	95	257	257	0	1	2	211478	692	1	hit	364	0
18	Nonet	96	258	258	4	0	0	212186	692	0	correct_rejection	NA	0
18	Nonet	97	259	259	5	0	0	212895	692	0	correct_rejection	NA	0
18	Nonet	98	260	260	6	0	0	213604	691	0	correct_rejection	NA	0
18	Nonet	99	261	261	4	0	0	214312	692	0	correct_rejection	NA	0
18	Nonet	100	262	262	0	1	1	215021	691	1	hit	500	0
18	Nonet	101	263	263	5	0	0	215729	692	0	correct_rejection	NA	0
18	Nonet	102	264	264	6	0	0	216438	692	0	correct_rejection	NA	0
18	Nonet	103	265	265	9	0	0	217146	692	0	correct_rejection	NA	0
18	Nonet	104	266	266	0	1	1	217855	692	1	hit	432	0
18	Nonet	105	267	267	8	0	0	218564	691	0	correct_rejection	NA	0
18	Nonet	106	268	268	7	0	0	219272	692	0	correct_rejection	NA	0
18	Nonet	107	269	269	9	0	0	219981	691	0	correct_rejection	NA	0
18	Nonet	108	270	270	0	1	1	220689	692	1	hit	393	0
18	Nonet	109	271	271	8	0	0	221398	692	0	correct_rejection	NA	0
18	Nonet	110	272	272	7	0	0	222106	692	0	correct_rejection	NA	0
18	Nonet	111	273	273	9	0	0	222815	692	0	correct_rejection	NA	0
18	Nonet	112	274	274	8	0	0	223524	691	0	correct_rejection	NA	0
18	Nonet	113	275	275	7	0	0	224232	692	0	correct_rejection	NA	0
18	Nonet	114	276	276	0	1	3	224941	691	1	hit	358	0
18	Nonet	115	277	277	7	0	0	225649	692	0	correct_rejection	NA	0
18	Nonet	116	278	278	8	0	0	226358	691	0	correct_rejection	NA	0
18	Nonet	117	279	279	9	0	0	227066	692	0	correct_rejection	NA	0
18	Nonet	118	280	280	7	0	0	227775	692	0	correct_rejection	NA	0
18	Nonet	119	281	281	8	0	0	228483	692	0	correct_rejection	NA	0
18	Nonet	120	282	282	9	0	0	229192	692	0	correct_rejection	NA	0
18	Nonet	121	283	283	7	0	0	229901	691	0	correct_rejection	NA	0
18	Nonet	122	284	284	8	0	0	230609	692	0	correct_rejection	NA	0
18	Nonet	123	285	285	9	0	0	231318	691	0	correct_rejection	NA	0
18	Nonet	124	286	286	9	0	0	232026	692	0	correct_rejection	NA	0
18	Nonet	125	287	287	8	0	0	232735	692	0	correct_rejection	NA	0
18	Nonet	126	288	288	7	0	0	233443	692	0	correct_rejection	NA	0
18	Nonet	127	289	289	9	0	0	234152	692	0	correct_rejection	NA	0
18	Nonet	128	290	290	8	0	0	234861	691	0	correct_rejection	NA	0
18	Nonet	129	291	291	7	0	0	235569	692	0	correct_rejection	NA	0
18	Nonet	130	292	292	9	0	0	236278	691	0	correct_rejection	NA	0
18	Nonet	131	293	293	8	0	0	236986	692	0	correct_rejection	NA	0
18	Nonet	132	294	294	7	0	0	237695	692	0	correct_rejection	NA	0
18	Nonet	133	295	295	0	1	3	238403	692	1	hit	453	0
18	Nonet	134	296	296	9	0	0	239112	692	0	correct_rejection	NA	0
18	Nonet	135	297	297	8	0	0	239821	691	0	correct_rejection	NA	0
18	Nonet	136	298	298	7	0	0	240529	692	0	correct_rejection	NA	0
18	Nonet	137	299	299	9	0	0	241238	691	0	correct_rejection	NA	0
18	Nonet	138	300	300	8	0	0	241946	692	0	correct_rejection	NA	0
18	Nonet	139	301	301	7	0	0	242655	692	0	correct_rejection	NA	0
18	Nonet	140	302	302	9	0	0	243363	692	0	correct_rejection	NA	0
18	Nonet	141	303	303	8	0	0	244072	692	0	correct_rejection	NA	0
18	Nonet	142	304	304	7	0	0	244781	691	0	correct_rejection	NA	0
18	Nonet	143	305	305	6	0	0	245489	692	0	correct_rejection	NA	0
18	Nonet	144	306	306	5	0	0	246198	691	0	correct_rejection	NA	0
18	Nonet	145	307	307	4	0	0	246906	692	0	correct_rejection	NA	0
18	Nonet	146	308	308	0	1	2	247615	692	1	hit	357	0
18	Nonet	147	309	309	6	0	0	248323	692	0	correct_rejection	NA	0
18	Nonet	148	310	310	5	0	0	249032	692	0	correct_rejection	NA	0
18	Nonet	149	311	311	4	0	0	249741	691	0	correct_rejection	NA	0
18	Nonet	150	312	312	6	0	0	250449	692	0	correct_rejection	NA	0
18	Nonet	151	313	313	5	0	0	251158	691	0	correct_rejection	NA	0
18	Nonet	152	314	314	4	0	0	251866	692	0	correct_rejection	NA	0
18	Nonet	153	315	315	7	0	0	252575	692	0	correct_rejection	NA	0
18	Nonet	154	316	316	8	0	0	253283	692	0	correct_rejection	NA	0
18	Nonet	155	317	317	0	1	1	253992	692	1	hit	439	0
18	Nonet	156	318	318	9	0	0	254701	691	0	correct_rejection	NA	0
18	Nonet	157	319	319	7	0	0	255409	692	0	correct_rejection	NA	0
18	Nonet	158	320	320	8	0	0	256118	691	0	correct_rejection	NA	0
18	Nonet	159	321	321	9	0	0	256826	692	0	correct_rejection	NA	0
18	Nonet	160	322	322	7	0	0	257535	691	0	correct_rejection	NA	0
18	Nonet	161	323	323	8	0	0	258243	692	0	correct_rejection	NA	0
18	Nonet	162	324	324	9	0	0	258952	692	0	correct_rejection	NA	0
18	Single	1	649	325	8	0	0	268530	692	0	correct_rejection	NA	7329
18	Single	2	650	326	9	0	0	269239	691	0	correct_rejection	NA	0
18	Single	3	651	327	8	0	0	269947	692	0	correct_rejection	NA	0
18	Single	4	652	328	5	0	0	270656	692	0	correct_rejection	NA	0
18	Single	5	653	329	4	0	0	271364	692	0	correct_rejection	NA	0
18	Single	6	654	330	4	0	0	272073	692	0	correct_rejection	NA	0
18	Single	7	655	331	9	0	0	272782	691	0	correct_rejection	NA	0
18	Single	8	656	332	9	0	0	273490	692	0	correct_rejection	NA	0
18	Single	9	657	333	4	0	0	274199	691	0	correct_rejection	NA	0
18	Single	10	658	334	7	0	0	274907	692	0	correct_rejection	NA	0
18	Single	11	659	335	4	0	0	275616	691	0	correct_rejection	NA	0
18	Single	12	660	336	5	0	0	276324	692	0	correct_rejection	NA	0
18	Single	13	661	337	7	0	0	277033	692	0	correct_rejection	NA	0
18	Single	14	662	338	6	0	0	277741	692	0	correct_rejection	NA	0
18	Single	15	663	339	8	0	0	278450	692	0	correct_rejection	NA	0
18	Single	16	664	340	7	0	0	279159	691	0	correct_rejection	NA	0
18	Single	17	665	341	5	0	0	279867	692	0	correct_rejection	NA	0
18	Single	18	666	342	5	0	0	280576	691	0	correct_rejection	NA	0
18	Single	19	667	343	9	0	0	281284	692	0	correct_rejection	NA	0
18	Single	20	668	344	5	0	0	281993	692	0	correct_rejection	NA	0
18	Single	21	669	345	0	1	1	282701	692	1	hit	436	0
18	Single	22	670	346	8	0	0	283410	692	0	correct_rejection	NA	0
18	Single	23	671	347	6	0	0	284119	691	0	correct_rejection	NA	0
18	Single	24	672	348	5	0	0	284827	692	0	correct_rejection	NA	0
18	Single	25	673	349	6	0	0	285536	691	0	correct_rejection	NA	0
18	Single	26	674	350	6	0	0	286244	692	0	correct_rejection	NA	0
18	Single	27	675	351	7	0	0	286953	692	0	correct_rejection	NA	0
18	Single	28	676	352	9	0	0	287661	692	0	correct_rejection	NA	0
18	Single	29	677	353	6	0	0	288370	692	0	correct_rejection	NA	0
18	Single	30	678	354	9	0	0	289079	691	0	correct_rejection	NA	0
18	Single	31	679	355	7	0	0	289787	692	0	correct_rejection	NA	0
18	Single	32	680	356	7	0	0	290496	691	0	correct_rejection	NA	0
18	Single	33	681	357	0	1	1	291204	692	1	hit	436	0
18	Single	34	682	358	8	0	0	291913	692	0	correct_rejection	NA	0
18	Single	35	683	359	8	0	0	292621	692	0	correct_rejection	NA	0
18	Single	36	684	360	4	0	0	293330	692	0	correct_rejection	NA	0
18	Single	37	685	361	6	0	0	294039	691	0	correct_rejection	NA	0
18	Single	38	686	362	4	0	0	294747	692	0	correct_rejection	NA	0
18	Single	39	687	363	7	0	0	295456	691	0	correct_rejection	NA	0
18	Single	40	688	364	9	0	0	296164	692	0	correct_rejection	NA	0
18	Single	41	689	365	5	0	0	296873	692	0	correct_rejection	NA	0
18	Single	42	690	366	9	0	0	297581	692	0	correct_rejection	NA	0
18	Single	43	691	367	4	0	0	298290	692	0	correct_rejection	NA	0
18	Single	44	692	368	8	0	0	298999	691	0	correct_rejection	NA	0
18	Single	45	693	369	4	0	0	299707	692	0	correct_rejection	NA	0
18	Single	46	694	370	9	0	0	300416	691	0	correct_rejection	NA	0
18	Single	47	695	371	7	0	0	301124	692	0	correct_rejection	NA	0
18	Single	48	696	372	8	0	0	301833	691	0	correct_rejection	NA	0
18	Single	49	697	373	9	0	0	302541	692	0	correct_rejection	NA	0
18	Single	50	698	374	6	0	0	303250	692	0	correct_rejection	NA	0
18	Single	51	699	375	8	0	0	303959	691	0	correct_rejection	NA	0
18	Single	52	700	376	8	0	0	304667	692	0	correct_rejection	NA	0
18	Single	53	701	377	5	0	0	305376	691	0	correct_rejection	NA	0
18	Single	54	702	378	8	0	0	306084	692	0	correct_rejection	NA	0
18	Single	55	703	379	7	0	0	306793	691	0	correct_rejection	NA	0
18	Single	56	704	380	7	0	0	307501	692	0	correct_rejection	NA	0
18	Single	57	705	381	4	0	0	308210	692	0	correct_rejection	NA	0
18	Single	58	706	382	0	1	1	308918	692	1	hit	437	0
18	Single	59	707	383	4	0	0	309627	692	0	correct_rejection	NA	0
18	Single	60	708	384	6	0	0	310336	691	0	correct_rejection	NA	0
18	Single	61	709	385	5	0	0	311044	692	0	correct_rejection	NA	0
18	Single	62	710	386	4	0	0	311753	691	0	correct_rejection	NA	0
18	Single	63	711	387	7	0	0	312461	692	0	correct_rejection	NA	0
18	Single	64	712	388	6	0	0	313170	692	0	correct_rejection	NA	0
18	Single	65	713	389	6	0	0	313878	692	0	correct_rejection	NA	0
18	Single	66	714	390	9	0	0	314587	692	0	correct_rejection	NA	0
18	Single	67	715	391	0	1	1	315296	691	1	hit	539	0
18	Single	68	716	392	9	0	0	316004	692	0	correct_rejection	NA	0
18	Single	69	717	393	8	0	0	316713	691	0	correct_rejection	NA	0
18	Single	70	718	394	0	1	1	317421	692	1	hit	516	0
18	Single	71	719	395	6	0	0	318130	692	0	correct_rejection	NA	0
18	Single	72	720	396	4	0	0	318838	692	0	correct_rejection	NA	0
18	Single	73	721	397	5	0	0	319547	692	0	correct_rejection	NA	0
18	Single	74	722	398	5	0	0	320256	691	0	correct_rejection	NA	0
18	Single	75	723	399	0	1	1	320964	692	1	hit	489	0
18	Single	76	724	400	6	0	0	321673	691	0	correct_rejection	NA	0
18	Single	77	725	401	7	0	0	322381	692	0	correct_rejection	NA	0
18	Single	78	726	402	0	1	1	323090	692	1	hit	592	0
18	Single	79	727	403	5	0	0	323798	692	0	correct_rejection	NA	0
18	Single	80	728	404	5	0	0	324507	692	0	correct_rejection	NA	0
18	Single	81	729	405	4	0	0	325216	691	0	correct_rejection	NA	0
18	Single	82	730	406	0	1	1	325924	692	1	hit	464	0
18	Single	83	731	407	9	0	0	326633	691	0	correct_rejection	NA	0
18	Single	84	732	408	5	0	0	327341	692	0	correct_rejection	NA	0
18	Single	85	733	409	6	0	0	328050	692	0	correct_rejection	NA	0
18	Single	86	734	410	4	0	0	328758	692	0	correct_rejection	NA	0
18	Single	87	735	411	0	1	1	329467	692	1	hit	409	0
18	Single	88	736	412	7	0	0	330176	691	0	correct_rejection	NA	0
18	Single	89	737	413	9	0	0	330884	692	0	correct_rejection	NA	0
18	Single	90	738	414	8	0	0	331593	691	0	correct_rejection	NA	0
18	Single	91	739	415	8	0	0	332301	692	0	correct_rejection	NA	0
18	Single	92	740	416	7	0	0	333010	691	0	correct_rejection	NA	0
18	Single	93	741	417	8	0	0	333718	692	0	correct_rejection	NA	0
18	Single	94	742	418	0	1	1	334427	692	1	hit	322	0
18	Single	95	743	419	4	0	0	335136	691	0	correct_rejection	NA	0
18	Single	96	744	420	8	0	0	335844	692	0	correct_rejection	NA	0
18	Single	97	745	421	5	0	0	336553	691	0	correct_rejection	NA	0
18	Single	98	746	422	5	0	0	337261	692	0	correct_rejection	NA	0
18	Single	99	747	423	8	0	0	337970	691	0	correct_rejection	NA	0
18	Single	100	748	424	9	0	0	338678	692	0	correct_rejection	NA	0
18	Single	101	749	425	4	0	0	339387	692	0	correct_rejection	NA	0
18	Single	102	750	426	4	0	0	340095	692	0	correct_rejection	NA	0
18	Single	103	751	427	0	1	1	340804	692	1	hit	376	0
18	Single	104	752	428	5	0	0	341513	691	0	correct_rejection	NA	0
18	Single	105	753	429	9	0	0	342221	692	0	correct_rejection	NA	0
18	Single	106	754	430	9	0	0	342930	691	0	correct_rejection	NA	0
18	Single	107	755	431	7	0	0	343638	692	0	correct_rejection	NA	0
18	Single	108	756	432	6	0	0	344347	692	0	correct_rejection	NA	0
18	Single	109	757	433	7	0	0	345055	692	0	correct_rejection	NA	0
18	Single	110	758	434	7	0	0	345764	692	0	correct_rejection	NA	0
18	Single	111	759	435	5	0	0	346473	691	0	correct_rejection	NA	0
18	Single	112	760	436	0	1	1	347181	692	1	hit	418	0
18	Single	113	761	437	7	0	0	347890	691	0	correct_rejection	NA	0
18	Single	114	762	438	4	0	0	348598	692	0	correct_rejection	NA	0
18	Single	115	763	439	6	0	0	349307	692	0	correct_rejection	NA	0
18	Single	116	764	440	9	0	0	350015	692	0	correct_rejection	NA	0
18	Single	117	765	441	6	0	0	350724	692	0	correct_rejection	NA	0
18	Single	118	766	442	6	0	0	351433	691	0	correct_rejection	NA	0
18	Single	119	767	443	8	0	0	352141	692	0	correct_rejection	NA	0
18	Single	120	768	444	6	0	0	352850	691	0	correct_rejection	NA	0
18	Single	121	769	445	0	1	1	353558	692	1	hit	351	0
18	Single	122	770	446	7	0	0	354267	692	0	correct_rejection	NA	0
18	Single	123	771	447	7	0	0	354975	692	0	correct_rejection	NA	0
18	Single	124	772	448	8	0	0	355684	692	0	correct_rejection	NA	0
18	Single	125	773	449	7	0	0	356393	691	0	correct_rejection	NA	0
18	Single	126	774	450	6	0	0	357101	692	0	correct_rejection	NA	0
18	Single	127	775	451	9	0	0	357810	691	0	correct_rejection	NA	0
18	Single	128	776	452	7	0	0	358518	692	0	correct_rejection	NA	0
18	Single	129	777	453	0	1	1	359227	692	1	hit	463	0
18	Single	130	778	454	4	0	0	359935	692	0	correct_rejection	NA	0
18	Single	131	779	455	9	0	0	360644	692	0	correct_rejection	NA	0
18	Single	132	780	456	6	0	0	361353	691	0	correct_rejection	NA	0
18	Single	133	781	457	5	0	0	362061	692	0	correct_rejection	NA	0
18	Single	134	782	458	6	0	0	362770	691	0	correct_rejection	NA	0
18	Single	135	783	459	0	1	1	363478	692	1	hit	456	0
18	Single	136	784	460	6	0	0	364187	691	0	correct_rejection	NA	0
18	Single	137	785	461	7	0	0	364895	692	0	correct_rejection	NA	0
18	Single	138	786	462	9	0	0	365604	692	0	correct_rejection	NA	0
18	Single	139	787	463	9	0	0	366312	692	0	correct_rejection	NA	0
18	Single	140	788	464	4	0	0	367021	692	0	correct_rejection	NA	0
18	Single	141	789	465	5	0	0	367730	691	0	correct_rejection	NA	0
18	Single	142	790	466	8	0	0	368438	692	0	correct_rejection	NA	0
18	Single	143	791	467	6	0	0	369147	691	0	correct_rejection	NA	0
18	Single	144	792	468	8	0	0	369855	692	0	correct_rejection	NA	0
18	Single	145	793	469	9	0	0	370564	692	0	correct_rejection	NA	0
18	Single	146	794	470	5	0	0	371272	692	0	correct_rejection	NA	0
18	Single	147	795	471	7	0	0	371981	692	0	correct_rejection	NA	0
18	Single	148	796	472	5	0	0	372690	691	0	correct_rejection	NA	0
18	Single	149	797	473	5	0	0	373398	692	0	correct_rejection	NA	0
18	Single	150	798	474	9	0	0	374107	691	0	correct_rejection	NA	0
18	Single	151	799	475	8	0	0	374815	692	0	correct_rejection	NA	0
18	Single	152	800	476	0	1	1	375524	692	1	hit	414	0
18	Single	153	801	477	5	0	0	376232	692	0	correct_rejection	NA	0
18	Single	154	802	478	4	0	0	376941	692	0	correct_rejection	NA	0
18	Single	155	803	479	6	0	0	377650	691	0	correct_rejection	NA	0
18	Single	156	804	480	0	1	1	378358	692	1	hit	507	0
18	Single	157	805	481	4	0	0	379067	691	0	correct_rejection	NA	0
18	Single	158	806	482	4	0	0	379775	692	0	correct_rejection	NA	0
18	Single	159	807	483	8	0	0	380484	692	0	correct_rejection	NA	0
18	Single	160	808	484	0	1	1	381192	692	1	hit	460	0
18	Single	161	809	485	8	0	0	381901	692	0	correct_rejection	NA	0
18	Single	162	810	486	4	0	0	382610	691	0	correct_rejection	NA	0
18	Nonet	1	487	487	7	0	0	392821	692	0	correct_rejection	NA	7618
18	Nonet	2	488	488	8	0	0	393530	692	0	correct_rejection	NA	0
18	Nonet	3	489	489	9	0	0	394238	692	0	correct_rejection	NA	0
18	Nonet	4	490	490	0	1	2	394947	692	1	hit	392	0
18	Nonet	5	491	491	7	0	0	395656	691	0	correct_rejection	NA	0
18	Nonet	6	492	492	8	0	0	396364	692	0	correct_rejection	NA	0
18	Nonet	7	493	493	9	0	0	397073	691	0	correct_rejection	NA	0
18	Nonet	8	494	494	7	0	0	397781	692	0	correct_rejection	NA	0
18	Nonet	9	495	495	8	0	0	398490	692	0	correct_rejection	NA	0
18	Nonet	10	496	496	9	0	0	399198	692	0	correct_rejection	NA	0
18	Nonet	11	497	497	7	0	0	399907	692	0	correct_rejection	NA	0
18	Nonet	12	498	498	8	0	0	400616	691	0	correct_rejection	NA	0
18	Nonet	13	499	499	0	1	1	401324	692	1	hit	416	0
18	Nonet	14	500	500	9	0	0	402033	691	0	correct_rejection	NA	0
18	Nonet	15	501	501	7	0	0	402741	692	0	correct_rejection	NA	0
18	Nonet	16	502	502	0	1	1	403450	691	1	hit	451	0
18	Nonet	17	503	503	8	0	0	404158	692	0	correct_rejection	NA	0
18	Nonet	18	504	504	9	0	0	404867	692	0	correct_rejection	NA	0
18	Nonet	19	505	505	7	0	0	405576	691	0	correct_rejection	NA	0
18	Nonet	20	506	506	8	0	0	406284	692	0	correct_rejection	NA	0
18	Nonet	21	507	507	9	0	0	406993	691	0	correct_rejection	NA	0
18	Nonet	22	508	508	9	0	0	407701	692	0	correct_rejection	NA	0
18	Nonet	23	509	509	8	0	0	408410	691	0	correct_rejection	NA	0
18	Nonet	24	510	510	7	0	0	409118	692	0	correct_rejection	NA	0
18	Nonet	25	511	511	9	0	0	409827	692	0	correct_rejection	NA	0
18	Nonet	26	512	512	8	0	0	410535	692	0	correct_rejection	NA	0
18	Nonet	27	513	513	7	0	0	411244	692	0	correct_rejection	NA	0
18	Nonet	28	514	514	9	0	0	411953	691	0	correct_rejection	NA	0
18	Nonet	29	515	515	0	1	1	412661	692	1	hit	394	0
18	Nonet	30	516	516	8	0	0	413370	691	0	correct_rejection	NA	0
18	Nonet	31	517	517	7	0	0	414078	692	0	correct_rejection	NA	0
18	Nonet	32	518	518	9	0	0	414787	692	0	correct_rejection	NA	0
18	Nonet	33	519	519	8	0	0	415495	692	0	correct_rejection	NA	0
18	Nonet	34	520	520	7	0	0	416204	692	0	correct_rejection	NA	0
18	Nonet	35	521	521	9	0	0	416913	691	0	correct_rejection	NA	0
18	Nonet	36	522	522	0	1	1	417621	692	1	hit	424	0
18	Nonet	37	523	523	8	0	0	418330	691	0	correct_rejection	NA	0
18	Nonet	38	524	524	7	0	0	419038	692	0	correct_rejection	NA	0
18	Nonet	39	525	525	9	0	0	419747	692	0	correct_rejection	NA	0
18	Nonet	40	526	526	8	0	0	420455	692	0	correct_rejection	NA	0
18	Nonet	41	527	527	7	0	0	421164	692	0	correct_rejection	NA	0
18	Nonet	42	528	528	4	0	0	421873	691	0	correct_rejection	NA	0
18	Nonet	43	529	529	5	0	0	422581	692	0	correct_rejection	NA	0
18	Nonet	44	530	530	6	0	0	423290	691	0	correct_rejection	NA	0
18	Nonet	45	531	531	4	0	0	423998	692	0	correct_rejection	NA	0
18	Nonet	46	532	532	5	0	0	424707	692	0	correct_rejection	NA	0
18	Nonet	47	533	533	0	1	1	425415	692	1	hit	388	0
18	Nonet	48	534	534	6	0	0	426124	692	0	correct_rejection	NA	0
18	Nonet	49	535	535	4	0	0	426833	691	0	correct_rejection	NA	0
18	Nonet	50	536	536	5	0	0	427541	692	0	correct_rejection	NA	0
18	Nonet	51	537	537	6	0	0	428250	691	0	correct_rejection	NA	0
18	Nonet	52	538	538	6	0	0	428958	692	0	correct_rejection	NA	0
18	Nonet	53	539	539	5	0	0	429667	692	0	correct_rejection	NA	0
18	Nonet	54	540	540	4	0	0	430375	692	0	correct_rejection	NA	0
18	Nonet	55	541	541	6	0	0	431084	692	0	correct_rejection	NA	0
18	Nonet	56	542	542	5	0	0	431793	691	0	correct_rejection	NA	0
18	Nonet	57	543	543	4	0	0	432501	692	0	correct_rejection	NA	0
18	Nonet	58	544	544	6	0	0	433210	691	0	correct_rejection	NA	0
18	Nonet	59	545	545	5	0	0	433918	692	0	correct_rejection	NA	0
18	Nonet	60	546	546	4	0	0	434627	691	0	correct_rejection	NA	0
18	Nonet	61	547	547	4	0	0	435335	692	0	correct_rejection	NA	0
18	Nonet	62	548	548	5	0	0	436044	692	0	correct_rejection	NA	0
18	Nonet	63	549	549	6	0	0	436752	692	0	correct_rejection	NA	0
18	Nonet	64	550	550	4	0	0	437461	692	0	correct_rejection	NA	0
18	Nonet	65	551	551	5	0	0	438170	691	0	correct_rejection	NA	0
18	Nonet	66	552	552	6	0	0	438878	692	0	correct_rejection	NA	0
18	Nonet	67	553	553	0	1	2	439587	691	1	hit	476	0
18	Nonet	68	554	554	4	0	0	440295	692	0	correct_rejection	NA	0
18	Nonet	69	555	555	5	0	0	441004	692	0	correct_rejection	NA	0
18	Nonet	70	556	556	6	0	0	441712	692	0	correct_rejection	NA	0
18	Nonet	71	557	557	7	0	0	442421	692	0	correct_rejection	NA	0
18	Nonet	72	558	558	8	0	0	443130	691	0	correct_rejection	NA	0
18	Nonet	73	559	559	9	0	0	443838	692	0	correct_rejection	NA	0
18	Nonet	74	560	560	7	0	0	444547	691	0	correct_rejection	NA	0
18	Nonet	75	561	561	8	0	0	445255	692	0	correct_rejection	NA	0
18	Nonet	76	562	562	9	0	0	445964	692	0	correct_rejection	NA	0
18	Nonet	77	563	563	7	0	0	446672	692	0	correct_rejection	NA	0
18	Nonet	78	564	564	8	0	0	447381	692	0	correct_rejection	NA	0
18	Nonet	79	565	565	9	0	0	448090	691	0	correct_rejection	NA	0
18	Nonet	80	566	566	6	0	0	448798	692	0	correct_rejection	NA	0
18	Nonet	81	567	567	5	0	0	449507	691	0	correct_rejection	NA	0
18	Nonet	82	568	568	0	1	1	450215	692	1	hit	541	0
18	Nonet	83	569	569	4	0	0	450924	692	0	correct_rejection	NA	0
18	Nonet	84	570	570	6	0	0	451632	692	0	correct_rejection	NA	0
18	Nonet	85	571	571	5	0	0	452341	692	0	correct_rejection	NA	0
18	Nonet	86	572	572	4	0	0	453050	691	0	correct_rejection	NA	0
18	Nonet	87	573	573	0	1	2	453758	692	1	hit	559	0
18	Nonet	88	574	574	6	0	0	454467	691	0	correct_rejection	NA	0
18	Nonet	89	575	575	5	0	0	455175	692	0	correct_rejection	NA	0
18	Nonet	90	576	576	4	0	0	455884	692	0	correct_rejection	NA	0
18	Nonet	91	577	577	9	0	0	456592	692	0	correct_rejection	NA	0
18	Nonet	92	578	578	8	0	0	457301	692	0	correct_rejection	NA	0
18	Nonet	93	579	579	7	0	0	458010	691	0	correct_rejection	NA	0
18	Nonet	94	580	580	9	0	0	458718	692	0	correct_rejection	NA	0
18	Nonet	95	581	581	8	0	0	459427	691	0	correct_rejection	NA	0
18	Nonet	96	582	582	7	0	0	460135	692	0	correct_rejection	NA	0
18	Nonet	97	583	583	0	1	2	460844	692	1	hit	436	0
18	Nonet	98	584	584	9	0	0	461552	692	0	correct_rejection	NA	0
18	Nonet	99	585	585	8	0	0	462261	692	0	correct_rejection	NA	0
18	Nonet	100	586	586	7	0	0	462970	691	0	correct_rejection	NA	0
18	Nonet	101	587	587	6	0	0	463678	692	0	correct_rejection	NA	0
18	Nonet	102	588	588	5	0	0	464387	691	0	correct_rejection	NA	0
18	Nonet	103	589	589	0	1	1	465095	692	1	hit	409	0
18	Nonet	104	590	590	4	0	0	465804	691	0	correct_rejection	NA	0
18	Nonet	105	591	591	6	0	0	466512	692	0	correct_rejection	NA	0
18	Nonet	106	592	592	5	0	0	467221	692	0	correct_rejection	NA	0
18	Nonet	107	593	593	4	0	0	467929	692	0	correct_rejection	NA	0
18	Nonet	108	594	594	6	0	0	468638	692	0	correct_rejection	NA	0
18	Nonet	109	595	595	5	0	0	469347	691	0	correct_rejection	NA	0
18	Nonet	110	596	596	4	0	0	470055	692	0	correct_rejection	NA	0
18	Nonet	111	597	597	6	0	0	470764	691	0	correct_rejection	NA	0
18	Nonet	112	598	598	5	0	0	471472	692	0	correct_rejection	NA	0
18	Nonet	113	599	599	4	0	0	472181	692	0	correct_rejection	NA	0
18	Nonet	114	600	600	6	0	0	472889	692	0	correct_rejection	NA	0
18	Nonet	115	601	601	5	0	0	473598	692	0	correct_rejection	NA	0
18	Nonet	116	602	602	4	0	0	474307	691	0	correct_rejection	NA	0
18	Nonet	117	603	603	6	0	0	475015	692	0	correct_rejection	NA	0
18	Nonet	118	604	604	0	1	1	475724	691	1	hit	422	0
18	Nonet	119	605	605	5	0	0	476432	692	0	correct_rejection	NA	0
18	Nonet	120	606	606	4	0	0	477141	692	0	correct_rejection	NA	0
18	Nonet	121	607	607	7	0	0	477849	692	0	correct_rejection	NA	0
18	Nonet	122	608	608	8	0	0	478558	692	0	correct_rejection	NA	0
18	Nonet	123	609	609	0	1	1	479267	691	1	hit	417	0
18	Nonet	124	610	610	9	0	0	479975	692	0	correct_rejection	NA	0
18	Nonet	125	611	611	7	0	0	480684	691	0	correct_rejection	NA	0
18	Nonet	126	612	612	0	1	1	481392	692	1	hit	480	0
18	Nonet	127	613	613	8	0	0	482101	692	0	correct_rejection	NA	0
18	Nonet	128	614	614	9	0	0	482809	692	0	correct_rejection	NA	0
18	Nonet	129	615	615	0	1	2	483518	692	1	hit	492	0
18	Nonet	130	616	616	7	0	0	484227	691	0	correct_rejection	NA	0
18	Nonet	131	617	617	8	0	0	484935	692	0	correct_rejection	NA	0
18	Nonet	132	618	618	9	0	0	485644	691	0	correct_rejection	NA	0
18	Nonet	133	619	619	4	0	0	486352	692	0	correct_rejection	NA	0
18	Nonet	134	620	620	5	0	0	487061	692	0	correct_rejection	NA	0
18	Nonet	135	621	621	6	0	0	487769	692	0	correct_rejection	NA	0
18	Nonet	136	622	622	4	0	0	488478	692	0	correct_rejection	NA	0
18	Nonet	137	623	623	5	0	0	489187	691	0	correct_rejection	NA	0
18	Nonet	138	624	624	6	0	0	489895	692	0	correct_rejection	NA	0
18	Nonet	139	625	625	4	0	0	490604	691	0	correct_rejection	NA	0
18	Nonet	140	626	626	5	0	0	491312	692	0	correct_rejection	NA	0
18	Nonet	141	627	627	6	0	0	492021	692	0	correct_rejection	NA	0
18	Nonet	142	628	628	4	0	0	492729	692	0	correct_rejection	NA	0
18	Nonet	143	629	629	5	0	0	493438	692	0	correct_rejection	NA	0
18	Nonet	144	630	630	6	0	0	494147	691	0	correct_rejection	NA	0
18	Nonet	145	631	631	4	0	0	494855	692	0	correct_rejection	NA	0
18	Nonet	146	632	632	0	1	1	495564	691	1	hit	528	0
18	Nonet	147	633	633	5	0	0	496272	692	0	correct_rejection	NA	0
18	Nonet	148	634	634	6	0	0	496981	691	0	correct_rejection	NA	0
18	Nonet	149	635	635	0	1	2	497689	692	0	miss	NA	0
18	Nonet	150	636	636	4	0	0	498398	692	1	false_alarm	35	0
18	Nonet	151	637	637	5	0	0	499106	692	0	correct_rejection	NA	0
18	Nonet	152	638	638	6	0	0	499815	692	0	correct_rejection	NA	0
18	Nonet	153	639	639	9	0	0	500524	691	0	correct_rejection	NA	0
18	Nonet	154	640	640	8	0	0	501232	692	0	correct_rejection	NA	0
18	Nonet	155	641	641	7	0	0	501941	691	0	correct_rejection	NA	0
18	Nonet	156	642	642	9	0	0	502649	692	0	correct_rejection	NA	0
18	Nonet	157	643	643	8	0	0	503358	692	0	correct_rejection	NA	0
18	Nonet	158	644	644	7	0	0	504066	692	0	correct_rejection	NA	0
18	Nonet	159	645	645	9	0	0	504775	692	0	correct_rejection	NA	0
18	Nonet	160	646	646	8	0	0	505484	691	0	correct_rejection	NA	0
18	Nonet	161	647	647	0	1	1	506192	692	1	hit	517	0
18	Nonet	162	648	648	7	0	0	506901	691	0	correct_rejection	NA	0
18	Correct	1	487	649	4	0	0	516912	692	0	correct_rejection	NA	7708
18	Correct	2	488	650	5	0	0	517621	692	0	correct_rejection	NA	0
18	Correct	3	489	651	6	0	0	518330	691	0	correct_rejection	NA	0
18	Correct	4	490	652	4	0	0	519038	692	0	correct_rejection	NA	0
18	Correct	5	491	653	0	1	1	519747	691	1	hit	579	0
18	Correct	6	492	654	5	0	0	520455	692	0	correct_rejection	NA	0
18	Correct	7	493	655	6	0	0	521164	691	0	correct_rejection	NA	0
18	Correct	8	494	656	0	1	2	521872	692	1	hit	440	0
18	Correct	9	495	657	4	0	0	522581	692	0	correct_rejection	NA	0
18	Correct	10	496	658	5	0	0	523290	691	0	correct_rejection	NA	0
18	Correct	11	497	659	6	0	0	523998	692	0	correct_rejection	NA	0
18	Correct	12	498	660	6	0	0	524707	691	0	correct_rejection	NA	0
18	Correct	13	499	661	5	0	0	525415	692	0	correct_rejection	NA	0
18	Correct	14	500	662	4	0	0	526124	691	0	correct_rejection	NA	0
18	Correct	15	501	663	0	1	2	526832	692	1	hit	374	0
18	Correct	16	502	664	6	0	0	527541	692	0	correct_rejection	NA	0
18	Correct	17	503	665	5	0	0	528249	692	0	correct_rejection	NA	0
18	Correct	18	504	666	4	0	0	528958	692	0	correct_rejection	NA	0
18	Correct	19	505	667	6	0	0	529667	691	0	correct_rejection	NA	0
18	Correct	20	506	668	0	1	1	530375	692	1	hit	444	0
18	Correct	21	507	669	5	0	0	531084	691	0	correct_rejection	NA	0
18	Correct	22	508	670	4	0	0	531792	692	0	correct_rejection	NA	0
18	Correct	23	509	671	9	0	0	532501	692	0	correct_rejection	NA	0
18	Correct	24	510	672	8	0	0	533209	692	0	correct_rejection	NA	0
18	Correct	25	511	673	7	0	0	533918	692	0	correct_rejection	NA	0
18	Correct	26	512	674	9	0	0	534627	691	0	correct_rejection	NA	0
18	Correct	27	513	675	0	1	1	535335	692	1	hit	352	0
18	Correct	28	514	676	8	0	0	536044	691	0	correct_rejection	NA	0
18	Correct	29	515	677	7	0	0	536752	692	0	correct_rejection	NA	0
18	Correct	30	516	678	9	0	0	537461	692	0	correct_rejection	NA	0
18	Correct	31	517	679	8	0	0	538169	692	0	correct_rejection	NA	0
18	Correct	32	518	680	0	1	1	538878	692	1	hit	415	0
18	Correct	33	519	681	7	0	0	539587	691	0	correct_rejection	NA	0
18	Correct	34	520	682	7	0	0	540295	692	0	correct_rejection	NA	0
18	Correct	35	521	683	8	0	0	541004	691	0	correct_rejection	NA	0
18	Correct	36	522	684	9	0	0	541712	692	0	correct_rejection	NA	0
18	Correct	37	523	685	7	0	0	542421	692	0	correct_rejection	NA	0
18	Correct	38	524	686	8	0	0	543129	692	0	correct_rejection	NA	0
18	Correct	39	525	687	9	0	0	543838	692	0	correct_rejection	NA	0
18	Correct	40	526	688	7	0	0	544547	691	0	correct_rejection	NA	0
18	Correct	41	527	689	8	0	0	545255	692	0	correct_rejection	NA	0
18	Correct	42	528	690	9	0	0	545964	691	0	correct_rejection	NA	0
18	Correct	43	529	691	4	0	0	546672	692	0	correct_rejection	NA	0
18	Correct	44	530	692	5	0	0	547381	691	0	correct_rejection	NA	0
18	Correct	45	531	693	6	0	0	548089	692	0	correct_rejection	NA	0
18	Correct	46	532	694	4	0	0	548798	692	0	correct_rejection	NA	0
18	Correct	47	533	695	5	0	0	549507	691	0	correct_rejection	NA	0
18	Correct	48	534	696	6	0	0	550215	692	0	correct_rejection	NA	0
18	Correct	49	535	697	4	0	0	550924	691	0	correct_rejection	NA	0
18	Correct	50	536	698	5	0	0	551632	692	0	correct_rejection	NA	0
18	Correct	51	537	699	0	1	1	552341	691	1	hit	393	0
18	Correct	52	538	700	6	0	0	553049	692	0	correct_rejection	NA	0
18	Correct	53	539	701	6	0	0	553758	692	0	correct_rejection	NA	0
18	Correct	54	540	702	5	0	0	554466	692	0	correct_rejection	NA	0
18	Correct	55	541	703	4	0	0	555175	692	0	correct_rejection	NA	0
18	Correct	56	542	704	6	0	0	555884	691	0	correct_rejection	NA	0
18	Correct	57	543	705	5	0	0	556592	692	0	correct_rejection	NA	0
18	Correct	58	544	706	4	0	0	557301	691	0	correct_rejection	NA	0
18	Correct	59	545	707	0	1	2	558009	692	1	hit	404	0
18	Correct	60	546	708	6	0	0	558718	692	0	correct_rejection	NA	0
18	Correct	61	547	709	5	0	0	559426	692	0	correct_rejection	NA	0
18	Correct	62	548	710	0	1	1	560135	692	1	hit	619	0
18	Correct	63	549	711	4	0	0	560844	691	0	correct_rejection	NA	0
18	Correct	64	550	712	9	0	0	561552	692	0	correct_rejection	NA	0
18	Correct	65	551	713	0	1	1	562261	691	1	hit	479	0
18	Correct	66	552	714	8	0	0	562969	692	0	correct_rejection	NA	0
18	Correct	67	553	715	7	0	0	563678	692	0	correct_rejection	NA	0
18	Correct	68	554	716	9	0	0	564386	692	0	correct_rejection	NA	0
18	Correct	69	555	717	8	0	0	565095	692	0	correct_rejection	NA	0
18	Correct	70	556	718	0	1	1	565804	691	1	hit	391	0
18	Correct	71	557	719	7	0	0	566512	692	0	correct_rejection	NA	0
18	Correct	72	558	720	9	0	0	567221	691	0	correct_rejection	NA	0
18	Correct	73	559	721	8	0	0	567929	692	0	correct_rejection	NA	0
18	Correct	74	560	722	7	0	0	568638	692	0	correct_rejection	NA	0
18	Correct	75	561	723	7	0	0	569346	692	0	correct_rejection	NA	0
18	Correct	76	562	724	8	0	0	570055	692	0	correct_rejection	NA	0
18	Correct	77	563	725	9	0	0	570764	691	0	correct_rejection	NA	0
18	Correct	78	564	726	7	0	0	571472	692	0	correct_rejection	NA	0
18	Correct	79	565	727	8	0	0	572181	691	0	correct_rejection	NA	0
18	Correct	80	566	728	9	0	0	572889	692	0	correct_rejection	NA	0
18	Correct	81	567	729	7	0	0	573598	692	0	correct_rejection	NA	0
18	Correct	82	568	730	8	0	0	574306	692	0	correct_rejection	NA	0
18	Correct	83	569	731	9	0	0	575015	692	0	correct_rejection	NA	0
18	Correct	84	570	732	4	0	0	575724	691	0	correct_rejection	NA	0
18	Correct	85	571	733	5	0	0	576432	692	0	correct_rejection	NA	0
18	Correct	86	572	734	6	0	0	577141	691	0	correct_rejection	NA	0
18	Correct	87	573	735	4	0	0	577849	692	0	correct_rejection	NA	0
18	Correct	88	574	736	5	0	0	578558	691	0	correct_rejection	NA	0
18	Correct	89	575	737	0	1	1	579266	692	1	hit	377	0
18	Correct	90	576	738	6	0	0	579975	692	0	correct_rejection	NA	0
18	Correct	91	577	739	4	0	0	580684	691	0	correct_rejection	NA	0
18	Correct	92	578	740	5	0	0	581392	692	0	correct_rejection	NA	0
18	Correct	93	579	741	6	0	0	582101	691	0	correct_rejection	NA	0
18	Correct	94	580	742	6	0	0	582809	692	0	correct_rejection	NA	0
18	Correct	95	581	743	0	1	1	583518	691	1	hit	580	0
18	Correct	96	582	744	5	0	0	584226	692	0	correct_rejection	NA	0
18	Correct	97	583	745	4	0	0	584935	692	0	correct_rejection	NA	0
18	Correct	98	584	746	6	0	0	585643	692	0	correct_rejection	NA	0
18	Correct	99	585	747	5	0	0	586352	692	0	correct_rejection	NA	0
18	Correct	100	586	748	4	0	0	587061	691	0	correct_rejection	NA	0
18	Correct	101	587	749	6	0	0	587769	692	0	correct_rejection	NA	0
18	Correct	102	588	750	5	0	0	588478	691	0	correct_rejection	NA	0
18	Correct	103	589	751	4	0	0	589186	692	0	correct_rejection	NA	0
18	Correct	104	590	752	9	0	0	589895	692	0	correct_rejection	NA	0
18	Correct	105	591	753	8	0	0	590603	692	0	correct_rejection	NA	0
18	Correct	106	592	754	7	0	0	591312	692	0	correct_rejection	NA	0
18	Correct	107	593	755	9	0	0	592021	691	0	correct_rejection	NA	0
18	Correct	108	594	756	8	0	0	592729	692	0	correct_rejection	NA	0
18	Correct	109	595	757	7	0	0	593438	691	0	correct_rejection	NA	0
18	Correct	110	596	758	9	0	0	594146	692	0	correct_rejection	NA	0
18	Correct	111	597	759	8	0	0	594855	692	0	correct_rejection	NA	0
18	Correct	112	598	760	7	0	0	595563	692	0	correct_rejection	NA	0
18	Correct	113	599	761	7	0	0	596272	692	0	correct_rejection	NA	0
18	Correct	114	600	762	8	0	0	596981	691	0	correct_rejection	NA	0
18	Correct	115	601	763	0	1	1	597689	692	1	hit	539	0
18	Correct	116	602	764	9	0	0	598398	691	0	correct_rejection	NA	0
18	Correct	117	603	765	7	0	0	599106	692	0	correct_rejection	NA	0
18	Correct	118	604	766	8	0	0	599815	692	0	correct_rejection	NA	0
18	Correct	119	605	767	9	0	0	600523	692	0	correct_rejection	NA	0
18	Correct	120	606	768	7	0	0	601232	692	0	correct_rejection	NA	0
18	Correct	121	607	769	8	0	0	601941	691	0	correct_rejection	NA	0
18	Correct	122	608	770	9	0	0	602649	692	0	correct_rejection	NA	0
18	Correct	123	609	771	0	1	4	603358	691	1	hit	530	0
18	Correct	124	610	772	4	0	0	604066	692	0	correct_rejection	NA	0
18	Correct	125	611	773	5	0	0	604775	692	0	correct_rejection	NA	0
18	Correct	126	612	774	6	0	0	605483	692	0	correct_rejection	NA	0
18	Correct	127	613	775	4	0	0	606192	692	0	correct_rejection	NA	0
18	Correct	128	614	776	5	0	0	606901	691	0	correct_rejection	NA	0
18	Correct	129	615	777	6	0	0	607609	692	0	correct_rejection	NA	0
18	Correct	130	616	778	0	1	2	608318	691	1	hit	507	0
18	Correct	131	617	779	4	0	0	609026	692	0	correct_rejection	NA	0
18	Correct	132	618	780	5	0	0	609735	691	0	correct_rejection	NA	0
18	Correct	133	619	781	6	0	0	610443	692	0	correct_rejection	NA	0
18	Correct	134	620	782	6	0	0	611152	692	0	correct_rejection	NA	0
18	Correct	135	621	783	5	0	0	611861	691	0	correct_rejection	NA	0
18	Correct	136	622	784	4	0	0	612569	692	0	correct_rejection	NA	0
18	Correct	137	623	785	6	0	0	613278	691	0	correct_rejection	NA	0
18	Correct	138	624	786	5	0	0	613986	692	0	correct_rejection	NA	0
18	Correct	139	625	787	0	1	1	614695	691	1	hit	502	0
18	Correct	140	626	788	4	0	0	615403	692	0	correct_rejection	NA	0
18	Correct	141	627	789	6	0	0	616112	692	0	correct_rejection	NA	0
18	Correct	142	628	790	5	0	0	616820	692	0	correct_rejection	NA	0
18	Correct	143	629	791	4	0	0	617529	692	0	correct_rejection	NA	0
18	Correct	144	630	792	0	1	3	618238	691	1	hit	422	0
18	Correct	145	631	793	9	0	0	618946	692	0	correct_rejection	NA	0
18	Correct	146	632	794	8	0	0	619655	691	0	correct_rejection	NA	0
18	Correct	147	633	795	7	0	0	620363	692	0	correct_rejection	NA	0
18	Correct	148	634	796	9	0	0	621072	692	0	correct_rejection	NA	0
18	Correct	149	635	797	8	0	0	621780	692	0	correct_rejection	NA	0
18	Correct	150	636	798	7	0	0	622489	692	0	correct_rejection	NA	0
18	Correct	151	637	799	9	0	0	623198	691	0	correct_rejection	NA	0
18	Correct	152	638	800	8	0	0	623906	692	0	correct_rejection	NA	0
18	Correct	153	639	801	7	0	0	624615	691	0	correct_rejection	NA	0
18	Correct	154	640	802	7	0	0	625323	692	0	correct_rejection	NA	0
18	Correct	155	641	803	8	0	0	626032	692	0	correct_rejection	NA	0
18	Correct	156	642	804	9	0	0	626740	692	0	correct_rejection	NA	0
18	Correct	157	643	805	7	0	0	627449	692	0	correct_rejection	NA	0
18	Correct	158	644	806	8	0	0	628158	691	0	correct_rejection	NA	0
18	Correct	159	645	807	9	0	0	628866	692	0	correct_rejection	NA	0
18	Correct	160	646	808	7	0	0	629575	691	0	correct_rejection	NA	0
18	Correct	161	647	809	8	0	0	630283	692	0	correct_rejection	NA	0
18	Correct	162	648	810	9	0	0	630992	692	0	correct_rejection	NA	0
trigger nr 623 at 633159
trigger nr 685 at 768132
18	Single	1	487	811	7	0	0	775315	691	0	correct_rejection	NA	7149
18	Single	2	488	812	4	0	0	776023	692	0	correct_rejection	NA	0
18	Single	3	489	813	5	0	0	776732	691	0	correct_rejection	NA	0
18	Single	4	490	814	0	1	1	777440	692	1	hit	409	0
18	Single	5	491	815	5	0	0	778149	692	0	correct_rejection	NA	0
18	Single	6	492	816	7	0	0	778857	692	0	correct_rejection	NA	0
18	Single	7	493	817	6	0	0	779566	692	0	correct_rejection	NA	0
18	Single	8	494	818	4	0	0	780275	691	0	correct_rejection	NA	0
18	Single	9	495	819	9	0	0	780983	692	0	correct_rejection	NA	0
18	Single	10	496	820	0	1	1	781692	691	1	hit	387	0
18	Single	11	497	821	5	0	0	782400	692	0	correct_rejection	NA	0
18	Single	12	498	822	9	0	0	783109	692	0	correct_rejection	NA	0
18	Single	13	499	823	0	1	1	783817	692	1	hit	441	0
18	Single	14	500	824	4	0	0	784526	692	0	correct_rejection	NA	0
18	Single	15	501	825	8	0	0	785235	691	0	correct_rejection	NA	0
18	Single	16	502	826	5	0	0	785943	692	0	correct_rejection	NA	0
18	Single	17	503	827	8	0	0	786652	691	0	correct_rejection	NA	0
18	Single	18	504	828	4	0	0	787360	692	0	correct_rejection	NA	0
18	Single	19	505	829	7	0	0	788069	692	0	correct_rejection	NA	0
18	Single	20	506	830	8	0	0	788777	692	0	correct_rejection	NA	0
18	Single	21	507	831	6	0	0	789486	692	0	correct_rejection	NA	0
18	Single	22	508	832	8	0	0	790195	691	0	correct_rejection	NA	0
18	Single	23	509	833	9	0	0	790903	692	0	correct_rejection	NA	0
18	Single	24	510	834	7	0	0	791612	691	0	correct_rejection	NA	0
18	Single	25	511	835	0	1	1	792320	692	1	hit	378	0
18	Single	26	512	836	5	0	0	793029	692	0	correct_rejection	NA	0
18	Single	27	513	837	6	0	0	793737	692	0	correct_rejection	NA	0
18	Single	28	514	838	9	0	0	794446	692	0	correct_rejection	NA	0
18	Single	29	515	839	6	0	0	795155	691	0	correct_rejection	NA	0
18	Single	30	516	840	6	0	0	795863	692	0	correct_rejection	NA	0
18	Single	31	517	841	5	0	0	796572	691	0	correct_rejection	NA	0
18	Single	32	518	842	4	0	0	797280	692	0	correct_rejection	NA	0
18	Single	33	519	843	4	0	0	797989	692	0	correct_rejection	NA	0
18	Single	34	520	844	0	1	1	798697	692	1	hit	433	0
18	Single	35	521	845	6	0	0	799406	692	0	correct_rejection	NA	0
18	Single	36	522	846	7	0	0	800115	691	0	correct_rejection	NA	0
18	Single	37	523	847	7	0	0	800823	692	0	correct_rejection	NA	0
18	Single	38	524	848	9	0	0	801532	691	0	correct_rejection	NA	0
18	Single	39	525	849	9	0	0	802240	692	0	correct_rejection	NA	0
18	Single	40	526	850	8	0	0	802949	692	0	correct_rejection	NA	0
18	Single	41	527	851	8	0	0	803657	692	0	correct_rejection	NA	0
18	Single	42	528	852	5	0	0	804366	692	0	correct_rejection	NA	0
18	Single	43	529	853	9	0	0	805075	691	0	correct_rejection	NA	0
18	Single	44	530	854	9	0	0	805783	692	0	correct_rejection	NA	0
18	Single	45	531	855	7	0	0	806492	691	0	correct_rejection	NA	0
18	Single	46	532	856	0	1	1	807200	692	1	hit	458	0
18	Single	47	533	857	9	0	0	807909	691	0	correct_rejection	NA	0
18	Single	48	534	858	5	0	0	808617	692	0	correct_rejection	NA	0
18	Single	49	535	859	5	0	0	809326	692	0	correct_rejection	NA	0
18	Single	50	536	860	0	1	1	810034	692	1	hit	487	0
18	Single	51	537	861	8	0	0	810743	692	0	correct_rejection	NA	0
18	Single	52	538	862	7	0	0	811452	691	0	correct_rejection	NA	0
18	Single	53	539	863	5	0	0	812160	692	0	correct_rejection	NA	0
18	Single	54	540	864	4	0	0	812869	691	0	correct_rejection	NA	0
18	Single	55	541	865	5	0	0	813577	692	0	correct_rejection	NA	0
18	Single	56	542	866	7	0	0	814286	692	0	correct_rejection	NA	0
18	Single	57	543	867	7	0	0	814994	692	0	correct_rejection	NA	0
18	Single	58	544	868	4	0	0	815703	692	0	correct_rejection	NA	0
18	Single	59	545	869	9	0	0	816412	691	0	correct_rejection	NA	0
18	Single	60	546	870	6	0	0	817120	692	0	correct_rejection	NA	0
18	Single	61	547	871	7	0	0	817829	691	0	correct_rejection	NA	0
18	Single	62	548	872	8	0	0	818537	692	0	correct_rejection	NA	0
18	Single	63	549	873	4	0	0	819246	692	0	correct_rejection	NA	0
18	Single	64	550	874	6	0	0	819954	692	0	correct_rejection	NA	0
18	Single	65	551	875	5	0	0	820663	692	0	correct_rejection	NA	0
18	Single	66	552	876	6	0	0	821372	691	0	correct_rejection	NA	0
18	Single	67	553	877	6	0	0	822080	692	0	correct_rejection	NA	0
18	Single	68	554	878	9	0	0	822789	691	0	correct_rejection	NA	0
18	Single	69	555	879	8	0	0	823497	692	0	correct_rejection	NA	0
18	Single	70	556	880	9	0	0	824206	692	0	correct_rejection	NA	0
18	Single	71	557	881	4	0	0	824914	692	0	correct_rejection	NA	0
18	Single	72	558	882	4	0	0	825623	692	0	correct_rejection	NA	0
18	Single	73	559	883	8	0	0	826332	691	0	correct_rejection	NA	0
18	Single	74	560	884	6	0	0	827040	692	0	correct_rejection	NA	0
18	Single	75	561	885	4	0	0	827749	691	0	correct_rejection	NA	0
18	Single	76	562	886	7	0	0	828457	692	0	correct_rejection	NA	0
18	Single	77	563	887	6	0	0	829166	692	0	correct_rejection	NA	0
18	Single	78	564	888	8	0	0	829874	692	0	correct_rejection	NA	0
18	Single	79	565	889	8	0	0	830583	692	0	correct_rejection	NA	0
18	Single	80	566	890	4	0	0	831292	691	0	correct_rejection	NA	0
18	Single	81	567	891	7	0	0	832000	692	0	correct_rejection	NA	0
18	Single	82	568	892	5	0	0	832709	691	0	correct_rejection	NA	0
18	Single	83	569	893	5	0	0	833417	692	0	correct_rejection	NA	0
18	Single	84	570	894	4	0	0	834126	692	0	correct_rejection	NA	0
18	Single	85	571	895	0	1	1	834834	692	1	hit	406	0
18	Single	86	572	896	8	0	0	835543	692	0	correct_rejection	NA	0
18	Single	87	573	897	9	0	0	836252	691	0	correct_rejection	NA	0
18	Single	88	574	898	0	1	1	836960	692	1	hit	561	0
18	Single	89	575	899	6	0	0	837669	691	0	correct_rejection	NA	0
18	Single	90	576	900	9	0	0	838377	692	0	correct_rejection	NA	0
18	Single	91	577	901	9	0	0	839086	691	0	correct_rejection	NA	0
18	Single	92	578	902	5	0	0	839794	692	0	correct_rejection	NA	0
18	Single	93	579	903	8	0	0	840503	692	0	correct_rejection	NA	0
18	Single	94	580	904	5	0	0	841211	692	0	correct_rejection	NA	0
18	Single	95	581	905	6	0	0	841920	692	0	correct_rejection	NA	0
18	Single	96	582	906	7	0	0	842629	691	0	correct_rejection	NA	0
18	Single	97	583	907	9	0	0	843337	692	0	correct_rejection	NA	0
18	Single	98	584	908	4	0	0	844046	691	0	correct_rejection	NA	0
18	Single	99	585	909	6	0	0	844754	692	0	correct_rejection	NA	0
18	Single	100	586	910	8	0	0	845463	692	0	correct_rejection	NA	0
18	Single	101	587	911	0	1	1	846171	692	1	hit	472	0
18	Single	102	588	912	4	0	0	846880	692	0	correct_rejection	NA	0
18	Single	103	589	913	5	0	0	847589	691	0	correct_rejection	NA	0
18	Single	104	590	914	9	0	0	848297	692	0	correct_rejection	NA	0
18	Single	105	591	915	8	0	0	849006	691	0	correct_rejection	NA	0
18	Single	106	592	916	7	0	0	849714	692	0	correct_rejection	NA	0
18	Single	107	593	917	0	1	1	850423	692	1	hit	502	0
18	Single	108	594	918	6	0	0	851131	692	0	correct_rejection	NA	0
18	Single	109	595	919	6	0	0	851840	692	0	correct_rejection	NA	0
18	Single	110	596	920	4	0	0	852549	691	0	correct_rejection	NA	0
18	Single	111	597	921	0	1	1	853257	692	1	hit	555	0
18	Single	112	598	922	4	0	0	853966	691	0	correct_rejection	NA	0
18	Single	113	599	923	9	0	0	854674	692	0	correct_rejection	NA	0
18	Single	114	600	924	7	0	0	855383	692	0	correct_rejection	NA	0
18	Single	115	601	925	7	0	0	856091	692	0	correct_rejection	NA	0
18	Single	116	602	926	0	1	1	856800	692	1	hit	513	0
18	Single	117	603	927	8	0	0	857509	691	0	correct_rejection	NA	0
18	Single	118	604	928	8	0	0	858217	692	0	correct_rejection	NA	0
18	Single	119	605	929	6	0	0	858926	691	0	correct_rejection	NA	0
18	Single	120	606	930	5	0	0	859634	692	0	correct_rejection	NA	0
18	Single	121	607	931	7	0	0	860343	692	0	correct_rejection	NA	0
18	Single	122	608	932	0	1	1	861051	692	1	hit	558	0
18	Single	123	609	933	7	0	0	861760	692	0	correct_rejection	NA	0
18	Single	124	610	934	8	0	0	862469	691	0	correct_rejection	NA	0
18	Single	125	611	935	5	0	0	863177	692	0	correct_rejection	NA	0
18	Single	126	612	936	0	1	1	863886	691	1	hit	403	0
18	Single	127	613	937	7	0	0	864594	692	0	correct_rejection	NA	0
18	Single	128	614	938	6	0	0	865303	691	0	correct_rejection	NA	0
18	Single	129	615	939	4	0	0	866011	692	0	correct_rejection	NA	0
18	Single	130	616	940	5	0	0	866720	692	0	correct_rejection	NA	0
18	Single	131	617	941	5	0	0	867429	691	0	correct_rejection	NA	0
18	Single	132	618	942	6	0	0	868137	692	0	correct_rejection	NA	0
18	Single	133	619	943	8	0	0	868846	691	0	correct_rejection	NA	0
18	Single	134	620	944	0	1	1	869554	692	1	hit	455	0
18	Single	135	621	945	6	0	0	870263	691	0	correct_rejection	NA	0
18	Single	136	622	946	9	0	0	870971	692	0	correct_rejection	NA	0
18	Single	137	623	947	4	0	0	871680	692	0	correct_rejection	NA	0
18	Single	138	624	948	8	0	0	872388	692	0	correct_rejection	NA	0
18	Single	139	625	949	7	0	0	873097	692	0	correct_rejection	NA	0
18	Single	140	626	950	0	1	1	873806	691	1	hit	398	0
18	Single	141	627	951	4	0	0	874514	692	0	correct_rejection	NA	0
18	Single	142	628	952	6	0	0	875223	691	0	correct_rejection	NA	0
18	Single	143	629	953	6	0	0	875931	692	0	correct_rejection	NA	0
18	Single	144	630	954	7	0	0	876640	692	0	correct_rejection	NA	0
18	Single	145	631	955	5	0	0	877348	692	0	correct_rejection	NA	0
18	Single	146	632	956	8	0	0	878057	692	0	correct_rejection	NA	0
18	Single	147	633	957	9	0	0	878766	691	0	correct_rejection	NA	0
18	Single	148	634	958	8	0	0	879474	692	0	correct_rejection	NA	0
18	Single	149	635	959	8	0	0	880183	691	0	correct_rejection	NA	0
18	Single	150	636	960	4	0	0	880891	692	0	correct_rejection	NA	0
18	Single	151	637	961	9	0	0	881600	692	0	correct_rejection	NA	0
18	Single	152	638	962	5	0	0	882308	692	0	correct_rejection	NA	0
18	Single	153	639	963	4	0	0	883017	692	0	correct_rejection	NA	0
18	Single	154	640	964	4	0	0	883726	691	0	correct_rejection	NA	0
18	Single	155	641	965	7	0	0	884434	692	0	correct_rejection	NA	0
18	Single	156	642	966	9	0	0	885143	691	0	correct_rejection	NA	0
18	Single	157	643	967	9	0	0	885851	692	0	correct_rejection	NA	0
18	Single	158	644	968	6	0	0	886560	692	0	correct_rejection	NA	0
18	Single	159	645	969	5	0	0	887268	692	0	correct_rejection	NA	0
18	Single	160	646	970	0	1	1	887977	692	1	hit	411	0
18	Single	161	647	971	9	0	0	888686	691	0	correct_rejection	NA	0
18	Single	162	648	972	7	0	0	889394	692	0	correct_rejection	NA	0
18	Triplet	1	1	973	9	0	0	898997	692	0	correct_rejection	NA	7828
18	Triplet	2	2	974	8	0	0	899706	692	0	correct_rejection	NA	0
18	Triplet	3	3	975	7	0	0	900414	692	0	correct_rejection	NA	0
18	Triplet	4	4	976	6	0	0	901123	692	0	correct_rejection	NA	0
18	Triplet	5	5	977	5	0	0	901832	691	0	correct_rejection	NA	0
18	Triplet	6	6	978	4	0	0	902540	692	0	correct_rejection	NA	0
18	Triplet	7	7	979	7	0	0	903249	691	0	correct_rejection	NA	0
18	Triplet	8	8	980	8	0	0	903957	692	0	correct_rejection	NA	0
18	Triplet	9	9	981	9	0	0	904666	692	0	correct_rejection	NA	0
18	Triplet	10	10	982	7	0	0	905374	692	0	correct_rejection	NA	0
18	Triplet	11	11	983	8	0	0	906083	692	0	correct_rejection	NA	0
18	Triplet	12	12	984	9	0	0	906792	691	0	correct_rejection	NA	0
18	Triplet	13	13	985	0	1	2	907500	692	1	hit	540	0
18	Triplet	14	14	986	4	0	0	908209	691	0	correct_rejection	NA	0
18	Triplet	15	15	987	5	0	0	908917	692	0	correct_rejection	NA	0
18	Triplet	16	16	988	0	1	1	909626	692	1	hit	495	0
18	Triplet	17	17	989	6	0	0	910334	692	0	correct_rejection	NA	0
18	Triplet	18	18	990	6	0	0	911043	692	0	correct_rejection	NA	0
18	Triplet	19	19	991	0	1	1	911752	691	0	miss	NA	0
18	Triplet	20	20	992	5	0	0	912460	692	1	false_alarm	76	0
18	Triplet	21	21	993	4	0	0	913169	691	0	correct_rejection	NA	0
18	Triplet	22	22	994	4	0	0	913877	692	0	correct_rejection	NA	0
18	Triplet	23	23	995	5	0	0	914586	692	0	correct_rejection	NA	0
18	Triplet	24	24	996	6	0	0	915294	692	0	correct_rejection	NA	0
18	Triplet	25	25	997	0	1	2	916003	692	1	hit	325	0
18	Triplet	26	26	998	7	0	0	916712	691	0	correct_rejection	NA	0
18	Triplet	27	27	999	8	0	0	917420	692	0	correct_rejection	NA	0
18	Triplet	28	28	1000	9	0	0	918129	691	0	correct_rejection	NA	0
18	Triplet	29	29	1001	9	0	0	918837	692	0	correct_rejection	NA	0
18	Triplet	30	30	1002	8	0	0	919546	691	0	correct_rejection	NA	0
18	Triplet	31	31	1003	7	0	0	920254	692	0	correct_rejection	NA	0
18	Triplet	32	32	1004	7	0	0	920963	692	0	correct_rejection	NA	0
18	Triplet	33	33	1005	8	0	0	921671	692	0	correct_rejection	NA	0
18	Triplet	34	34	1006	9	0	0	922380	692	0	correct_rejection	NA	0
18	Triplet	35	35	1007	6	0	0	923089	691	0	correct_rejection	NA	0
18	Triplet	36	36	1008	5	0	0	923797	692	0	correct_rejection	NA	0
18	Triplet	37	37	1009	4	0	0	924506	691	0	correct_rejection	NA	0
18	Triplet	38	38	1010	6	0	0	925214	692	0	correct_rejection	NA	0
18	Triplet	39	39	1011	5	0	0	925923	692	0	correct_rejection	NA	0
18	Triplet	40	40	1012	4	0	0	926631	692	0	correct_rejection	NA	0
18	Triplet	41	41	1013	9	0	0	927340	692	0	correct_rejection	NA	0
18	Triplet	42	42	1014	8	0	0	928049	691	0	correct_rejection	NA	0
18	Triplet	43	43	1015	7	0	0	928757	692	0	correct_rejection	NA	0
18	Triplet	44	44	1016	9	0	0	929466	691	0	correct_rejection	NA	0
18	Triplet	45	45	1017	8	0	0	930174	692	0	correct_rejection	NA	0
18	Triplet	46	46	1018	7	0	0	930883	692	0	correct_rejection	NA	0
18	Triplet	47	47	1019	0	1	2	931591	692	1	hit	375	0
18	Triplet	48	48	1020	4	0	0	932300	692	0	correct_rejection	NA	0
18	Triplet	49	49	1021	5	0	0	933009	691	0	correct_rejection	NA	0
18	Triplet	50	50	1022	0	1	1	933717	692	1	hit	461	0
18	Triplet	51	51	1023	6	0	0	934426	691	0	correct_rejection	NA	0
18	Triplet	52	52	1024	4	0	0	935134	692	0	correct_rejection	NA	0
18	Triplet	53	53	1025	5	0	0	935843	692	0	correct_rejection	NA	0
18	Triplet	54	54	1026	6	0	0	936551	692	0	correct_rejection	NA	0
18	Triplet	55	55	1027	9	0	0	937260	692	0	correct_rejection	NA	0
18	Triplet	56	56	1028	8	0	0	937969	691	0	correct_rejection	NA	0
18	Triplet	57	57	1029	7	0	0	938677	692	0	correct_rejection	NA	0
18	Triplet	58	58	1030	4	0	0	939386	691	0	correct_rejection	NA	0
18	Triplet	59	59	1031	5	0	0	940094	692	0	correct_rejection	NA	0
18	Triplet	60	60	1032	6	0	0	940803	692	0	correct_rejection	NA	0
18	Triplet	61	61	1033	0	1	2	941511	692	1	hit	432	0
18	Triplet	62	62	1034	6	0	0	942220	692	0	correct_rejection	NA	0
18	Triplet	63	63	1035	5	0	0	942929	691	0	correct_rejection	NA	0
18	Triplet	64	64	1036	0	1	1	943637	692	1	hit	463	0
18	Triplet	65	65	1037	4	0	0	944346	691	0	correct_rejection	NA	0
18	Triplet	66	66	1038	6	0	0	945054	692	0	correct_rejection	NA	0
18	Triplet	67	67	1039	5	0	0	945763	691	0	correct_rejection	NA	0
18	Triplet	68	68	1040	4	0	0	946471	692	0	correct_rejection	NA	0
18	Triplet	69	69	1041	0	1	2	947180	692	1	hit	379	0
18	Triplet	70	70	1042	7	0	0	947889	691	0	correct_rejection	NA	0
18	Triplet	71	71	1043	8	0	0	948597	692	0	correct_rejection	NA	0
18	Triplet	72	72	1044	0	1	1	949306	691	1	hit	512	0
18	Triplet	73	73	1045	9	0	0	950014	692	0	correct_rejection	NA	0
18	Triplet	74	74	1046	4	0	0	950723	691	0	correct_rejection	NA	0
18	Triplet	75	75	1047	0	1	1	951431	692	1	hit	382	0
18	Triplet	76	76	1048	5	0	0	952140	692	0	correct_rejection	NA	0
18	Triplet	77	77	1049	6	0	0	952848	692	0	correct_rejection	NA	0
18	Triplet	78	78	1050	9	0	0	953557	692	0	correct_rejection	NA	0
18	Triplet	79	79	1051	8	0	0	954266	691	0	correct_rejection	NA	0
18	Triplet	80	80	1052	7	0	0	954974	692	0	correct_rejection	NA	0
18	Triplet	81	81	1053	7	0	0	955683	691	0	correct_rejection	NA	0
18	Triplet	82	82	1054	8	0	0	956391	692	0	correct_rejection	NA	0
18	Triplet	83	83	1055	9	0	0	957100	692	0	correct_rejection	NA	0
18	Triplet	84	84	1056	0	1	2	957808	692	1	hit	395	0
18	Triplet	85	85	1057	9	0	0	958517	692	0	correct_rejection	NA	0
18	Triplet	86	86	1058	8	0	0	959226	691	0	correct_rejection	NA	0
18	Triplet	87	87	1059	7	0	0	959934	692	0	correct_rejection	NA	0
18	Triplet	88	88	1060	6	0	0	960643	691	0	correct_rejection	NA	0
18	Triplet	89	89	1061	5	0	0	961351	692	0	correct_rejection	NA	0
18	Triplet	90	90	1062	4	0	0	962060	692	0	correct_rejection	NA	0
18	Triplet	91	91	1063	4	0	0	962768	692	0	correct_rejection	NA	0
18	Triplet	92	92	1064	5	0	0	963477	692	0	correct_rejection	NA	0
18	Triplet	93	93	1065	6	0	0	964186	691	0	correct_rejection	NA	0
18	Triplet	94	94	1066	4	0	0	964894	692	0	correct_rejection	NA	0
18	Triplet	95	95	1067	0	1	1	965603	691	1	hit	349	0
18	Triplet	96	96	1068	5	0	0	966311	692	0	correct_rejection	NA	0
18	Triplet	97	97	1069	6	0	0	967020	692	0	correct_rejection	NA	0
18	Triplet	98	98	1070	7	0	0	967728	692	0	correct_rejection	NA	0
18	Triplet	99	99	1071	8	0	0	968437	692	0	correct_rejection	NA	0
18	Triplet	100	100	1072	9	0	0	969146	691	0	correct_rejection	NA	0
18	Triplet	101	101	1073	7	0	0	969854	692	0	correct_rejection	NA	0
18	Triplet	102	102	1074	8	0	0	970563	691	0	correct_rejection	NA	0
18	Triplet	103	103	1075	9	0	0	971271	692	0	correct_rejection	NA	0
18	Triplet	104	104	1076	6	0	0	971980	692	0	correct_rejection	NA	0
18	Triplet	105	105	1077	5	0	0	972688	692	0	correct_rejection	NA	0
18	Triplet	106	106	1078	4	0	0	973397	692	0	correct_rejection	NA	0
18	Triplet	107	107	1079	9	0	0	974106	691	0	correct_rejection	NA	0
18	Triplet	108	108	1080	8	0	0	974814	692	0	correct_rejection	NA	0
18	Triplet	109	109	1081	0	1	1	975523	691	1	hit	460	0
18	Triplet	110	110	1082	7	0	0	976231	692	0	correct_rejection	NA	0
18	Triplet	111	111	1083	7	0	0	976940	691	0	correct_rejection	NA	0
18	Triplet	112	112	1084	8	0	0	977648	692	0	correct_rejection	NA	0
18	Triplet	113	113	1085	9	0	0	978357	692	1	false_alarm	375	0
18	Triplet	114	114	1086	4	0	0	979066	691	0	correct_rejection	NA	0
18	Triplet	115	115	1087	5	0	0	979774	692	0	correct_rejection	NA	0
18	Triplet	116	116	1088	6	0	0	980483	691	0	correct_rejection	NA	0
18	Triplet	117	117	1089	4	0	0	981191	692	0	correct_rejection	NA	0
18	Triplet	118	118	1090	5	0	0	981900	691	0	correct_rejection	NA	0
18	Triplet	119	119	1091	6	0	0	982608	692	0	correct_rejection	NA	0
18	Triplet	120	120	1092	0	1	2	983317	692	1	hit	419	0
18	Triplet	121	121	1093	9	0	0	984025	692	0	correct_rejection	NA	0
18	Triplet	122	122	1094	8	0	0	984734	692	0	correct_rejection	NA	0
18	Triplet	123	123	1095	7	0	0	985443	691	0	correct_rejection	NA	0
18	Triplet	124	124	1096	4	0	0	986151	692	0	correct_rejection	NA	0
18	Triplet	125	125	1097	5	0	0	986860	691	0	correct_rejection	NA	0
18	Triplet	126	126	1098	6	0	0	987568	692	0	correct_rejection	NA	0
18	Triplet	127	127	1099	7	0	0	988277	692	0	correct_rejection	NA	0
18	Triplet	128	128	1100	8	0	0	988985	692	0	correct_rejection	NA	0
18	Triplet	129	129	1101	0	1	1	989694	692	1	hit	418	0
18	Triplet	130	130	1102	9	0	0	990403	691	0	correct_rejection	NA	0
18	Triplet	131	131	1103	6	0	0	991111	692	0	correct_rejection	NA	0
18	Triplet	132	132	1104	5	0	0	991820	691	0	correct_rejection	NA	0
18	Triplet	133	133	1105	4	0	0	992528	692	0	correct_rejection	NA	0
18	Triplet	134	134	1106	0	1	2	993237	692	1	hit	494	0
18	Triplet	135	135	1107	4	0	0	993945	692	0	correct_rejection	NA	0
18	Triplet	136	136	1108	5	0	0	994654	692	0	correct_rejection	NA	0
18	Triplet	137	137	1109	6	0	0	995363	691	0	correct_rejection	NA	0
18	Triplet	138	138	1110	6	0	0	996071	692	0	correct_rejection	NA	0
18	Triplet	139	139	1111	5	0	0	996780	691	0	correct_rejection	NA	0
18	Triplet	140	140	1112	4	0	0	997488	692	0	correct_rejection	NA	0
18	Triplet	141	141	1113	9	0	0	998197	692	0	correct_rejection	NA	0
18	Triplet	142	142	1114	8	0	0	998905	692	0	correct_rejection	NA	0
18	Triplet	143	143	1115	7	0	0	999614	692	0	correct_rejection	NA	0
18	Triplet	144	144	1116	7	0	0	1000323	691	0	correct_rejection	NA	0
18	Triplet	145	145	1117	8	0	0	1001031	692	0	correct_rejection	NA	0
18	Triplet	146	146	1118	9	0	0	1001740	691	0	correct_rejection	NA	0
18	Triplet	147	147	1119	7	0	0	1002448	692	0	correct_rejection	NA	0
18	Triplet	148	148	1120	8	0	0	1003157	692	0	correct_rejection	NA	0
18	Triplet	149	149	1121	9	0	0	1003865	692	0	correct_rejection	NA	0
18	Triplet	150	150	1122	9	0	0	1004574	692	0	correct_rejection	NA	0
18	Triplet	151	151	1123	0	1	1	1005283	691	1	hit	503	0
18	Triplet	152	152	1124	8	0	0	1005991	692	0	correct_rejection	NA	0
18	Triplet	153	153	1125	7	0	0	1006700	691	0	correct_rejection	NA	0
18	Triplet	154	154	1126	9	0	0	1007408	692	0	correct_rejection	NA	0
18	Triplet	155	155	1127	8	0	0	1008117	691	0	correct_rejection	NA	0
18	Triplet	156	156	1128	7	0	0	1008825	692	0	correct_rejection	NA	0
18	Triplet	157	157	1129	6	0	0	1009534	692	0	correct_rejection	NA	0
18	Triplet	158	158	1130	5	0	0	1010242	692	0	correct_rejection	NA	0
18	Triplet	159	159	1131	4	0	0	1010951	692	0	correct_rejection	NA	0
18	Triplet	160	160	1132	6	0	0	1011660	691	0	correct_rejection	NA	0
18	Triplet	161	161	1133	5	0	0	1012368	692	0	correct_rejection	NA	0
18	Triplet	162	162	1134	4	0	0	1013077	691	0	correct_rejection	NA	0
18	Correct	1	1	1135	4	0	0	1022263	692	0	correct_rejection	NA	7099
18	Correct	2	2	1136	5	0	0	1022972	691	0	correct_rejection	NA	0
18	Correct	3	3	1137	6	0	0	1023680	692	0	correct_rejection	NA	0
18	Correct	4	4	1138	0	1	2	1024389	692	1	hit	543	0
18	Correct	5	5	1139	4	0	0	1025097	692	0	correct_rejection	NA	0
18	Correct	6	6	1140	5	0	0	1025806	692	0	correct_rejection	NA	0
18	Correct	7	7	1141	6	0	0	1026515	691	0	correct_rejection	NA	0
18	Correct	8	8	1142	4	0	0	1027223	692	0	correct_rejection	NA	0
18	Correct	9	9	1143	5	0	0	1027932	691	0	correct_rejection	NA	0
18	Correct	10	10	1144	6	0	0	1028640	692	0	correct_rejection	NA	0
18	Correct	11	11	1145	0	1	3	1029349	692	1	hit	413	0
18	Correct	12	12	1146	6	0	0	1030057	692	0	correct_rejection	NA	0
18	Correct	13	13	1147	5	0	0	1030766	692	0	correct_rejection	NA	0
18	Correct	14	14	1148	4	0	0	1031475	691	0	correct_rejection	NA	0
18	Correct	15	15	1149	6	0	0	1032183	692	0	correct_rejection	NA	0
18	Correct	16	16	1150	0	1	1	1032892	691	1	hit	432	0
18	Correct	17	17	1151	5	0	0	1033600	692	0	correct_rejection	NA	0
18	Correct	18	18	1152	4	0	0	1034309	691	0	correct_rejection	NA	0
18	Correct	19	19	1153	6	0	0	1035017	692	0	correct_rejection	NA	0
18	Correct	20	20	1154	5	0	0	1035726	692	0	correct_rejection	NA	0
18	Correct	21	21	1155	4	0	0	1036435	691	0	correct_rejection	NA	0
18	Correct	22	22	1156	9	0	0	1037143	692	0	correct_rejection	NA	0
18	Correct	23	23	1157	8	0	0	1037852	691	0	correct_rejection	NA	0
18	Correct	24	24	1158	7	0	0	1038560	692	0	correct_rejection	NA	0
18	Correct	25	25	1159	9	0	0	1039269	691	0	correct_rejection	NA	0
18	Correct	26	26	1160	8	0	0	1039977	692	0	correct_rejection	NA	0
18	Correct	27	27	1161	7	0	0	1040686	692	0	correct_rejection	NA	0
18	Correct	28	28	1162	0	1	2	1041394	692	1	hit	386	0
18	Correct	29	29	1163	9	0	0	1042103	692	0	correct_rejection	NA	0
18	Correct	30	30	1164	8	0	0	1042812	691	0	correct_rejection	NA	0
18	Correct	31	31	1165	7	0	0	1043520	692	0	correct_rejection	NA	0
18	Correct	32	32	1166	7	0	0	1044229	691	0	correct_rejection	NA	0
18	Correct	33	33	1167	8	0	0	1044937	692	0	correct_rejection	NA	0
18	Correct	34	34	1168	9	0	0	1045646	692	0	correct_rejection	NA	0
18	Correct	35	35	1169	7	0	0	1046354	692	0	correct_rejection	NA	0
18	Correct	36	36	1170	8	0	0	1047063	692	0	correct_rejection	NA	0
18	Correct	37	37	1171	9	0	0	1047772	691	0	correct_rejection	NA	0
18	Correct	38	38	1172	7	0	0	1048480	692	0	correct_rejection	NA	0
18	Correct	39	39	1173	8	0	0	1049189	691	0	correct_rejection	NA	0
18	Correct	40	40	1174	9	0	0	1049897	692	0	correct_rejection	NA	0
18	Correct	41	41	1175	0	1	4	1050606	692	1	hit	494	0
18	Correct	42	42	1176	4	0	0	1051314	692	0	correct_rejection	NA	0
18	Correct	43	43	1177	5	0	0	1052023	692	0	correct_rejection	NA	0
18	Correct	44	44	1178	0	1	1	1052732	691	1	hit	517	0
18	Correct	45	45	1179	6	0	0	1053440	692	0	correct_rejection	NA	0
18	Correct	46	46	1180	4	0	0	1054149	691	0	correct_rejection	NA	0
18	Correct	47	47	1181	5	0	0	1054857	692	0	correct_rejection	NA	0
18	Correct	48	48	1182	6	0	0	1055566	692	0	correct_rejection	NA	0
18	Correct	49	49	1183	4	0	0	1056274	692	0	correct_rejection	NA	0
18	Correct	50	50	1184	5	0	0	1056983	692	0	correct_rejection	NA	0
18	Correct	51	51	1185	6	0	0	1057692	691	0	correct_rejection	NA	0
18	Correct	52	52	1186	6	0	0	1058400	692	0	correct_rejection	NA	0
18	Correct	53	53	1187	5	0	0	1059109	691	0	correct_rejection	NA	0
18	Correct	54	54	1188	4	0	0	1059817	692	0	correct_rejection	NA	0
18	Correct	55	55	1189	6	0	0	1060526	692	0	correct_rejection	NA	0
18	Correct	56	56	1190	5	0	0	1061234	692	0	correct_rejection	NA	0
18	Correct	57	57	1191	4	0	0	1061943	692	0	correct_rejection	NA	0
18	Correct	58	58	1192	6	0	0	1062652	691	0	correct_rejection	NA	0
18	Correct	59	59	1193	5	0	0	1063360	692	0	correct_rejection	NA	0
18	Correct	60	60	1194	4	0	0	1064069	691	0	correct_rejection	NA	0
18	Correct	61	61	1195	9	0	0	1064777	692	0	correct_rejection	NA	0
18	Correct	62	62	1196	8	0	0	1065486	691	0	correct_rejection	NA	0
18	Correct	63	63	1197	7	0	0	1066194	692	0	correct_rejection	NA	0
18	Correct	64	64	1198	9	0	0	1066903	692	0	correct_rejection	NA	0
18	Correct	65	65	1199	8	0	0	1067611	692	0	correct_rejection	NA	0
18	Correct	66	66	1200	7	0	0	1068320	692	0	correct_rejection	NA	0
18	Correct	67	67	1201	9	0	0	1069029	691	0	correct_rejection	NA	0
18	Correct	68	68	1202	8	0	0	1069737	692	0	correct_rejection	NA	0
18	Correct	69	69	1203	7	0	0	1070446	691	0	correct_rejection	NA	0
18	Correct	70	70	1204	7	0	0	1071154	692	0	correct_rejection	NA	0
18	Correct	71	71	1205	8	0	0	1071863	692	0	correct_rejection	NA	0
18	Correct	72	72	1206	9	0	0	1072571	692	0	correct_rejection	NA	0
18	Correct	73	73	1207	7	0	0	1073280	692	0	correct_rejection	NA	0
18	Correct	74	74	1208	8	0	0	1073989	691	0	correct_rejection	NA	0
18	Correct	75	75	1209	9	0	0	1074697	692	0	correct_rejection	NA	0
18	Correct	76	76	1210	7	0	0	1075406	691	0	correct_rejection	NA	0
18	Correct	77	77	1211	8	0	0	1076114	692	0	correct_rejection	NA	0
18	Correct	78	78	1212	9	0	0	1076823	692	0	correct_rejection	NA	0
18	Correct	79	79	1213	4	0	0	1077531	692	0	correct_rejection	NA	0
18	Correct	80	80	1214	0	1	1	1078240	692	1	hit	480	0
18	Correct	81	81	1215	5	0	0	1078949	691	0	correct_rejection	NA	0
18	Correct	82	82	1216	6	0	0	1079657	692	0	correct_rejection	NA	0
18	Correct	83	83	1217	4	0	0	1080366	691	0	correct_rejection	NA	0
18	Correct	84	84	1218	5	0	0	1081074	692	0	correct_rejection	NA	0
18	Correct	85	85	1219	6	0	0	1081783	692	0	correct_rejection	NA	0
18	Correct	86	86	1220	4	0	0	1082491	692	0	correct_rejection	NA	0
18	Correct	87	87	1221	0	1	1	1083200	692	1	hit	386	0
18	Correct	88	88	1222	5	0	0	1083909	691	0	correct_rejection	NA	0
18	Correct	89	89	1223	6	0	0	1084617	692	0	correct_rejection	NA	0
18	Correct	90	90	1224	6	0	0	1085326	691	0	correct_rejection	NA	0
18	Correct	91	91	1225	5	0	0	1086034	692	0	correct_rejection	NA	0
18	Correct	92	92	1226	0	1	1	1086743	692	1	hit	468	0
18	Correct	93	93	1227	4	0	0	1087451	692	0	correct_rejection	NA	0
18	Correct	94	94	1228	6	0	0	1088160	692	0	correct_rejection	NA	0
18	Correct	95	95	1229	5	0	0	1088869	691	0	correct_rejection	NA	0
18	Correct	96	96	1230	0	1	1	1089577	692	1	hit	474	0
18	Correct	97	97	1231	4	0	0	1090286	691	0	correct_rejection	NA	0
18	Correct	98	98	1232	6	0	0	1090994	692	0	correct_rejection	NA	0
18	Correct	99	99	1233	5	0	0	1091703	692	0	correct_rejection	NA	0
18	Correct	100	100	1234	4	0	0	1092411	692	0	correct_rejection	NA	0
18	Correct	101	101	1235	9	0	0	1093120	692	0	correct_rejection	NA	0
18	Correct	102	102	1236	0	1	1	1093829	691	1	hit	565	0
18	Correct	103	103	1237	8	0	0	1094537	692	0	correct_rejection	NA	0
18	Correct	104	104	1238	7	0	0	1095246	691	0	correct_rejection	NA	0
18	Correct	105	105	1239	9	0	0	1095954	692	0	correct_rejection	NA	0
18	Correct	106	106	1240	8	0	0	1096663	691	0	correct_rejection	NA	0
18	Correct	107	107	1241	7	0	0	1097371	692	0	correct_rejection	NA	0
18	Correct	108	108	1242	9	0	0	1098080	692	0	correct_rejection	NA	0
18	Correct	109	109	1243	8	0	0	1098788	692	0	correct_rejection	NA	0
18	Correct	110	110	1244	0	1	1	1099497	692	1	hit	476	0
18	Correct	111	111	1245	7	0	0	1100206	691	0	correct_rejection	NA	0
18	Correct	112	112	1246	7	0	0	1100914	692	0	correct_rejection	NA	0
18	Correct	113	113	1247	8	0	0	1101623	691	0	correct_rejection	NA	0
18	Correct	114	114	1248	9	0	0	1102331	692	0	correct_rejection	NA	0
18	Correct	115	115	1249	7	0	0	1103040	692	0	correct_rejection	NA	0
18	Correct	116	116	1250	8	0	0	1103748	692	0	correct_rejection	NA	0
18	Correct	117	117	1251	9	0	0	1104457	692	0	correct_rejection	NA	0
18	Correct	118	118	1252	7	0	0	1105166	691	0	correct_rejection	NA	0
18	Correct	119	119	1253	8	0	0	1105874	692	0	correct_rejection	NA	0
18	Correct	120	120	1254	0	1	1	1106583	691	1	hit	480	0
18	Correct	121	121	1255	9	0	0	1107291	692	0	correct_rejection	NA	0
18	Correct	122	122	1256	4	0	0	1108000	692	0	correct_rejection	NA	0
18	Correct	123	123	1257	5	0	0	1108708	692	0	correct_rejection	NA	0
18	Correct	124	124	1258	6	0	0	1109417	692	0	correct_rejection	NA	0
18	Correct	125	125	1259	4	0	0	1110126	691	0	correct_rejection	NA	0
18	Correct	126	126	1260	5	0	0	1110834	692	0	correct_rejection	NA	0
18	Correct	127	127	1261	6	0	0	1111543	691	0	correct_rejection	NA	0
18	Correct	128	128	1262	4	0	0	1112251	692	0	correct_rejection	NA	0
18	Correct	129	129	1263	5	0	0	1112960	692	0	correct_rejection	NA	0
18	Correct	130	130	1264	0	1	1	1113668	692	1	hit	456	0
18	Correct	131	131	1265	6	0	0	1114377	692	0	correct_rejection	NA	0
18	Correct	132	132	1266	6	0	0	1115086	691	0	correct_rejection	NA	0
18	Correct	133	133	1267	0	1	1	1115794	692	1	hit	519	0
18	Correct	134	134	1268	5	0	0	1116503	691	0	correct_rejection	NA	0
18	Correct	135	135	1269	4	0	0	1117211	692	0	correct_rejection	NA	0
18	Correct	136	136	1270	6	0	0	1117920	692	0	correct_rejection	NA	0
18	Correct	137	137	1271	5	0	0	1118628	692	0	correct_rejection	NA	0
18	Correct	138	138	1272	4	0	0	1119337	692	0	correct_rejection	NA	0
18	Correct	139	139	1273	0	1	2	1120046	691	1	hit	493	0
18	Correct	140	140	1274	6	0	0	1120754	692	0	correct_rejection	NA	0
18	Correct	141	141	1275	5	0	0	1121463	691	0	correct_rejection	NA	0
18	Correct	142	142	1276	4	0	0	1122171	692	0	correct_rejection	NA	0
18	Correct	143	143	1277	9	0	0	1122880	692	0	correct_rejection	NA	0
18	Correct	144	144	1278	8	0	0	1123588	692	0	correct_rejection	NA	0
18	Correct	145	145	1279	7	0	0	1124297	692	0	correct_rejection	NA	0
18	Correct	146	146	1280	9	0	0	1125006	691	0	correct_rejection	NA	0
18	Correct	147	147	1281	8	0	0	1125714	692	0	correct_rejection	NA	0
18	Correct	148	148	1282	7	0	0	1126423	691	0	correct_rejection	NA	0
18	Correct	149	149	1283	9	0	0	1127131	692	0	correct_rejection	NA	0
18	Correct	150	150	1284	0	1	1	1127840	691	1	hit	519	0
18	Correct	151	151	1285	8	0	0	1128548	692	0	correct_rejection	NA	0
18	Correct	152	152	1286	7	0	0	1129257	692	0	correct_rejection	NA	0
18	Correct	153	153	1287	7	0	0	1129965	692	0	correct_rejection	NA	0
18	Correct	154	154	1288	8	0	0	1130674	692	0	correct_rejection	NA	0
18	Correct	155	155	1289	9	0	0	1131383	691	0	correct_rejection	NA	0
18	Correct	156	156	1290	0	1	2	1132091	692	1	hit	497	0
18	Correct	157	157	1291	7	0	0	1132800	691	0	correct_rejection	NA	0
18	Correct	158	158	1292	8	0	0	1133508	692	0	correct_rejection	NA	0
18	Correct	159	159	1293	9	0	0	1134217	692	0	correct_rejection	NA	0
18	Correct	160	160	1294	7	0	0	1134925	692	0	correct_rejection	NA	0
18	Correct	161	161	1295	8	0	0	1135634	692	0	correct_rejection	NA	0
18	Correct	162	162	1296	9	0	0	1136343	691	0	correct_rejection	NA	0
18	Triplet	1	487	1297	6	0	0	1145379	692	0	correct_rejection	NA	7219
18	Triplet	2	488	1298	5	0	0	1146088	691	0	correct_rejection	NA	0
18	Triplet	3	489	1299	4	0	0	1146796	692	0	correct_rejection	NA	0
18	Triplet	4	490	1300	4	0	0	1147505	691	0	correct_rejection	NA	0
18	Triplet	5	491	1301	5	0	0	1148213	692	0	correct_rejection	NA	0
18	Triplet	6	492	1302	6	0	0	1148922	691	0	correct_rejection	NA	0
18	Triplet	7	493	1303	9	0	0	1149630	692	0	correct_rejection	NA	0
18	Triplet	8	494	1304	8	0	0	1150339	692	0	correct_rejection	NA	0
18	Triplet	9	495	1305	7	0	0	1151047	692	0	correct_rejection	NA	0
18	Triplet	10	496	1306	0	1	2	1151756	692	1	hit	633	0
18	Triplet	11	497	1307	4	0	0	1152465	691	0	correct_rejection	NA	0
18	Triplet	12	498	1308	5	0	0	1153173	692	0	correct_rejection	NA	0
18	Triplet	13	499	1309	0	1	1	1153882	691	1	hit	436	0
18	Triplet	14	500	1310	6	0	0	1154590	692	0	correct_rejection	NA	0
18	Triplet	15	501	1311	6	0	0	1155299	692	0	correct_rejection	NA	0
18	Triplet	16	502	1312	5	0	0	1156007	692	0	correct_rejection	NA	0
18	Triplet	17	503	1313	0	1	1	1156716	692	1	hit	467	0
18	Triplet	18	504	1314	4	0	0	1157425	691	0	correct_rejection	NA	0
18	Triplet	19	505	1315	6	0	0	1158133	692	0	correct_rejection	NA	0
18	Triplet	20	506	1316	5	0	0	1158842	691	0	correct_rejection	NA	0
18	Triplet	21	507	1317	4	0	0	1159550	692	0	correct_rejection	NA	0
18	Triplet	22	508	1318	7	0	0	1160259	692	0	correct_rejection	NA	0
18	Triplet	23	509	1319	0	1	1	1160967	692	1	hit	498	0
18	Triplet	24	510	1320	8	0	0	1161676	692	0	correct_rejection	NA	0
18	Triplet	25	511	1321	9	0	0	1162385	691	0	correct_rejection	NA	0
18	Triplet	26	512	1322	6	0	0	1163093	692	0	correct_rejection	NA	0
18	Triplet	27	513	1323	0	1	1	1163802	691	0	miss	NA	0
18	Triplet	28	514	1324	5	0	0	1164510	692	1	false_alarm	4	0
18	Triplet	29	515	1325	4	0	0	1165219	692	0	correct_rejection	NA	0
18	Triplet	30	516	1326	9	0	0	1165927	692	0	correct_rejection	NA	0
18	Triplet	31	517	1327	0	1	1	1166636	692	1	hit	511	0
18	Triplet	32	518	1328	8	0	0	1167345	691	0	correct_rejection	NA	0
18	Triplet	33	519	1329	7	0	0	1168053	692	0	correct_rejection	NA	0
18	Triplet	34	520	1330	9	0	0	1168762	691	0	correct_rejection	NA	0
18	Triplet	35	521	1331	8	0	0	1169470	692	0	correct_rejection	NA	0
18	Triplet	36	522	1332	0	1	1	1170179	692	1	hit	416	0
18	Triplet	37	523	1333	7	0	0	1170887	692	0	correct_rejection	NA	0
18	Triplet	38	524	1334	7	0	0	1171596	692	0	correct_rejection	NA	0
18	Triplet	39	525	1335	8	0	0	1172305	691	0	correct_rejection	NA	0
18	Triplet	40	526	1336	9	0	0	1173013	692	0	correct_rejection	NA	0
18	Triplet	41	527	1337	0	1	2	1173722	691	1	hit	347	0
18	Triplet	42	528	1338	4	0	0	1174430	692	0	correct_rejection	NA	0
18	Triplet	43	529	1339	5	0	0	1175139	691	0	correct_rejection	NA	0
18	Triplet	44	530	1340	6	0	0	1175847	692	0	correct_rejection	NA	0
18	Triplet	45	531	1341	4	0	0	1176556	692	0	correct_rejection	NA	0
18	Triplet	46	532	1342	5	0	0	1177264	692	0	correct_rejection	NA	0
18	Triplet	47	533	1343	6	0	0	1177973	692	0	correct_rejection	NA	0
18	Triplet	48	534	1344	7	0	0	1178682	691	0	correct_rejection	NA	0
18	Triplet	49	535	1345	8	0	0	1179390	692	0	correct_rejection	NA	0
18	Triplet	50	536	1346	9	0	0	1180099	691	0	correct_rejection	NA	0
18	Triplet	51	537	1347	7	0	0	1180807	692	0	correct_rejection	NA	0
18	Triplet	52	538	1348	8	0	0	1181516	692	0	correct_rejection	NA	0
18	Triplet	53	539	1349	0	1	1	1182224	692	1	hit	432	0
18	Triplet	54	540	1350	9	0	0	1182933	692	0	correct_rejection	NA	0
18	Triplet	55	541	1351	9	0	0	1183642	691	0	correct_rejection	NA	0
18	Triplet	56	542	1352	8	0	0	1184350	692	0	correct_rejection	NA	0
18	Triplet	57	543	1353	7	0	0	1185059	691	0	correct_rejection	NA	0
18	Triplet	58	544	1354	4	0	0	1185767	692	0	correct_rejection	NA	0
18	Triplet	59	545	1355	5	0	0	1186476	692	0	correct_rejection	NA	0
18	Triplet	60	546	1356	0	1	1	1187184	692	1	hit	444	0
18	Triplet	61	547	1357	6	0	0	1187893	692	0	correct_rejection	NA	0
18	Triplet	62	548	1358	7	0	0	1188602	691	0	correct_rejection	NA	0
18	Triplet	63	549	1359	8	0	0	1189310	692	0	correct_rejection	NA	0
18	Triplet	64	550	1360	9	0	0	1190019	691	0	correct_rejection	NA	0
18	Triplet	65	551	1361	6	0	0	1190727	692	0	correct_rejection	NA	0
18	Triplet	66	552	1362	0	1	1	1191436	692	0	miss	NA	0
18	Triplet	67	553	1363	5	0	0	1192144	692	0	correct_rejection	NA	0
18	Triplet	68	554	1364	4	0	0	1192853	692	0	correct_rejection	NA	0
18	Triplet	69	555	1365	6	0	0	1193562	691	0	correct_rejection	NA	0
18	Triplet	70	556	1366	5	0	0	1194270	692	0	correct_rejection	NA	0
18	Triplet	71	557	1367	4	0	0	1194979	691	0	correct_rejection	NA	0
18	Triplet	72	558	1368	4	0	0	1195687	692	0	correct_rejection	NA	0
18	Triplet	73	559	1369	5	0	0	1196396	692	0	correct_rejection	NA	0
18	Triplet	74	560	1370	6	0	0	1197104	692	0	correct_rejection	NA	0
18	Triplet	75	561	1371	4	0	0	1197813	692	0	correct_rejection	NA	0
18	Triplet	76	562	1372	5	0	0	1198522	691	0	correct_rejection	NA	0
18	Triplet	77	563	1373	6	0	0	1199230	692	0	correct_rejection	NA	0
18	Triplet	78	564	1374	0	1	2	1199939	691	1	hit	568	0
18	Triplet	79	565	1375	6	0	0	1200647	692	0	correct_rejection	NA	0
18	Triplet	80	566	1376	5	0	0	1201356	691	0	correct_rejection	NA	0
18	Triplet	81	567	1377	4	0	0	1202064	692	0	correct_rejection	NA	0
18	Triplet	82	568	1378	7	0	0	1202773	692	0	correct_rejection	NA	0
18	Triplet	83	569	1379	0	1	1	1203482	691	1	hit	586	0
18	Triplet	84	570	1380	8	0	0	1204190	692	0	correct_rejection	NA	0
18	Triplet	85	571	1381	9	0	0	1204899	691	0	correct_rejection	NA	0
18	Triplet	86	572	1382	0	1	2	1205607	692	0	miss	NA	0
18	Triplet	87	573	1383	9	0	0	1206316	691	0	correct_rejection	NA	0
18	Triplet	88	574	1384	8	0	0	1207024	692	0	correct_rejection	NA	0
18	Triplet	89	575	1385	0	1	1	1207733	692	1	hit	441	0
18	Triplet	90	576	1386	7	0	0	1208441	692	0	correct_rejection	NA	0
18	Triplet	91	577	1387	4	0	0	1209150	692	0	correct_rejection	NA	0
18	Triplet	92	578	1388	5	0	0	1209859	691	0	correct_rejection	NA	0
18	Triplet	93	579	1389	6	0	0	1210567	692	0	correct_rejection	NA	0
18	Triplet	94	580	1390	9	0	0	1211276	691	0	correct_rejection	NA	0
18	Triplet	95	581	1391	8	0	0	1211984	692	0	correct_rejection	NA	0
18	Triplet	96	582	1392	7	0	0	1212693	692	0	correct_rejection	NA	0
18	Triplet	97	583	1393	9	0	0	1213401	692	0	correct_rejection	NA	0
18	Triplet	98	584	1394	8	0	0	1214110	692	0	correct_rejection	NA	0
18	Triplet	99	585	1395	0	1	1	1214819	691	1	hit	352	0
18	Triplet	100	586	1396	7	0	0	1215527	692	0	correct_rejection	NA	0
18	Triplet	101	587	1397	6	0	0	1216236	691	0	correct_rejection	NA	0
18	Triplet	102	588	1398	5	0	0	1216944	692	0	correct_rejection	NA	0
18	Triplet	103	589	1399	4	0	0	1217653	692	0	correct_rejection	NA	0
18	Triplet	104	590	1400	9	0	0	1218361	692	0	correct_rejection	NA	0
18	Triplet	105	591	1401	8	0	0	1219070	692	0	correct_rejection	NA	0
18	Triplet	106	592	1402	7	0	0	1219779	691	0	correct_rejection	NA	0
18	Triplet	107	593	1403	7	0	0	1220487	692	0	correct_rejection	NA	0
18	Triplet	108	594	1404	8	0	0	1221196	691	0	correct_rejection	NA	0
18	Triplet	109	595	1405	9	0	0	1221904	692	0	correct_rejection	NA	0
18	Triplet	110	596	1406	7	0	0	1222613	692	0	correct_rejection	NA	0
18	Triplet	111	597	1407	8	0	0	1223321	692	0	correct_rejection	NA	0
18	Triplet	112	598	1408	9	0	0	1224030	692	0	correct_rejection	NA	0
18	Triplet	113	599	1409	6	0	0	1224739	691	0	correct_rejection	NA	0
18	Triplet	114	600	1410	5	0	0	1225447	692	0	correct_rejection	NA	0
18	Triplet	115	601	1411	4	0	0	1226156	691	0	correct_rejection	NA	0
18	Triplet	116	602	1412	0	1	2	1226864	692	1	hit	413	0
18	Triplet	117	603	1413	9	0	0	1227573	692	0	correct_rejection	NA	0
18	Triplet	118	604	1414	8	0	0	1228281	692	0	correct_rejection	NA	0
18	Triplet	119	605	1415	7	0	0	1228990	692	0	correct_rejection	NA	0
18	Triplet	120	606	1416	6	0	0	1229699	691	0	correct_rejection	NA	0
18	Triplet	121	607	1417	5	0	0	1230407	692	0	correct_rejection	NA	0
18	Triplet	122	608	1418	4	0	0	1231116	691	0	correct_rejection	NA	0
18	Triplet	123	609	1419	7	0	0	1231824	692	0	correct_rejection	NA	0
18	Triplet	124	610	1420	8	0	0	1232533	691	0	correct_rejection	NA	0
18	Triplet	125	611	1421	9	0	0	1233241	692	0	correct_rejection	NA	0
18	Triplet	126	612	1422	7	0	0	1233950	692	0	correct_rejection	NA	0
18	Triplet	127	613	1423	8	0	0	1234659	691	0	correct_rejection	NA	0
18	Triplet	128	614	1424	9	0	0	1235367	692	0	correct_rejection	NA	0
18	Triplet	129	615	1425	4	0	0	1236076	691	0	correct_rejection	NA	0
18	Triplet	130	616	1426	5	0	0	1236784	692	0	correct_rejection	NA	0
18	Triplet	131	617	1427	6	0	0	1237493	691	0	correct_rejection	NA	0
18	Triplet	132	618	1428	6	0	0	1238201	692	0	correct_rejection	NA	0
18	Triplet	133	619	1429	5	0	0	1238910	692	0	correct_rejection	NA	0
18	Triplet	134	620	1430	4	0	0	1239618	692	0	correct_rejection	NA	0
18	Triplet	135	621	1431	4	0	0	1240327	692	0	correct_rejection	NA	0
18	Triplet	136	622	1432	5	0	0	1241036	691	0	correct_rejection	NA	0
18	Triplet	137	623	1433	6	0	0	1241744	692	0	correct_rejection	NA	0
18	Triplet	138	624	1434	7	0	0	1242453	691	0	correct_rejection	NA	0
18	Triplet	139	625	1435	8	0	0	1243161	692	0	correct_rejection	NA	0
18	Triplet	140	626	1436	9	0	0	1243870	692	0	correct_rejection	NA	0
18	Triplet	141	627	1437	9	0	0	1244578	692	0	correct_rejection	NA	0
18	Triplet	142	628	1438	8	0	0	1245287	692	0	correct_rejection	NA	0
18	Triplet	143	629	1439	7	0	0	1245996	691	0	correct_rejection	NA	0
18	Triplet	144	630	1440	0	1	2	1246704	692	1	hit	404	0
18	Triplet	145	631	1441	9	0	0	1247413	691	0	correct_rejection	NA	0
18	Triplet	146	632	1442	8	0	0	1248121	692	0	correct_rejection	NA	0
18	Triplet	147	633	1443	7	0	0	1248830	692	0	correct_rejection	NA	0
18	Triplet	148	634	1444	4	0	0	1249538	692	0	correct_rejection	NA	0
18	Triplet	149	635	1445	5	0	0	1250247	692	0	correct_rejection	NA	0
18	Triplet	150	636	1446	6	0	0	1250956	691	0	correct_rejection	NA	0
18	Triplet	151	637	1447	4	0	0	1251664	692	0	correct_rejection	NA	0
18	Triplet	152	638	1448	5	0	0	1252373	691	0	correct_rejection	NA	0
18	Triplet	153	639	1449	6	0	0	1253081	692	0	correct_rejection	NA	0
18	Triplet	154	640	1450	9	0	0	1253790	692	0	correct_rejection	NA	0
18	Triplet	155	641	1451	8	0	0	1254498	692	0	correct_rejection	NA	0
18	Triplet	156	642	1452	7	0	0	1255207	692	0	correct_rejection	NA	0
18	Triplet	157	643	1453	7	0	0	1255916	691	0	correct_rejection	NA	0
18	Triplet	158	644	1454	8	0	0	1256624	692	0	correct_rejection	NA	0
18	Triplet	159	645	1455	9	0	0	1257333	691	0	correct_rejection	NA	0
18	Triplet	160	646	1456	6	0	0	1258041	692	0	correct_rejection	NA	0
18	Triplet	161	647	1457	5	0	0	1258750	692	0	correct_rejection	NA	0
18	Triplet	162	648	1458	4	0	0	1259458	692	0	correct_rejection	NA	0
18	Nonet	1	325	1459	4	0	0	1269687	691	0	correct_rejection	NA	7529
18	Nonet	2	326	1460	5	0	0	1270395	692	0	correct_rejection	NA	0
18	Nonet	3	327	1461	6	0	0	1271104	692	0	correct_rejection	NA	0
18	Nonet	4	328	1462	4	0	0	1271812	692	0	correct_rejection	NA	0
18	Nonet	5	329	1463	5	0	0	1272521	692	0	correct_rejection	NA	0
18	Nonet	6	330	1464	6	0	0	1273230	691	0	correct_rejection	NA	0
18	Nonet	7	331	1465	0	1	2	1273938	692	1	hit	620	0
18	Nonet	8	332	1466	4	0	0	1274647	691	0	correct_rejection	NA	0
18	Nonet	9	333	1467	5	0	0	1275355	692	0	correct_rejection	NA	0
18	Nonet	10	334	1468	6	0	0	1276064	692	0	correct_rejection	NA	0
18	Nonet	11	335	1469	6	0	0	1276772	692	0	correct_rejection	NA	0
18	Nonet	12	336	1470	0	1	1	1277481	692	1	hit	514	0
18	Nonet	13	337	1471	5	0	0	1278190	691	0	correct_rejection	NA	0
18	Nonet	14	338	1472	4	0	0	1278898	692	0	correct_rejection	NA	0
18	Nonet	15	339	1473	6	0	0	1279607	691	0	correct_rejection	NA	0
18	Nonet	16	340	1474	5	0	0	1280315	692	0	correct_rejection	NA	0
18	Nonet	17	341	1475	4	0	0	1281024	692	0	correct_rejection	NA	0
18	Nonet	18	342	1476	6	0	0	1281732	692	0	correct_rejection	NA	0
18	Nonet	19	343	1477	5	0	0	1282441	692	0	correct_rejection	NA	0
18	Nonet	20	344	1478	4	0	0	1283150	691	0	correct_rejection	NA	0
18	Nonet	21	345	1479	4	0	0	1283858	692	0	correct_rejection	NA	0
18	Nonet	22	346	1480	5	0	0	1284567	691	0	correct_rejection	NA	0
18	Nonet	23	347	1481	6	0	0	1285275	692	0	correct_rejection	NA	0
18	Nonet	24	348	1482	4	0	0	1285984	692	0	correct_rejection	NA	0
18	Nonet	25	349	1483	0	1	1	1286692	692	0	miss	NA	0
18	Nonet	26	350	1484	5	0	0	1287401	692	1	false_alarm	449	0
18	Nonet	27	351	1485	6	0	0	1288110	691	0	correct_rejection	NA	0
18	Nonet	28	352	1486	4	0	0	1288818	692	0	correct_rejection	NA	0
18	Nonet	29	353	1487	5	0	0	1289527	691	0	correct_rejection	NA	0
18	Nonet	30	354	1488	6	0	0	1290235	692	0	correct_rejection	NA	0
18	Nonet	31	355	1489	9	0	0	1290944	692	0	correct_rejection	NA	0
18	Nonet	32	356	1490	8	0	0	1291652	692	0	correct_rejection	NA	0
18	Nonet	33	357	1491	7	0	0	1292361	692	0	correct_rejection	NA	0
18	Nonet	34	358	1492	9	0	0	1293070	691	0	correct_rejection	NA	0
18	Nonet	35	359	1493	8	0	0	1293778	692	0	correct_rejection	NA	0
18	Nonet	36	360	1494	7	0	0	1294487	691	0	correct_rejection	NA	0
18	Nonet	37	361	1495	9	0	0	1295195	692	0	correct_rejection	NA	0
18	Nonet	38	362	1496	8	0	0	1295904	691	0	correct_rejection	NA	0
18	Nonet	39	363	1497	7	0	0	1296612	692	0	correct_rejection	NA	0
18	Nonet	40	364	1498	4	0	0	1297321	692	0	correct_rejection	NA	0
18	Nonet	41	365	1499	5	0	0	1298030	691	0	correct_rejection	NA	0
18	Nonet	42	366	1500	6	0	0	1298738	692	0	correct_rejection	NA	0
18	Nonet	43	367	1501	4	0	0	1299447	691	0	correct_rejection	NA	0
18	Nonet	44	368	1502	5	0	0	1300155	692	0	correct_rejection	NA	0
18	Nonet	45	369	1503	0	1	1	1300864	691	1	hit	388	0
18	Nonet	46	370	1504	6	0	0	1301572	692	0	correct_rejection	NA	0
18	Nonet	47	371	1505	4	0	0	1302281	692	0	correct_rejection	NA	0
18	Nonet	48	372	1506	5	0	0	1302989	692	0	correct_rejection	NA	0
18	Nonet	49	373	1507	6	0	0	1303698	692	0	correct_rejection	NA	0
18	Nonet	50	374	1508	7	0	0	1304407	691	0	correct_rejection	NA	0
18	Nonet	51	375	1509	0	1	1	1305115	692	1	hit	404	0
18	Nonet	52	376	1510	8	0	0	1305824	691	0	correct_rejection	NA	0
18	Nonet	53	377	1511	9	0	0	1306532	692	0	correct_rejection	NA	0
18	Nonet	54	378	1512	7	0	0	1307241	692	0	correct_rejection	NA	0
18	Nonet	55	379	1513	8	0	0	1307949	692	0	correct_rejection	NA	0
18	Nonet	56	380	1514	9	0	0	1308658	692	0	correct_rejection	NA	0
18	Nonet	57	381	1515	7	0	0	1309367	691	0	correct_rejection	NA	0
18	Nonet	58	382	1516	8	0	0	1310075	692	0	correct_rejection	NA	0
18	Nonet	59	383	1517	9	0	0	1310784	691	0	correct_rejection	NA	0
18	Nonet	60	384	1518	9	0	0	1311492	692	0	correct_rejection	NA	0
18	Nonet	61	385	1519	8	0	0	1312201	692	0	correct_rejection	NA	0
18	Nonet	62	386	1520	7	0	0	1312909	692	0	correct_rejection	NA	0
18	Nonet	63	387	1521	9	0	0	1313618	692	0	correct_rejection	NA	0
18	Nonet	64	388	1522	8	0	0	1314327	691	0	correct_rejection	NA	0
18	Nonet	65	389	1523	0	1	1	1315035	692	1	hit	399	0
18	Nonet	66	390	1524	7	0	0	1315744	691	0	correct_rejection	NA	0
18	Nonet	67	391	1525	9	0	0	1316452	692	0	correct_rejection	NA	0
18	Nonet	68	392	1526	8	0	0	1317161	692	0	correct_rejection	NA	0
18	Nonet	69	393	1527	7	0	0	1317869	692	0	correct_rejection	NA	0
18	Nonet	70	394	1528	0	1	3	1318578	692	1	hit	442	0
18	Nonet	71	395	1529	9	0	0	1319287	691	0	correct_rejection	NA	0
18	Nonet	72	396	1530	8	0	0	1319995	692	0	correct_rejection	NA	0
18	Nonet	73	397	1531	7	0	0	1320704	691	0	correct_rejection	NA	0
18	Nonet	74	398	1532	9	0	0	1321412	692	0	correct_rejection	NA	0
18	Nonet	75	399	1533	8	0	0	1322121	692	0	correct_rejection	NA	0
18	Nonet	76	400	1534	7	0	0	1322829	692	0	correct_rejection	NA	0
18	Nonet	77	401	1535	9	0	0	1323538	692	0	correct_rejection	NA	0
18	Nonet	78	402	1536	0	1	1	1324247	691	1	hit	483	0
18	Nonet	79	403	1537	8	0	0	1324955	692	0	correct_rejection	NA	0
18	Nonet	80	404	1538	7	0	0	1325664	691	0	correct_rejection	NA	0
18	Nonet	81	405	1539	6	0	0	1326372	692	0	correct_rejection	NA	0
18	Nonet	82	406	1540	5	0	0	1327081	691	0	correct_rejection	NA	0
18	Nonet	83	407	1541	4	0	0	1327789	692	0	correct_rejection	NA	0
18	Nonet	84	408	1542	0	1	2	1328498	692	1	hit	629	0
18	Nonet	85	409	1543	6	0	0	1329206	692	0	correct_rejection	NA	0
18	Nonet	86	410	1544	5	0	0	1329915	692	0	correct_rejection	NA	0
18	Nonet	87	411	1545	4	0	0	1330624	691	0	correct_rejection	NA	0
18	Nonet	88	412	1546	6	0	0	1331332	692	0	correct_rejection	NA	0
18	Nonet	89	413	1547	5	0	0	1332041	691	0	correct_rejection	NA	0
18	Nonet	90	414	1548	4	0	0	1332749	692	0	correct_rejection	NA	0
18	Nonet	91	415	1549	7	0	0	1333458	692	0	correct_rejection	NA	0
18	Nonet	92	416	1550	8	0	0	1334166	692	0	correct_rejection	NA	0
18	Nonet	93	417	1551	9	0	0	1334875	692	0	correct_rejection	NA	0
18	Nonet	94	418	1552	7	0	0	1335584	691	0	correct_rejection	NA	0
18	Nonet	95	419	1553	8	0	0	1336292	692	0	correct_rejection	NA	0
18	Nonet	96	420	1554	9	0	0	1337001	691	0	correct_rejection	NA	0
18	Nonet	97	421	1555	7	0	0	1337709	692	0	correct_rejection	NA	0
18	Nonet	98	422	1556	8	0	0	1338418	692	0	correct_rejection	NA	0
18	Nonet	99	423	1557	9	0	0	1339126	692	0	correct_rejection	NA	0
18	Nonet	100	424	1558	6	0	0	1339835	692	0	correct_rejection	NA	0
18	Nonet	101	425	1559	0	1	1	1340544	691	1	hit	455	0
18	Nonet	102	426	1560	5	0	0	1341252	692	0	correct_rejection	NA	0
18	Nonet	103	427	1561	4	0	0	1341961	691	0	correct_rejection	NA	0
18	Nonet	104	428	1562	6	0	0	1342669	692	0	correct_rejection	NA	0
18	Nonet	105	429	1563	5	0	0	1343378	692	0	correct_rejection	NA	0
18	Nonet	106	430	1564	4	0	0	1344086	692	0	correct_rejection	NA	0
18	Nonet	107	431	1565	6	0	0	1344795	692	0	correct_rejection	NA	0
18	Nonet	108	432	1566	5	0	0	1345504	691	0	correct_rejection	NA	0
18	Nonet	109	433	1567	4	0	0	1346212	692	0	correct_rejection	NA	0
18	Nonet	110	434	1568	0	1	3	1346921	691	1	hit	436	0
18	Nonet	111	435	1569	6	0	0	1347629	692	0	correct_rejection	NA	0
18	Nonet	112	436	1570	5	0	0	1348338	692	0	correct_rejection	NA	0
18	Nonet	113	437	1571	0	1	1	1349046	692	1	hit	520	0
18	Nonet	114	438	1572	4	0	0	1349755	692	0	correct_rejection	NA	0
18	Nonet	115	439	1573	6	0	0	1350464	691	0	correct_rejection	NA	0
18	Nonet	116	440	1574	5	0	0	1351172	692	0	correct_rejection	NA	0
18	Nonet	117	441	1575	4	0	0	1351881	691	0	correct_rejection	NA	0
18	Nonet	118	442	1576	6	0	0	1352589	692	0	correct_rejection	NA	0
18	Nonet	119	443	1577	5	0	0	1353298	692	0	correct_rejection	NA	0
18	Nonet	120	444	1578	4	0	0	1354006	692	0	correct_rejection	NA	0
18	Nonet	121	445	1579	9	0	0	1354715	692	0	correct_rejection	NA	0
18	Nonet	122	446	1580	8	0	0	1355424	691	0	correct_rejection	NA	0
18	Nonet	123	447	1581	0	1	1	1356132	692	1	hit	386	0
18	Nonet	124	448	1582	7	0	0	1356841	691	0	correct_rejection	NA	0
18	Nonet	125	449	1583	9	0	0	1357549	692	0	correct_rejection	NA	0
18	Nonet	126	450	1584	8	0	0	1358258	691	0	correct_rejection	NA	0
18	Nonet	127	451	1585	7	0	0	1358966	692	0	correct_rejection	NA	0
18	Nonet	128	452	1586	9	0	0	1359675	692	0	correct_rejection	NA	0
18	Nonet	129	453	1587	8	0	0	1360383	692	0	correct_rejection	NA	0
18	Nonet	130	454	1588	7	0	0	1361092	692	0	correct_rejection	NA	0
18	Nonet	131	455	1589	0	1	3	1361801	691	1	hit	454	0
18	Nonet	132	456	1590	7	0	0	1362509	692	0	correct_rejection	NA	0
18	Nonet	133	457	1591	8	0	0	1363218	691	0	correct_rejection	NA	0
18	Nonet	134	458	1592	9	0	0	1363926	692	0	correct_rejection	NA	0
18	Nonet	135	459	1593	7	0	0	1364635	692	0	correct_rejection	NA	0
18	Nonet	136	460	1594	8	0	0	1365343	692	0	correct_rejection	NA	0
18	Nonet	137	461	1595	0	1	1	1366052	692	1	hit	401	0
18	Nonet	138	462	1596	9	0	0	1366761	691	0	correct_rejection	NA	0
