ID	block	trial_block	trial_cat	trial_total	number	violation	level_violation	onset	duration	Response	Hit_Miss	RT	pre_trial_fixcross_ISI
first_trigger_at: 11456
trigger nr 3 at 13456
19	Nonet	1	1	1	9	0	0	19923	691	0	correct_rejection	NA	6429
19	Nonet	2	2	2	8	0	0	20631	692	0	correct_rejection	NA	0
19	Nonet	3	3	3	7	0	0	21340	692	0	correct_rejection	NA	0
19	Nonet	4	4	4	9	0	0	22048	692	0	correct_rejection	NA	0
19	Nonet	5	5	5	8	0	0	22757	692	0	correct_rejection	NA	0
19	Nonet	6	6	6	7	0	0	23466	691	0	correct_rejection	NA	0
19	Nonet	7	7	7	9	0	0	24174	692	0	correct_rejection	NA	0
19	Nonet	8	8	8	8	0	0	24883	691	0	correct_rejection	NA	0
19	Nonet	9	9	9	7	0	0	25591	692	0	correct_rejection	NA	0
19	Nonet	10	10	10	6	0	0	26300	692	0	correct_rejection	NA	0
19	Nonet	11	11	11	5	0	0	27008	692	0	correct_rejection	NA	0
19	Nonet	12	12	12	4	0	0	27717	692	0	correct_rejection	NA	0
19	Nonet	13	13	13	6	0	0	28426	691	0	correct_rejection	NA	0
19	Nonet	14	14	14	5	0	0	29134	692	0	correct_rejection	NA	0
19	Nonet	15	15	15	4	0	0	29843	691	0	correct_rejection	NA	0
19	Nonet	16	16	16	6	0	0	30551	692	0	correct_rejection	NA	0
19	Nonet	17	17	17	0	1	1	31260	692	1	hit	429	0
19	Nonet	18	18	18	5	0	0	31968	692	0	correct_rejection	NA	0
19	Nonet	19	19	19	4	0	0	32677	692	0	correct_rejection	NA	0
19	Nonet	20	20	20	6	0	0	33386	691	0	correct_rejection	NA	0
19	Nonet	21	21	21	5	0	0	34094	692	0	correct_rejection	NA	0
19	Nonet	22	22	22	0	1	1	34803	691	1	hit	352	0
19	Nonet	23	23	23	4	0	0	35511	692	0	correct_rejection	NA	0
19	Nonet	24	24	24	6	0	0	36220	692	0	correct_rejection	NA	0
19	Nonet	25	25	25	5	0	0	36928	692	0	correct_rejection	NA	0
19	Nonet	26	26	26	4	0	0	37637	692	0	correct_rejection	NA	0
19	Nonet	27	27	27	6	0	0	38346	691	0	correct_rejection	NA	0
19	Nonet	28	28	28	5	0	0	39054	692	0	correct_rejection	NA	0
19	Nonet	29	29	29	4	0	0	39763	691	0	correct_rejection	NA	0
19	Nonet	30	30	30	9	0	0	40471	692	0	correct_rejection	NA	0
19	Nonet	31	31	31	8	0	0	41180	691	0	correct_rejection	NA	0
19	Nonet	32	32	32	0	1	1	41888	692	1	hit	332	0
19	Nonet	33	33	33	7	0	0	42597	692	0	correct_rejection	NA	0
19	Nonet	34	34	34	9	0	0	43305	692	0	correct_rejection	NA	0
19	Nonet	35	35	35	8	0	0	44014	692	0	correct_rejection	NA	0
19	Nonet	36	36	36	7	0	0	44723	691	0	correct_rejection	NA	0
19	Nonet	37	37	37	9	0	0	45431	692	0	correct_rejection	NA	0
19	Nonet	38	38	38	8	0	0	46140	691	0	correct_rejection	NA	0
19	Nonet	39	39	39	7	0	0	46848	692	0	correct_rejection	NA	0
19	Nonet	40	40	40	4	0	0	47557	692	0	correct_rejection	NA	0
19	Nonet	41	41	41	5	0	0	48265	692	0	correct_rejection	NA	0
19	Nonet	42	42	42	6	0	0	48974	692	0	correct_rejection	NA	0
19	Nonet	43	43	43	0	1	2	49683	691	1	hit	369	0
19	Nonet	44	44	44	4	0	0	50391	692	0	correct_rejection	NA	0
19	Nonet	45	45	45	5	0	0	51100	691	0	correct_rejection	NA	0
19	Nonet	46	46	46	6	0	0	51808	692	0	correct_rejection	NA	0
19	Nonet	47	47	47	0	1	2	52517	692	1	hit	451	0
19	Nonet	48	48	48	4	0	0	53225	692	0	correct_rejection	NA	0
19	Nonet	49	49	49	5	0	0	53934	692	0	correct_rejection	NA	0
19	Nonet	50	50	50	6	0	0	54643	691	0	correct_rejection	NA	0
19	Nonet	51	51	51	4	0	0	55351	692	0	correct_rejection	NA	0
19	Nonet	52	52	52	5	0	0	56060	691	0	correct_rejection	NA	0
19	Nonet	53	53	53	0	1	1	56768	692	1	hit	361	0
19	Nonet	54	54	54	6	0	0	57477	692	0	correct_rejection	NA	0
19	Nonet	55	55	55	4	0	0	58185	692	0	correct_rejection	NA	0
19	Nonet	56	56	56	5	0	0	58894	692	0	correct_rejection	NA	0
19	Nonet	57	57	57	6	0	0	59603	691	0	correct_rejection	NA	0
19	Nonet	58	58	58	4	0	0	60311	692	0	correct_rejection	NA	0
19	Nonet	59	59	59	5	0	0	61020	691	0	correct_rejection	NA	0
19	Nonet	60	60	60	6	0	0	61728	692	0	correct_rejection	NA	0
19	Nonet	61	61	61	7	0	0	62437	692	0	correct_rejection	NA	0
19	Nonet	62	62	62	8	0	0	63145	692	0	correct_rejection	NA	0
19	Nonet	63	63	63	9	0	0	63854	692	0	correct_rejection	NA	0
19	Nonet	64	64	64	7	0	0	64563	691	0	correct_rejection	NA	0
19	Nonet	65	65	65	8	0	0	65271	692	0	correct_rejection	NA	0
19	Nonet	66	66	66	0	1	1	65980	691	1	hit	368	0
19	Nonet	67	67	67	9	0	0	66688	692	0	correct_rejection	NA	0
19	Nonet	68	68	68	7	0	0	67397	692	0	correct_rejection	NA	0
19	Nonet	69	69	69	8	0	0	68105	692	0	correct_rejection	NA	0
19	Nonet	70	70	70	9	0	0	68814	692	0	correct_rejection	NA	0
19	Nonet	71	71	71	4	0	0	69523	691	0	correct_rejection	NA	0
19	Nonet	72	72	72	5	0	0	70231	692	0	correct_rejection	NA	0
19	Nonet	73	73	73	6	0	0	70940	691	0	correct_rejection	NA	0
19	Nonet	74	74	74	4	0	0	71648	692	0	correct_rejection	NA	0
19	Nonet	75	75	75	5	0	0	72357	691	0	correct_rejection	NA	0
19	Nonet	76	76	76	6	0	0	73065	692	0	correct_rejection	NA	0
19	Nonet	77	77	77	4	0	0	73774	692	0	correct_rejection	NA	0
19	Nonet	78	78	78	5	0	0	74482	692	0	correct_rejection	NA	0
19	Nonet	79	79	79	6	0	0	75191	692	0	correct_rejection	NA	0
19	Nonet	80	80	80	9	0	0	75900	691	0	correct_rejection	NA	0
19	Nonet	81	81	81	8	0	0	76608	692	0	correct_rejection	NA	0
19	Nonet	82	82	82	0	1	1	77317	691	1	hit	402	0
19	Nonet	83	83	83	7	0	0	78025	692	0	correct_rejection	NA	0
19	Nonet	84	84	84	9	0	0	78734	692	0	correct_rejection	NA	0
19	Nonet	85	85	85	8	0	0	79442	692	0	correct_rejection	NA	0
19	Nonet	86	86	86	0	1	1	80151	692	1	hit	457	0
19	Nonet	87	87	87	7	0	0	80860	691	0	correct_rejection	NA	0
19	Nonet	88	88	88	9	0	0	81568	692	0	correct_rejection	NA	0
19	Nonet	89	89	89	8	0	0	82277	691	0	correct_rejection	NA	0
19	Nonet	90	90	90	7	0	0	82985	692	0	correct_rejection	NA	0
19	Nonet	91	91	91	0	1	3	83694	692	1	hit	393	0
19	Nonet	92	92	92	9	0	0	84402	692	0	correct_rejection	NA	0
19	Nonet	93	93	93	8	0	0	85111	692	0	correct_rejection	NA	0
19	Nonet	94	94	94	7	0	0	85820	691	0	correct_rejection	NA	0
19	Nonet	95	95	95	9	0	0	86528	692	0	correct_rejection	NA	0
19	Nonet	96	96	96	8	0	0	87237	691	0	correct_rejection	NA	0
19	Nonet	97	97	97	7	0	0	87945	692	0	correct_rejection	NA	0
19	Nonet	98	98	98	9	0	0	88654	692	0	correct_rejection	NA	0
19	Nonet	99	99	99	8	0	0	89362	692	0	correct_rejection	NA	0
19	Nonet	100	100	100	7	0	0	90071	692	0	correct_rejection	NA	0
19	Nonet	101	101	101	7	0	0	90780	691	0	correct_rejection	NA	0
19	Nonet	102	102	102	0	1	1	91488	692	1	hit	387	0
19	Nonet	103	103	103	8	0	0	92197	691	0	correct_rejection	NA	0
19	Nonet	104	104	104	9	0	0	92905	692	0	correct_rejection	NA	0
19	Nonet	105	105	105	7	0	0	93614	692	0	correct_rejection	NA	0
19	Nonet	106	106	106	8	0	0	94322	692	0	correct_rejection	NA	0
19	Nonet	107	107	107	9	0	0	95031	692	0	correct_rejection	NA	0
19	Nonet	108	108	108	7	0	0	95740	691	0	correct_rejection	NA	0
19	Nonet	109	109	109	8	0	0	96448	692	0	correct_rejection	NA	0
19	Nonet	110	110	110	9	0	0	97157	691	0	correct_rejection	NA	0
19	Nonet	111	111	111	6	0	0	97865	692	0	correct_rejection	NA	0
19	Nonet	112	112	112	5	0	0	98574	692	0	correct_rejection	NA	0
19	Nonet	113	113	113	0	1	1	99282	692	1	hit	352	0
19	Nonet	114	114	114	4	0	0	99991	692	0	correct_rejection	NA	0
19	Nonet	115	115	115	6	0	0	100700	691	0	correct_rejection	NA	0
19	Nonet	116	116	116	5	0	0	101408	692	0	correct_rejection	NA	0
19	Nonet	117	117	117	4	0	0	102117	691	0	correct_rejection	NA	0
19	Nonet	118	118	118	0	1	2	102825	692	1	hit	376	0
19	Nonet	119	119	119	6	0	0	103534	691	0	correct_rejection	NA	0
19	Nonet	120	120	120	5	0	0	104242	692	0	correct_rejection	NA	0
19	Nonet	121	121	121	4	0	0	104951	692	0	correct_rejection	NA	0
19	Nonet	122	122	122	4	0	0	105659	692	0	correct_rejection	NA	0
19	Nonet	123	123	123	5	0	0	106368	692	0	correct_rejection	NA	0
19	Nonet	124	124	124	6	0	0	107077	691	0	correct_rejection	NA	0
19	Nonet	125	125	125	4	0	0	107785	692	0	correct_rejection	NA	0
19	Nonet	126	126	126	5	0	0	108494	691	0	correct_rejection	NA	0
19	Nonet	127	127	127	0	1	1	109202	692	1	hit	358	0
19	Nonet	128	128	128	6	0	0	109911	692	0	correct_rejection	NA	0
19	Nonet	129	129	129	4	0	0	110619	692	0	correct_rejection	NA	0
19	Nonet	130	130	130	0	1	1	111328	692	1	hit	482	0
19	Nonet	131	131	131	5	0	0	112037	691	0	correct_rejection	NA	0
19	Nonet	132	132	132	6	0	0	112745	692	0	correct_rejection	NA	0
19	Nonet	133	133	133	6	0	0	113454	691	0	correct_rejection	NA	0
19	Nonet	134	134	134	5	0	0	114162	692	0	correct_rejection	NA	0
19	Nonet	135	135	135	4	0	0	114871	692	0	correct_rejection	NA	0
19	Nonet	136	136	136	6	0	0	115579	692	0	correct_rejection	NA	0
19	Nonet	137	137	137	5	0	0	116288	692	0	correct_rejection	NA	0
19	Nonet	138	138	138	4	0	0	116997	691	0	correct_rejection	NA	0
19	Nonet	139	139	139	6	0	0	117705	692	0	correct_rejection	NA	0
19	Nonet	140	140	140	5	0	0	118414	691	0	correct_rejection	NA	0
19	Nonet	141	141	141	4	0	0	119122	692	0	correct_rejection	NA	0
19	Nonet	142	142	142	7	0	0	119831	692	0	correct_rejection	NA	0
19	Nonet	143	143	143	8	0	0	120539	692	0	correct_rejection	NA	0
19	Nonet	144	144	144	0	1	1	121248	692	1	hit	330	0
19	Nonet	145	145	145	9	0	0	121957	691	0	correct_rejection	NA	0
19	Nonet	146	146	146	7	0	0	122665	692	0	correct_rejection	NA	0
19	Nonet	147	147	147	8	0	0	123374	691	0	correct_rejection	NA	0
19	Nonet	148	148	148	9	0	0	124082	692	0	correct_rejection	NA	0
19	Nonet	149	149	149	0	1	2	124791	692	1	hit	347	0
19	Nonet	150	150	150	7	0	0	125499	692	0	correct_rejection	NA	0
19	Nonet	151	151	151	8	0	0	126208	692	0	correct_rejection	NA	0
19	Nonet	152	152	152	9	0	0	126917	691	0	correct_rejection	NA	0
19	Nonet	153	153	153	7	0	0	127625	692	0	correct_rejection	NA	0
19	Nonet	154	154	154	8	0	0	128334	691	0	correct_rejection	NA	0
19	Nonet	155	155	155	9	0	0	129042	692	0	correct_rejection	NA	0
19	Nonet	156	156	156	7	0	0	129751	691	0	correct_rejection	NA	0
19	Nonet	157	157	157	8	0	0	130459	692	0	correct_rejection	NA	0
19	Nonet	158	158	158	9	0	0	131168	692	0	correct_rejection	NA	0
19	Nonet	159	159	159	0	1	2	131877	691	1	hit	310	0
19	Nonet	160	160	160	7	0	0	132585	692	0	correct_rejection	NA	0
19	Nonet	161	161	161	8	0	0	133294	691	0	correct_rejection	NA	0
19	Nonet	162	162	162	9	0	0	134002	692	0	correct_rejection	NA	0
19	Triplet	1	325	163	6	0	0	142872	692	0	correct_rejection	NA	6379
19	Triplet	2	326	164	5	0	0	143580	692	0	correct_rejection	NA	0
19	Triplet	3	327	165	4	0	0	144289	692	0	correct_rejection	NA	0
19	Triplet	4	328	166	6	0	0	144998	691	0	correct_rejection	NA	0
19	Triplet	5	329	167	5	0	0	145706	692	0	correct_rejection	NA	0
19	Triplet	6	330	168	4	0	0	146415	691	0	correct_rejection	NA	0
19	Triplet	7	331	169	9	0	0	147123	692	0	correct_rejection	NA	0
19	Triplet	8	332	170	8	0	0	147832	691	0	correct_rejection	NA	0
19	Triplet	9	333	171	7	0	0	148540	692	0	correct_rejection	NA	0
19	Triplet	10	334	172	9	0	0	149249	692	0	correct_rejection	NA	0
19	Triplet	11	335	173	8	0	0	149957	692	0	correct_rejection	NA	0
19	Triplet	12	336	174	7	0	0	150666	692	0	correct_rejection	NA	0
19	Triplet	13	337	175	7	0	0	151375	691	0	correct_rejection	NA	0
19	Triplet	14	338	176	0	1	1	152083	692	1	hit	357	0
19	Triplet	15	339	177	8	0	0	152792	691	0	correct_rejection	NA	0
19	Triplet	16	340	178	9	0	0	153500	692	0	correct_rejection	NA	0
19	Triplet	17	341	179	9	0	0	154209	692	0	correct_rejection	NA	0
19	Triplet	18	342	180	8	0	0	154917	692	0	correct_rejection	NA	0
19	Triplet	19	343	181	7	0	0	155626	692	0	correct_rejection	NA	0
19	Triplet	20	344	182	6	0	0	156335	691	0	correct_rejection	NA	0
19	Triplet	21	345	183	5	0	0	157043	692	0	correct_rejection	NA	0
19	Triplet	22	346	184	4	0	0	157752	691	0	correct_rejection	NA	0
19	Triplet	23	347	185	7	0	0	158460	692	0	correct_rejection	NA	0
19	Triplet	24	348	186	8	0	0	159169	692	0	correct_rejection	NA	0
19	Triplet	25	349	187	9	0	0	159877	692	0	correct_rejection	NA	0
19	Triplet	26	350	188	4	0	0	160586	692	0	correct_rejection	NA	0
19	Triplet	27	351	189	5	0	0	161295	691	0	correct_rejection	NA	0
19	Triplet	28	352	190	6	0	0	162003	692	0	correct_rejection	NA	0
19	Triplet	29	353	191	6	0	0	162712	691	0	correct_rejection	NA	0
19	Triplet	30	354	192	0	1	1	163420	692	1	hit	403	0
19	Triplet	31	355	193	5	0	0	164129	692	0	correct_rejection	NA	0
19	Triplet	32	356	194	4	0	0	164837	692	0	correct_rejection	NA	0
19	Triplet	33	357	195	4	0	0	165546	692	0	correct_rejection	NA	0
19	Triplet	34	358	196	5	0	0	166255	691	0	correct_rejection	NA	0
19	Triplet	35	359	197	6	0	0	166963	692	0	correct_rejection	NA	0
19	Triplet	36	360	198	9	0	0	167672	691	0	correct_rejection	NA	0
19	Triplet	37	361	199	8	0	0	168380	692	0	correct_rejection	NA	0
19	Triplet	38	362	200	7	0	0	169089	692	0	correct_rejection	NA	0
19	Triplet	39	363	201	4	0	0	169797	692	0	correct_rejection	NA	0
19	Triplet	40	364	202	5	0	0	170506	692	0	correct_rejection	NA	0
19	Triplet	41	365	203	6	0	0	171215	691	0	correct_rejection	NA	0
19	Triplet	42	366	204	4	0	0	171923	692	0	correct_rejection	NA	0
19	Triplet	43	367	205	0	1	1	172632	691	1	hit	357	0
19	Triplet	44	368	206	5	0	0	173340	692	0	correct_rejection	NA	0
19	Triplet	45	369	207	6	0	0	174049	692	0	correct_rejection	NA	0
19	Triplet	46	370	208	7	0	0	174757	692	0	correct_rejection	NA	0
19	Triplet	47	371	209	8	0	0	175466	692	0	correct_rejection	NA	0
19	Triplet	48	372	210	9	0	0	176175	691	0	correct_rejection	NA	0
19	Triplet	49	373	211	7	0	0	176883	692	0	correct_rejection	NA	0
19	Triplet	50	374	212	8	0	0	177592	691	0	correct_rejection	NA	0
19	Triplet	51	375	213	9	0	0	178300	692	0	correct_rejection	NA	0
19	Triplet	52	376	214	0	1	2	179009	691	1	hit	356	0
19	Triplet	53	377	215	6	0	0	179717	692	0	correct_rejection	NA	0
19	Triplet	54	378	216	5	0	0	180426	692	0	correct_rejection	NA	0
19	Triplet	55	379	217	4	0	0	181134	692	0	correct_rejection	NA	0
19	Triplet	56	380	218	0	1	2	181843	692	1	hit	390	0
19	Triplet	57	381	219	7	0	0	182552	691	0	correct_rejection	NA	0
19	Triplet	58	382	220	8	0	0	183260	692	0	correct_rejection	NA	0
19	Triplet	59	383	221	9	0	0	183969	691	0	correct_rejection	NA	0
19	Triplet	60	384	222	9	0	0	184677	692	0	correct_rejection	NA	0
19	Triplet	61	385	223	8	0	0	185386	692	0	correct_rejection	NA	0
19	Triplet	62	386	224	7	0	0	186094	692	0	correct_rejection	NA	0
19	Triplet	63	387	225	4	0	0	186803	692	0	correct_rejection	NA	0
19	Triplet	64	388	226	5	0	0	187512	691	0	correct_rejection	NA	0
19	Triplet	65	389	227	6	0	0	188220	692	0	correct_rejection	NA	0
19	Triplet	66	390	228	7	0	0	188929	691	0	correct_rejection	NA	0
19	Triplet	67	391	229	8	0	0	189637	692	0	correct_rejection	NA	0
19	Triplet	68	392	230	0	1	1	190346	692	1	hit	541	0
19	Triplet	69	393	231	9	0	0	191054	692	0	correct_rejection	NA	0
19	Triplet	70	394	232	4	0	0	191763	692	0	correct_rejection	NA	0
19	Triplet	71	395	233	5	0	0	192472	691	0	correct_rejection	NA	0
19	Triplet	72	396	234	0	1	1	193180	692	1	hit	385	0
19	Triplet	73	397	235	6	0	0	193889	691	0	correct_rejection	NA	0
19	Triplet	74	398	236	4	0	0	194597	692	0	correct_rejection	NA	0
19	Triplet	75	399	237	0	1	1	195306	692	1	hit	392	0
19	Triplet	76	400	238	5	0	0	196014	692	0	correct_rejection	NA	0
19	Triplet	77	401	239	6	0	0	196723	692	0	correct_rejection	NA	0
19	Triplet	78	402	240	9	0	0	197432	691	0	correct_rejection	NA	0
19	Triplet	79	403	241	0	1	1	198140	692	1	hit	370	0
19	Triplet	80	404	242	8	0	0	198849	691	0	correct_rejection	NA	0
19	Triplet	81	405	243	7	0	0	199557	692	0	correct_rejection	NA	0
19	Triplet	82	406	244	9	0	0	200266	692	0	correct_rejection	NA	0
19	Triplet	83	407	245	8	0	0	200974	692	0	correct_rejection	NA	0
19	Triplet	84	408	246	7	0	0	201683	692	0	correct_rejection	NA	0
19	Triplet	85	409	247	6	0	0	202392	691	0	correct_rejection	NA	0
19	Triplet	86	410	248	5	0	0	203100	692	0	correct_rejection	NA	0
19	Triplet	87	411	249	4	0	0	203809	691	0	correct_rejection	NA	0
19	Triplet	88	412	250	4	0	0	204517	692	0	correct_rejection	NA	0
19	Triplet	89	413	251	5	0	0	205226	691	0	correct_rejection	NA	0
19	Triplet	90	414	252	6	0	0	205934	692	0	correct_rejection	NA	0
19	Triplet	91	415	253	6	0	0	206643	692	0	correct_rejection	NA	0
19	Triplet	92	416	254	5	0	0	207352	691	0	correct_rejection	NA	0
19	Triplet	93	417	255	4	0	0	208060	692	0	correct_rejection	NA	0
19	Triplet	94	418	256	9	0	0	208769	691	0	correct_rejection	NA	0
19	Triplet	95	419	257	8	0	0	209477	692	0	correct_rejection	NA	0
19	Triplet	96	420	258	7	0	0	210186	691	0	correct_rejection	NA	0
19	Triplet	97	421	259	0	1	2	210894	692	1	hit	330	0
19	Triplet	98	422	260	7	0	0	211603	692	0	correct_rejection	NA	0
19	Triplet	99	423	261	8	0	0	212311	692	0	correct_rejection	NA	0
19	Triplet	100	424	262	9	0	0	213020	692	0	correct_rejection	NA	0
19	Triplet	101	425	263	7	0	0	213729	691	0	correct_rejection	NA	0
19	Triplet	102	426	264	8	0	0	214437	692	0	correct_rejection	NA	0
19	Triplet	103	427	265	9	0	0	215146	691	0	correct_rejection	NA	0
19	Triplet	104	428	266	6	0	0	215854	692	0	correct_rejection	NA	0
19	Triplet	105	429	267	5	0	0	216563	692	0	correct_rejection	NA	0
19	Triplet	106	430	268	4	0	0	217271	692	0	correct_rejection	NA	0
19	Triplet	107	431	269	0	1	2	217980	692	1	hit	395	0
19	Triplet	108	432	270	6	0	0	218689	691	0	correct_rejection	NA	0
19	Triplet	109	433	271	5	0	0	219397	692	0	correct_rejection	NA	0
19	Triplet	110	434	272	0	1	1	220106	691	1	hit	441	0
19	Triplet	111	435	273	4	0	0	220814	692	0	correct_rejection	NA	0
19	Triplet	112	436	274	9	0	0	221523	692	0	correct_rejection	NA	0
19	Triplet	113	437	275	8	0	0	222231	692	0	correct_rejection	NA	0
19	Triplet	114	438	276	7	0	0	222940	692	0	correct_rejection	NA	0
19	Triplet	115	439	277	4	0	0	223649	691	0	correct_rejection	NA	0
19	Triplet	116	440	278	5	0	0	224357	692	0	correct_rejection	NA	0
19	Triplet	117	441	279	6	0	0	225066	691	0	correct_rejection	NA	0
19	Triplet	118	442	280	9	0	0	225774	692	0	correct_rejection	NA	0
19	Triplet	119	443	281	8	0	0	226483	692	0	correct_rejection	NA	0
19	Triplet	120	444	282	7	0	0	227191	692	0	correct_rejection	NA	0
19	Triplet	121	445	283	7	0	0	227900	692	0	correct_rejection	NA	0
19	Triplet	122	446	284	8	0	0	228609	691	0	correct_rejection	NA	0
19	Triplet	123	447	285	9	0	0	229317	692	0	correct_rejection	NA	0
19	Triplet	124	448	286	6	0	0	230026	691	0	correct_rejection	NA	0
19	Triplet	125	449	287	5	0	0	230734	692	0	correct_rejection	NA	0
19	Triplet	126	450	288	4	0	0	231443	692	0	correct_rejection	NA	0
19	Triplet	127	451	289	4	0	0	232151	692	0	correct_rejection	NA	0
19	Triplet	128	452	290	0	1	1	232860	692	1	hit	343	0
19	Triplet	129	453	291	5	0	0	233569	691	0	correct_rejection	NA	0
19	Triplet	130	454	292	6	0	0	234277	692	0	correct_rejection	NA	0
19	Triplet	131	455	293	0	1	2	234986	691	1	hit	436	0
19	Triplet	132	456	294	4	0	0	235694	692	0	correct_rejection	NA	0
19	Triplet	133	457	295	5	0	0	236403	691	0	correct_rejection	NA	0
19	Triplet	134	458	296	6	0	0	237111	692	0	correct_rejection	NA	0
19	Triplet	135	459	297	6	0	0	237820	692	0	correct_rejection	NA	0
19	Triplet	136	460	298	5	0	0	238529	691	0	correct_rejection	NA	0
19	Triplet	137	461	299	4	0	0	239237	692	0	correct_rejection	NA	0
19	Triplet	138	462	300	6	0	0	239946	691	0	correct_rejection	NA	0
19	Triplet	139	463	301	5	0	0	240654	692	0	correct_rejection	NA	0
19	Triplet	140	464	302	0	1	1	241363	691	1	hit	341	0
19	Triplet	141	465	303	4	0	0	242071	692	0	correct_rejection	NA	0
19	Triplet	142	466	304	7	0	0	242780	692	0	correct_rejection	NA	0
19	Triplet	143	467	305	8	0	0	243488	692	0	correct_rejection	NA	0
19	Triplet	144	468	306	9	0	0	244197	692	0	correct_rejection	NA	0
19	Triplet	145	469	307	7	0	0	244906	691	0	correct_rejection	NA	0
19	Triplet	146	470	308	8	0	0	245614	692	0	correct_rejection	NA	0
19	Triplet	147	471	309	9	0	0	246323	691	0	correct_rejection	NA	0
19	Triplet	148	472	310	4	0	0	247031	692	0	correct_rejection	NA	0
19	Triplet	149	473	311	5	0	0	247740	692	0	correct_rejection	NA	0
19	Triplet	150	474	312	6	0	0	248448	692	0	correct_rejection	NA	0
19	Triplet	151	475	313	0	1	2	249157	692	1	hit	356	0
19	Triplet	152	476	314	7	0	0	249866	691	0	correct_rejection	NA	0
19	Triplet	153	477	315	8	0	0	250574	692	0	correct_rejection	NA	0
19	Triplet	154	478	316	0	1	1	251283	691	1	hit	416	0
19	Triplet	155	479	317	9	0	0	251991	692	0	correct_rejection	NA	0
19	Triplet	156	480	318	9	0	0	252700	692	0	correct_rejection	NA	0
19	Triplet	157	481	319	8	0	0	253408	692	0	correct_rejection	NA	0
19	Triplet	158	482	320	7	0	0	254117	692	0	correct_rejection	NA	0
19	Triplet	159	483	321	9	0	0	254826	691	0	correct_rejection	NA	0
19	Triplet	160	484	322	0	1	1	255534	692	1	hit	362	0
19	Triplet	161	485	323	8	0	0	256243	691	0	correct_rejection	NA	0
19	Triplet	162	486	324	7	0	0	256951	692	0	correct_rejection	NA	0
19	Nonet	1	487	325	7	0	0	267113	692	0	correct_rejection	NA	7619
19	Nonet	2	488	326	8	0	0	267822	691	0	correct_rejection	NA	0
19	Nonet	3	489	327	9	0	0	268530	692	0	correct_rejection	NA	0
19	Nonet	4	490	328	0	1	2	269239	691	1	hit	389	0
19	Nonet	5	491	329	7	0	0	269947	692	0	correct_rejection	NA	0
19	Nonet	6	492	330	8	0	0	270656	692	0	correct_rejection	NA	0
19	Nonet	7	493	331	9	0	0	271364	692	0	correct_rejection	NA	0
19	Nonet	8	494	332	7	0	0	272073	692	0	correct_rejection	NA	0
19	Nonet	9	495	333	8	0	0	272782	691	0	correct_rejection	NA	0
19	Nonet	10	496	334	9	0	0	273490	692	0	correct_rejection	NA	0
19	Nonet	11	497	335	7	0	0	274199	691	0	correct_rejection	NA	0
19	Nonet	12	498	336	8	0	0	274907	692	0	correct_rejection	NA	0
19	Nonet	13	499	337	0	1	1	275616	691	1	hit	373	0
19	Nonet	14	500	338	9	0	0	276324	692	0	correct_rejection	NA	0
19	Nonet	15	501	339	7	0	0	277033	692	0	correct_rejection	NA	0
19	Nonet	16	502	340	0	1	1	277741	692	1	hit	342	0
19	Nonet	17	503	341	8	0	0	278450	692	0	correct_rejection	NA	0
19	Nonet	18	504	342	9	0	0	279159	691	0	correct_rejection	NA	0
19	Nonet	19	505	343	7	0	0	279867	692	0	correct_rejection	NA	0
19	Nonet	20	506	344	8	0	0	280576	691	0	correct_rejection	NA	0
19	Nonet	21	507	345	9	0	0	281284	692	0	correct_rejection	NA	0
19	Nonet	22	508	346	9	0	0	281993	692	0	correct_rejection	NA	0
19	Nonet	23	509	347	8	0	0	282701	692	0	correct_rejection	NA	0
19	Nonet	24	510	348	7	0	0	283410	692	0	correct_rejection	NA	0
19	Nonet	25	511	349	9	0	0	284119	691	0	correct_rejection	NA	0
19	Nonet	26	512	350	8	0	0	284827	692	0	correct_rejection	NA	0
19	Nonet	27	513	351	7	0	0	285536	691	0	correct_rejection	NA	0
19	Nonet	28	514	352	9	0	0	286244	692	0	correct_rejection	NA	0
19	Nonet	29	515	353	0	1	1	286953	692	1	hit	369	0
19	Nonet	30	516	354	8	0	0	287661	692	0	correct_rejection	NA	0
19	Nonet	31	517	355	7	0	0	288370	692	0	correct_rejection	NA	0
19	Nonet	32	518	356	9	0	0	289079	691	0	correct_rejection	NA	0
19	Nonet	33	519	357	8	0	0	289787	692	0	correct_rejection	NA	0
19	Nonet	34	520	358	7	0	0	290496	691	0	correct_rejection	NA	0
19	Nonet	35	521	359	9	0	0	291204	692	0	correct_rejection	NA	0
19	Nonet	36	522	360	0	1	1	291913	692	1	hit	371	0
19	Nonet	37	523	361	8	0	0	292621	692	0	correct_rejection	NA	0
19	Nonet	38	524	362	7	0	0	293330	692	0	correct_rejection	NA	0
19	Nonet	39	525	363	9	0	0	294039	691	0	correct_rejection	NA	0
19	Nonet	40	526	364	8	0	0	294747	692	0	correct_rejection	NA	0
19	Nonet	41	527	365	7	0	0	295456	691	0	correct_rejection	NA	0
19	Nonet	42	528	366	4	0	0	296164	692	0	correct_rejection	NA	0
19	Nonet	43	529	367	5	0	0	296873	692	0	correct_rejection	NA	0
19	Nonet	44	530	368	6	0	0	297581	692	0	correct_rejection	NA	0
19	Nonet	45	531	369	4	0	0	298290	692	0	correct_rejection	NA	0
19	Nonet	46	532	370	5	0	0	298999	691	0	correct_rejection	NA	0
19	Nonet	47	533	371	0	1	1	299707	692	1	hit	367	0
19	Nonet	48	534	372	6	0	0	300416	691	0	correct_rejection	NA	0
19	Nonet	49	535	373	4	0	0	301124	692	0	correct_rejection	NA	0
19	Nonet	50	536	374	5	0	0	301833	692	0	correct_rejection	NA	0
19	Nonet	51	537	375	6	0	0	302541	692	0	correct_rejection	NA	0
19	Nonet	52	538	376	6	0	0	303250	692	0	correct_rejection	NA	0
19	Nonet	53	539	377	5	0	0	303959	691	0	correct_rejection	NA	0
19	Nonet	54	540	378	4	0	0	304667	692	0	correct_rejection	NA	0
19	Nonet	55	541	379	6	0	0	305376	691	0	correct_rejection	NA	0
19	Nonet	56	542	380	5	0	0	306084	692	0	correct_rejection	NA	0
19	Nonet	57	543	381	4	0	0	306793	691	0	correct_rejection	NA	0
19	Nonet	58	544	382	6	0	0	307501	692	0	correct_rejection	NA	0
19	Nonet	59	545	383	5	0	0	308210	692	0	correct_rejection	NA	0
19	Nonet	60	546	384	4	0	0	308918	692	0	correct_rejection	NA	0
19	Nonet	61	547	385	4	0	0	309627	692	0	correct_rejection	NA	0
19	Nonet	62	548	386	5	0	0	310336	691	0	correct_rejection	NA	0
19	Nonet	63	549	387	6	0	0	311044	692	0	correct_rejection	NA	0
19	Nonet	64	550	388	4	0	0	311753	691	0	correct_rejection	NA	0
19	Nonet	65	551	389	5	0	0	312461	692	0	correct_rejection	NA	0
19	Nonet	66	552	390	6	0	0	313170	692	0	correct_rejection	NA	0
19	Nonet	67	553	391	0	1	2	313878	692	1	hit	386	0
19	Nonet	68	554	392	4	0	0	314587	692	0	correct_rejection	NA	0
19	Nonet	69	555	393	5	0	0	315296	691	0	correct_rejection	NA	0
19	Nonet	70	556	394	6	0	0	316004	692	0	correct_rejection	NA	0
19	Nonet	71	557	395	7	0	0	316713	691	0	correct_rejection	NA	0
19	Nonet	72	558	396	8	0	0	317421	692	0	correct_rejection	NA	0
19	Nonet	73	559	397	9	0	0	318130	692	0	correct_rejection	NA	0
19	Nonet	74	560	398	7	0	0	318838	692	0	correct_rejection	NA	0
19	Nonet	75	561	399	8	0	0	319547	692	0	correct_rejection	NA	0
19	Nonet	76	562	400	9	0	0	320256	691	0	correct_rejection	NA	0
19	Nonet	77	563	401	7	0	0	320964	692	0	correct_rejection	NA	0
19	Nonet	78	564	402	8	0	0	321673	691	0	correct_rejection	NA	0
19	Nonet	79	565	403	9	0	0	322381	692	0	correct_rejection	NA	0
19	Nonet	80	566	404	6	0	0	323090	692	0	correct_rejection	NA	0
19	Nonet	81	567	405	5	0	0	323798	692	0	correct_rejection	NA	0
19	Nonet	82	568	406	0	1	1	324507	692	1	hit	398	0
19	Nonet	83	569	407	4	0	0	325216	691	0	correct_rejection	NA	0
19	Nonet	84	570	408	6	0	0	325924	692	0	correct_rejection	NA	0
19	Nonet	85	571	409	5	0	0	326633	691	0	correct_rejection	NA	0
19	Nonet	86	572	410	4	0	0	327341	692	0	correct_rejection	NA	0
19	Nonet	87	573	411	0	1	2	328050	692	1	hit	363	0
19	Nonet	88	574	412	6	0	0	328758	692	0	correct_rejection	NA	0
19	Nonet	89	575	413	5	0	0	329467	692	0	correct_rejection	NA	0
19	Nonet	90	576	414	4	0	0	330176	691	0	correct_rejection	NA	0
19	Nonet	91	577	415	9	0	0	330884	692	0	correct_rejection	NA	0
19	Nonet	92	578	416	8	0	0	331593	691	0	correct_rejection	NA	0
19	Nonet	93	579	417	7	0	0	332301	692	0	correct_rejection	NA	0
19	Nonet	94	580	418	9	0	0	333010	691	0	correct_rejection	NA	0
19	Nonet	95	581	419	8	0	0	333718	692	0	correct_rejection	NA	0
19	Nonet	96	582	420	7	0	0	334427	692	0	correct_rejection	NA	0
19	Nonet	97	583	421	0	1	2	335136	691	1	hit	394	0
19	Nonet	98	584	422	9	0	0	335844	692	0	correct_rejection	NA	0
19	Nonet	99	585	423	8	0	0	336553	691	0	correct_rejection	NA	0
19	Nonet	100	586	424	7	0	0	337261	692	0	correct_rejection	NA	0
19	Nonet	101	587	425	6	0	0	337970	691	0	correct_rejection	NA	0
19	Nonet	102	588	426	5	0	0	338678	692	0	correct_rejection	NA	0
19	Nonet	103	589	427	0	1	1	339387	692	1	hit	472	0
19	Nonet	104	590	428	4	0	0	340095	692	0	correct_rejection	NA	0
19	Nonet	105	591	429	6	0	0	340804	692	0	correct_rejection	NA	0
19	Nonet	106	592	430	5	0	0	341513	691	0	correct_rejection	NA	0
19	Nonet	107	593	431	4	0	0	342221	692	0	correct_rejection	NA	0
19	Nonet	108	594	432	6	0	0	342930	691	0	correct_rejection	NA	0
19	Nonet	109	595	433	5	0	0	343638	692	0	correct_rejection	NA	0
19	Nonet	110	596	434	4	0	0	344347	692	0	correct_rejection	NA	0
19	Nonet	111	597	435	6	0	0	345055	692	0	correct_rejection	NA	0
19	Nonet	112	598	436	5	0	0	345764	692	0	correct_rejection	NA	0
19	Nonet	113	599	437	4	0	0	346473	691	0	correct_rejection	NA	0
19	Nonet	114	600	438	6	0	0	347181	692	0	correct_rejection	NA	0
19	Nonet	115	601	439	5	0	0	347890	691	0	correct_rejection	NA	0
19	Nonet	116	602	440	4	0	0	348598	692	0	correct_rejection	NA	0
19	Nonet	117	603	441	6	0	0	349307	692	0	correct_rejection	NA	0
19	Nonet	118	604	442	0	1	1	350015	692	1	hit	362	0
19	Nonet	119	605	443	5	0	0	350724	692	0	correct_rejection	NA	0
19	Nonet	120	606	444	4	0	0	351433	691	0	correct_rejection	NA	0
19	Nonet	121	607	445	7	0	0	352141	692	0	correct_rejection	NA	0
19	Nonet	122	608	446	8	0	0	352850	691	0	correct_rejection	NA	0
19	Nonet	123	609	447	0	1	1	353558	692	1	hit	360	0
19	Nonet	124	610	448	9	0	0	354267	692	0	correct_rejection	NA	0
19	Nonet	125	611	449	7	0	0	354975	692	0	correct_rejection	NA	0
19	Nonet	126	612	450	0	1	1	355684	692	1	hit	371	0
19	Nonet	127	613	451	8	0	0	356393	691	0	correct_rejection	NA	0
19	Nonet	128	614	452	9	0	0	357101	692	0	correct_rejection	NA	0
19	Nonet	129	615	453	0	1	2	357810	691	1	hit	356	0
19	Nonet	130	616	454	7	0	0	358518	692	0	correct_rejection	NA	0
19	Nonet	131	617	455	8	0	0	359227	692	0	correct_rejection	NA	0
19	Nonet	132	618	456	9	0	0	359935	692	0	correct_rejection	NA	0
19	Nonet	133	619	457	4	0	0	360644	692	0	correct_rejection	NA	0
19	Nonet	134	620	458	5	0	0	361353	691	0	correct_rejection	NA	0
19	Nonet	135	621	459	6	0	0	362061	692	0	correct_rejection	NA	0
19	Nonet	136	622	460	4	0	0	362770	691	0	correct_rejection	NA	0
19	Nonet	137	623	461	5	0	0	363478	692	0	correct_rejection	NA	0
19	Nonet	138	624	462	6	0	0	364187	691	0	correct_rejection	NA	0
19	Nonet	139	625	463	4	0	0	364895	692	0	correct_rejection	NA	0
19	Nonet	140	626	464	5	0	0	365604	692	0	correct_rejection	NA	0
19	Nonet	141	627	465	6	0	0	366313	691	0	correct_rejection	NA	0
19	Nonet	142	628	466	4	0	0	367021	692	0	correct_rejection	NA	0
19	Nonet	143	629	467	5	0	0	367730	691	0	correct_rejection	NA	0
19	Nonet	144	630	468	6	0	0	368438	692	0	correct_rejection	NA	0
19	Nonet	145	631	469	4	0	0	369147	691	0	correct_rejection	NA	0
19	Nonet	146	632	470	0	1	1	369855	692	1	hit	381	0
19	Nonet	147	633	471	5	0	0	370564	692	0	correct_rejection	NA	0
19	Nonet	148	634	472	6	0	0	371272	692	0	correct_rejection	NA	0
19	Nonet	149	635	473	0	1	2	371981	692	1	hit	446	0
19	Nonet	150	636	474	4	0	0	372690	691	0	correct_rejection	NA	0
19	Nonet	151	637	475	5	0	0	373398	692	0	correct_rejection	NA	0
19	Nonet	152	638	476	6	0	0	374107	691	0	correct_rejection	NA	0
19	Nonet	153	639	477	9	0	0	374815	692	0	correct_rejection	NA	0
19	Nonet	154	640	478	8	0	0	375524	692	0	correct_rejection	NA	0
19	Nonet	155	641	479	7	0	0	376232	692	0	correct_rejection	NA	0
19	Nonet	156	642	480	9	0	0	376941	692	0	correct_rejection	NA	0
19	Nonet	157	643	481	8	0	0	377650	691	0	correct_rejection	NA	0
19	Nonet	158	644	482	7	0	0	378358	692	0	correct_rejection	NA	0
19	Nonet	159	645	483	9	0	0	379067	691	0	correct_rejection	NA	0
19	Nonet	160	646	484	8	0	0	379775	692	0	correct_rejection	NA	0
19	Nonet	161	647	485	0	1	1	380484	692	1	hit	365	0
19	Nonet	162	648	486	7	0	0	381192	692	0	correct_rejection	NA	0
19	Correct	1	487	487	4	0	0	391196	691	0	correct_rejection	NA	7709
19	Correct	2	488	488	5	0	0	391904	692	0	correct_rejection	NA	0
19	Correct	3	489	489	6	0	0	392613	692	0	correct_rejection	NA	0
19	Correct	4	490	490	4	0	0	393321	692	0	correct_rejection	NA	0
19	Correct	5	491	491	0	1	1	394030	692	1	hit	405	0
19	Correct	6	492	492	5	0	0	394739	691	0	correct_rejection	NA	0
19	Correct	7	493	493	6	0	0	395447	692	0	correct_rejection	NA	0
19	Correct	8	494	494	0	1	2	396156	691	1	hit	395	0
19	Correct	9	495	495	4	0	0	396864	692	0	correct_rejection	NA	0
19	Correct	10	496	496	5	0	0	397573	692	0	correct_rejection	NA	0
19	Correct	11	497	497	6	0	0	398281	692	0	correct_rejection	NA	0
19	Correct	12	498	498	6	0	0	398990	692	0	correct_rejection	NA	0
19	Correct	13	499	499	5	0	0	399699	691	0	correct_rejection	NA	0
19	Correct	14	500	500	4	0	0	400407	692	0	correct_rejection	NA	0
19	Correct	15	501	501	0	1	2	401116	691	1	hit	399	0
19	Correct	16	502	502	6	0	0	401824	692	0	correct_rejection	NA	0
19	Correct	17	503	503	5	0	0	402533	692	0	correct_rejection	NA	0
19	Correct	18	504	504	4	0	0	403241	692	0	correct_rejection	NA	0
19	Correct	19	505	505	6	0	0	403950	692	0	correct_rejection	NA	0
19	Correct	20	506	506	0	1	1	404659	691	1	hit	411	0
19	Correct	21	507	507	5	0	0	405367	692	0	correct_rejection	NA	0
19	Correct	22	508	508	4	0	0	406076	691	0	correct_rejection	NA	0
19	Correct	23	509	509	9	0	0	406784	692	0	correct_rejection	NA	0
19	Correct	24	510	510	8	0	0	407493	692	0	correct_rejection	NA	0
19	Correct	25	511	511	7	0	0	408201	692	0	correct_rejection	NA	0
19	Correct	26	512	512	9	0	0	408910	692	0	correct_rejection	NA	0
19	Correct	27	513	513	0	1	1	409619	691	1	hit	418	0
19	Correct	28	514	514	8	0	0	410327	692	0	correct_rejection	NA	0
19	Correct	29	515	515	7	0	0	411036	691	0	correct_rejection	NA	0
19	Correct	30	516	516	9	0	0	411744	692	0	correct_rejection	NA	0
19	Correct	31	517	517	8	0	0	412453	692	0	correct_rejection	NA	0
19	Correct	32	518	518	0	1	1	413161	692	1	hit	334	0
19	Correct	33	519	519	7	0	0	413870	692	0	correct_rejection	NA	0
19	Correct	34	520	520	7	0	0	414578	692	0	correct_rejection	NA	0
19	Correct	35	521	521	8	0	0	415287	692	0	correct_rejection	NA	0
19	Correct	36	522	522	9	0	0	415996	691	0	correct_rejection	NA	0
19	Correct	37	523	523	7	0	0	416704	692	0	correct_rejection	NA	0
19	Correct	38	524	524	8	0	0	417413	691	0	correct_rejection	NA	0
19	Correct	39	525	525	9	0	0	418121	692	0	correct_rejection	NA	0
19	Correct	40	526	526	7	0	0	418830	692	0	correct_rejection	NA	0
19	Correct	41	527	527	8	0	0	419538	692	0	correct_rejection	NA	0
19	Correct	42	528	528	9	0	0	420247	692	0	correct_rejection	NA	0
19	Correct	43	529	529	4	0	0	420956	691	0	correct_rejection	NA	0
19	Correct	44	530	530	5	0	0	421664	692	0	correct_rejection	NA	0
19	Correct	45	531	531	6	0	0	422373	691	0	correct_rejection	NA	0
19	Correct	46	532	532	4	0	0	423081	692	0	correct_rejection	NA	0
19	Correct	47	533	533	5	0	0	423790	692	0	correct_rejection	NA	0
19	Correct	48	534	534	6	0	0	424498	692	0	correct_rejection	NA	0
19	Correct	49	535	535	4	0	0	425207	692	0	correct_rejection	NA	0
19	Correct	50	536	536	5	0	0	425916	691	0	correct_rejection	NA	0
19	Correct	51	537	537	0	1	1	426624	692	1	hit	405	0
19	Correct	52	538	538	6	0	0	427333	691	0	correct_rejection	NA	0
19	Correct	53	539	539	6	0	0	428041	692	0	correct_rejection	NA	0
19	Correct	54	540	540	5	0	0	428750	692	0	correct_rejection	NA	0
19	Correct	55	541	541	4	0	0	429458	692	0	correct_rejection	NA	0
19	Correct	56	542	542	6	0	0	430167	692	0	correct_rejection	NA	0
19	Correct	57	543	543	5	0	0	430876	691	0	correct_rejection	NA	0
19	Correct	58	544	544	4	0	0	431584	692	0	correct_rejection	NA	0
19	Correct	59	545	545	0	1	2	432293	691	1	hit	365	0
19	Correct	60	546	546	6	0	0	433001	692	0	correct_rejection	NA	0
19	Correct	61	547	547	5	0	0	433710	692	0	correct_rejection	NA	0
19	Correct	62	548	548	0	1	1	434418	692	1	hit	509	0
19	Correct	63	549	549	4	0	0	435127	692	0	correct_rejection	NA	0
19	Correct	64	550	550	9	0	0	435836	691	0	correct_rejection	NA	0
19	Correct	65	551	551	0	1	1	436544	692	1	hit	366	0
19	Correct	66	552	552	8	0	0	437253	691	0	correct_rejection	NA	0
19	Correct	67	553	553	7	0	0	437961	692	0	correct_rejection	NA	0
19	Correct	68	554	554	9	0	0	438670	692	0	correct_rejection	NA	0
19	Correct	69	555	555	8	0	0	439378	692	0	correct_rejection	NA	0
19	Correct	70	556	556	0	1	1	440087	692	1	hit	333	0
19	Correct	71	557	557	7	0	0	440796	691	0	correct_rejection	NA	0
19	Correct	72	558	558	9	0	0	441504	692	0	correct_rejection	NA	0
19	Correct	73	559	559	8	0	0	442213	691	0	correct_rejection	NA	0
19	Correct	74	560	560	7	0	0	442921	692	0	correct_rejection	NA	0
19	Correct	75	561	561	7	0	0	443630	691	0	correct_rejection	NA	0
19	Correct	76	562	562	8	0	0	444338	692	0	correct_rejection	NA	0
19	Correct	77	563	563	9	0	0	445047	692	0	correct_rejection	NA	0
19	Correct	78	564	564	7	0	0	445755	692	0	correct_rejection	NA	0
19	Correct	79	565	565	8	0	0	446464	692	0	correct_rejection	NA	0
19	Correct	80	566	566	9	0	0	447173	691	0	correct_rejection	NA	0
19	Correct	81	567	567	7	0	0	447881	692	0	correct_rejection	NA	0
19	Correct	82	568	568	8	0	0	448590	691	0	correct_rejection	NA	0
19	Correct	83	569	569	9	0	0	449298	692	0	correct_rejection	NA	0
19	Correct	84	570	570	4	0	0	450007	692	0	correct_rejection	NA	0
19	Correct	85	571	571	5	0	0	450715	692	0	correct_rejection	NA	0
19	Correct	86	572	572	6	0	0	451424	692	0	correct_rejection	NA	0
19	Correct	87	573	573	4	0	0	452133	691	0	correct_rejection	NA	0
19	Correct	88	574	574	5	0	0	452841	692	0	correct_rejection	NA	0
19	Correct	89	575	575	0	1	1	453550	691	1	hit	379	0
19	Correct	90	576	576	6	0	0	454258	692	0	correct_rejection	NA	0
19	Correct	91	577	577	4	0	0	454967	692	0	correct_rejection	NA	0
19	Correct	92	578	578	5	0	0	455675	692	0	correct_rejection	NA	0
19	Correct	93	579	579	6	0	0	456384	692	0	correct_rejection	NA	0
19	Correct	94	580	580	6	0	0	457093	691	0	correct_rejection	NA	0
19	Correct	95	581	581	0	1	1	457801	692	1	hit	427	0
19	Correct	96	582	582	5	0	0	458510	691	0	correct_rejection	NA	0
19	Correct	97	583	583	4	0	0	459218	692	0	correct_rejection	NA	0
19	Correct	98	584	584	6	0	0	459927	692	0	correct_rejection	NA	0
19	Correct	99	585	585	5	0	0	460635	692	0	correct_rejection	NA	0
19	Correct	100	586	586	4	0	0	461344	692	0	correct_rejection	NA	0
19	Correct	101	587	587	6	0	0	462053	691	0	correct_rejection	NA	0
19	Correct	102	588	588	5	0	0	462761	692	0	correct_rejection	NA	0
19	Correct	103	589	589	4	0	0	463470	691	0	correct_rejection	NA	0
19	Correct	104	590	590	9	0	0	464178	692	0	correct_rejection	NA	0
19	Correct	105	591	591	8	0	0	464887	692	0	correct_rejection	NA	0
19	Correct	106	592	592	7	0	0	465595	692	0	correct_rejection	NA	0
19	Correct	107	593	593	9	0	0	466304	692	0	correct_rejection	NA	0
19	Correct	108	594	594	8	0	0	467013	691	0	correct_rejection	NA	0
19	Correct	109	595	595	7	0	0	467721	692	0	correct_rejection	NA	0
19	Correct	110	596	596	9	0	0	468430	691	0	correct_rejection	NA	0
19	Correct	111	597	597	8	0	0	469138	692	0	correct_rejection	NA	0
19	Correct	112	598	598	7	0	0	469847	692	0	correct_rejection	NA	0
19	Correct	113	599	599	7	0	0	470555	692	0	correct_rejection	NA	0
19	Correct	114	600	600	8	0	0	471264	692	0	correct_rejection	NA	0
19	Correct	115	601	601	0	1	1	471973	691	1	hit	367	0
19	Correct	116	602	602	9	0	0	472681	692	0	correct_rejection	NA	0
19	Correct	117	603	603	7	0	0	473390	691	0	correct_rejection	NA	0
19	Correct	118	604	604	8	0	0	474098	692	0	correct_rejection	NA	0
19	Correct	119	605	605	9	0	0	474807	691	0	correct_rejection	NA	0
19	Correct	120	606	606	7	0	0	475515	692	0	correct_rejection	NA	0
19	Correct	121	607	607	8	0	0	476224	692	0	correct_rejection	NA	0
19	Correct	122	608	608	9	0	0	476932	692	0	correct_rejection	NA	0
19	Correct	123	609	609	0	1	4	477641	692	1	hit	393	0
19	Correct	124	610	610	4	0	0	478350	691	0	correct_rejection	NA	0
19	Correct	125	611	611	5	0	0	479058	692	0	correct_rejection	NA	0
19	Correct	126	612	612	6	0	0	479767	691	0	correct_rejection	NA	0
19	Correct	127	613	613	4	0	0	480475	692	0	correct_rejection	NA	0
19	Correct	128	614	614	5	0	0	481184	692	0	correct_rejection	NA	0
19	Correct	129	615	615	6	0	0	481892	692	0	correct_rejection	NA	0
19	Correct	130	616	616	0	1	2	482601	692	1	hit	367	0
19	Correct	131	617	617	4	0	0	483310	691	0	correct_rejection	NA	0
19	Correct	132	618	618	5	0	0	484018	692	0	correct_rejection	NA	0
19	Correct	133	619	619	6	0	0	484727	691	0	correct_rejection	NA	0
19	Correct	134	620	620	6	0	0	485435	692	0	correct_rejection	NA	0
19	Correct	135	621	621	5	0	0	486144	692	0	correct_rejection	NA	0
19	Correct	136	622	622	4	0	0	486852	692	0	correct_rejection	NA	0
19	Correct	137	623	623	6	0	0	487561	692	0	correct_rejection	NA	0
19	Correct	138	624	624	5	0	0	488270	691	0	correct_rejection	NA	0
19	Correct	139	625	625	0	1	1	488978	692	1	hit	373	0
19	Correct	140	626	626	4	0	0	489687	691	0	correct_rejection	NA	0
19	Correct	141	627	627	6	0	0	490395	692	0	correct_rejection	NA	0
19	Correct	142	628	628	5	0	0	491104	692	0	correct_rejection	NA	0
19	Correct	143	629	629	4	0	0	491812	692	0	correct_rejection	NA	0
19	Correct	144	630	630	0	1	3	492521	692	1	hit	321	0
19	Correct	145	631	631	9	0	0	493230	691	0	correct_rejection	NA	0
19	Correct	146	632	632	8	0	0	493938	692	0	correct_rejection	NA	0
19	Correct	147	633	633	7	0	0	494647	691	0	correct_rejection	NA	0
19	Correct	148	634	634	9	0	0	495355	692	0	correct_rejection	NA	0
19	Correct	149	635	635	8	0	0	496064	692	0	correct_rejection	NA	0
19	Correct	150	636	636	7	0	0	496772	692	0	correct_rejection	NA	0
19	Correct	151	637	637	9	0	0	497481	692	0	correct_rejection	NA	0
19	Correct	152	638	638	8	0	0	498190	691	0	correct_rejection	NA	0
19	Correct	153	639	639	7	0	0	498898	692	0	correct_rejection	NA	0
19	Correct	154	640	640	7	0	0	499607	691	0	correct_rejection	NA	0
19	Correct	155	641	641	8	0	0	500315	692	0	correct_rejection	NA	0
19	Correct	156	642	642	9	0	0	501024	691	0	correct_rejection	NA	0
19	Correct	157	643	643	7	0	0	501732	692	0	correct_rejection	NA	0
19	Correct	158	644	644	8	0	0	502441	692	0	correct_rejection	NA	0
19	Correct	159	645	645	9	0	0	503150	691	0	correct_rejection	NA	0
19	Correct	160	646	646	7	0	0	503858	692	0	correct_rejection	NA	0
19	Correct	161	647	647	8	0	0	504567	691	0	correct_rejection	NA	0
19	Correct	162	648	648	9	0	0	505275	692	0	correct_rejection	NA	0
19	Single	1	1	649	9	0	0	515445	692	0	correct_rejection	NA	7958
19	Single	2	2	650	5	0	0	516154	692	0	correct_rejection	NA	0
19	Single	3	3	651	4	0	0	516862	692	0	correct_rejection	NA	0
19	Single	4	4	652	7	0	0	517571	692	0	correct_rejection	NA	0
19	Single	5	5	653	9	0	0	518280	691	0	correct_rejection	NA	0
19	Single	6	6	654	4	0	0	518988	692	0	correct_rejection	NA	0
19	Single	7	7	655	4	0	0	519697	691	0	correct_rejection	NA	0
19	Single	8	8	656	5	0	0	520405	692	0	correct_rejection	NA	0
19	Single	9	9	657	0	1	1	521114	691	1	hit	456	0
19	Single	10	10	658	8	0	0	521822	692	0	correct_rejection	NA	0
19	Single	11	11	659	7	0	0	522531	692	0	correct_rejection	NA	0
19	Single	12	12	660	5	0	0	523239	692	0	correct_rejection	NA	0
19	Single	13	13	661	7	0	0	523948	692	0	correct_rejection	NA	0
19	Single	14	14	662	0	1	1	524657	691	1	hit	346	0
19	Single	15	15	663	7	0	0	525365	692	0	correct_rejection	NA	0
19	Single	16	16	664	8	0	0	526074	691	0	correct_rejection	NA	0
19	Single	17	17	665	9	0	0	526782	692	0	correct_rejection	NA	0
19	Single	18	18	666	8	0	0	527491	692	0	correct_rejection	NA	0
19	Single	19	19	667	6	0	0	528199	692	0	correct_rejection	NA	0
19	Single	20	20	668	4	0	0	528908	692	0	correct_rejection	NA	0
19	Single	21	21	669	0	1	1	529617	691	1	hit	415	0
19	Single	22	22	670	9	0	0	530325	692	0	correct_rejection	NA	0
19	Single	23	23	671	9	0	0	531034	691	0	correct_rejection	NA	0
19	Single	24	24	672	7	0	0	531742	692	0	correct_rejection	NA	0
19	Single	25	25	673	0	1	1	532451	692	1	hit	687	0
19	Single	26	26	674	6	0	0	533159	692	0	correct_rejection	NA	0
19	Single	27	27	675	6	0	0	533868	692	0	correct_rejection	NA	0
19	Single	28	28	676	8	0	0	534577	691	0	correct_rejection	NA	0
19	Single	29	29	677	5	0	0	535285	692	0	correct_rejection	NA	0
19	Single	30	30	678	6	0	0	535994	691	0	correct_rejection	NA	0
19	Single	31	31	679	0	1	1	536702	692	1	hit	329	0
19	Single	32	32	680	7	0	0	537411	692	0	correct_rejection	NA	0
19	Single	33	33	681	4	0	0	538119	692	0	correct_rejection	NA	0
19	Single	34	34	682	8	0	0	538828	692	0	correct_rejection	NA	0
19	Single	35	35	683	8	0	0	539537	691	0	correct_rejection	NA	0
19	Single	36	36	684	4	0	0	540245	692	0	correct_rejection	NA	0
19	Single	37	37	685	6	0	0	540954	691	0	correct_rejection	NA	0
19	Single	38	38	686	5	0	0	541662	692	0	correct_rejection	NA	0
19	Single	39	39	687	5	0	0	542371	692	0	correct_rejection	NA	0
19	Single	40	40	688	9	0	0	543079	692	0	correct_rejection	NA	0
19	Single	41	41	689	6	0	0	543788	692	0	correct_rejection	NA	0
19	Single	42	42	690	4	0	0	544497	691	0	correct_rejection	NA	0
19	Single	43	43	691	9	0	0	545205	692	0	correct_rejection	NA	0
19	Single	44	44	692	8	0	0	545914	691	0	correct_rejection	NA	0
19	Single	45	45	693	8	0	0	546622	692	0	correct_rejection	NA	0
19	Single	46	46	694	6	0	0	547331	692	0	correct_rejection	NA	0
19	Single	47	47	695	9	0	0	548039	692	0	correct_rejection	NA	0
19	Single	48	48	696	6	0	0	548748	692	0	correct_rejection	NA	0
19	Single	49	49	697	6	0	0	549457	691	0	correct_rejection	NA	0
19	Single	50	50	698	7	0	0	550165	692	0	correct_rejection	NA	0
19	Single	51	51	699	5	0	0	550874	691	0	correct_rejection	NA	0
19	Single	52	52	700	6	0	0	551582	692	0	correct_rejection	NA	0
19	Single	53	53	701	5	0	0	552291	691	0	correct_rejection	NA	0
19	Single	54	54	702	8	0	0	552999	692	0	correct_rejection	NA	0
19	Single	55	55	703	4	0	0	553708	692	0	correct_rejection	NA	0
19	Single	56	56	704	5	0	0	554416	692	0	correct_rejection	NA	0
19	Single	57	57	705	4	0	0	555125	692	0	correct_rejection	NA	0
19	Single	58	58	706	8	0	0	555834	691	0	correct_rejection	NA	0
19	Single	59	59	707	7	0	0	556542	692	0	correct_rejection	NA	0
19	Single	60	60	708	7	0	0	557251	691	0	correct_rejection	NA	0
19	Single	61	61	709	6	0	0	557959	692	0	correct_rejection	NA	0
19	Single	62	62	710	8	0	0	558668	692	0	correct_rejection	NA	0
19	Single	63	63	711	9	0	0	559376	692	0	correct_rejection	NA	0
19	Single	64	64	712	7	0	0	560085	692	0	correct_rejection	NA	0
19	Single	65	65	713	9	0	0	560794	691	0	correct_rejection	NA	0
19	Single	66	66	714	5	0	0	561502	692	0	correct_rejection	NA	0
19	Single	67	67	715	5	0	0	562211	691	0	correct_rejection	NA	0
19	Single	68	68	716	7	0	0	562919	692	0	correct_rejection	NA	0
19	Single	69	69	717	4	0	0	563628	692	0	correct_rejection	NA	0
19	Single	70	70	718	6	0	0	564336	692	0	correct_rejection	NA	0
19	Single	71	71	719	4	0	0	565045	692	0	correct_rejection	NA	0
19	Single	72	72	720	0	1	1	565754	691	1	hit	420	0
19	Single	73	73	721	4	0	0	566462	692	0	correct_rejection	NA	0
19	Single	74	74	722	7	0	0	567171	691	0	correct_rejection	NA	0
19	Single	75	75	723	0	1	1	567879	692	1	hit	406	0
19	Single	76	76	724	8	0	0	568588	692	0	correct_rejection	NA	0
19	Single	77	77	725	5	0	0	569296	692	0	correct_rejection	NA	0
19	Single	78	78	726	9	0	0	570005	692	0	correct_rejection	NA	0
19	Single	79	79	727	9	0	0	570714	691	0	correct_rejection	NA	0
19	Single	80	80	728	4	0	0	571422	692	0	correct_rejection	NA	0
19	Single	81	81	729	9	0	0	572131	691	0	correct_rejection	NA	0
19	Single	82	82	730	0	1	1	572839	692	1	hit	327	0
19	Single	83	83	731	6	0	0	573548	692	0	correct_rejection	NA	0
19	Single	84	84	732	4	0	0	574256	692	0	correct_rejection	NA	0
19	Single	85	85	733	6	0	0	574965	692	0	correct_rejection	NA	0
19	Single	86	86	734	8	0	0	575674	691	0	correct_rejection	NA	0
19	Single	87	87	735	0	1	1	576382	692	1	hit	350	0
19	Single	88	88	736	8	0	0	577091	691	0	correct_rejection	NA	0
19	Single	89	89	737	5	0	0	577799	692	0	correct_rejection	NA	0
19	Single	90	90	738	7	0	0	578508	692	0	correct_rejection	NA	0
19	Single	91	91	739	8	0	0	579216	692	0	correct_rejection	NA	0
19	Single	92	92	740	6	0	0	579925	692	0	correct_rejection	NA	0
19	Single	93	93	741	7	0	0	580634	691	0	correct_rejection	NA	0
19	Single	94	94	742	9	0	0	581342	692	0	correct_rejection	NA	0
19	Single	95	95	743	8	0	0	582051	691	0	correct_rejection	NA	0
19	Single	96	96	744	7	0	0	582759	692	0	correct_rejection	NA	0
19	Single	97	97	745	6	0	0	583468	691	0	correct_rejection	NA	0
19	Single	98	98	746	9	0	0	584176	692	0	correct_rejection	NA	0
19	Single	99	99	747	0	1	1	584885	692	1	hit	369	0
19	Single	100	100	748	7	0	0	585593	692	0	correct_rejection	NA	0
19	Single	101	101	749	7	0	0	586302	692	0	correct_rejection	NA	0
19	Single	102	102	750	4	0	0	587011	691	0	correct_rejection	NA	0
19	Single	103	103	751	5	0	0	587719	692	0	correct_rejection	NA	0
19	Single	104	104	752	5	0	0	588428	691	0	correct_rejection	NA	0
19	Single	105	105	753	8	0	0	589136	692	0	correct_rejection	NA	0
19	Single	106	106	754	9	0	0	589845	692	0	correct_rejection	NA	0
19	Single	107	107	755	0	1	1	590553	692	1	hit	345	0
19	Single	108	108	756	9	0	0	591262	692	0	correct_rejection	NA	0
19	Single	109	109	757	4	0	0	591971	691	0	correct_rejection	NA	0
19	Single	110	110	758	0	1	1	592679	692	1	hit	371	0
19	Single	111	111	759	8	0	0	593388	691	0	correct_rejection	NA	0
19	Single	112	112	760	4	0	0	594096	692	0	correct_rejection	NA	0
19	Single	113	113	761	0	1	1	594805	692	1	hit	361	0
19	Single	114	114	762	7	0	0	595513	692	0	correct_rejection	NA	0
19	Single	115	115	763	5	0	0	596222	692	0	correct_rejection	NA	0
19	Single	116	116	764	9	0	0	596931	691	0	correct_rejection	NA	0
19	Single	117	117	765	5	0	0	597639	692	0	correct_rejection	NA	0
19	Single	118	118	766	6	0	0	598348	691	0	correct_rejection	NA	0
19	Single	119	119	767	6	0	0	599056	692	0	correct_rejection	NA	0
19	Single	120	120	768	5	0	0	599765	692	0	correct_rejection	NA	0
19	Single	121	121	769	0	1	1	600473	692	1	hit	304	0
19	Single	122	122	770	4	0	0	601182	692	0	correct_rejection	NA	0
19	Single	123	123	771	9	0	0	601891	691	0	correct_rejection	NA	0
19	Single	124	124	772	7	0	0	602599	692	0	correct_rejection	NA	0
19	Single	125	125	773	6	0	0	603308	691	0	correct_rejection	NA	0
19	Single	126	126	774	4	0	0	604016	692	0	correct_rejection	NA	0
19	Single	127	127	775	9	0	0	604725	692	0	correct_rejection	NA	0
19	Single	128	128	776	4	0	0	605433	692	0	correct_rejection	NA	0
19	Single	129	129	777	4	0	0	606142	692	0	correct_rejection	NA	0
19	Single	130	130	778	8	0	0	606851	691	0	correct_rejection	NA	0
19	Single	131	131	779	5	0	0	607559	692	0	correct_rejection	NA	0
19	Single	132	132	780	8	0	0	608268	691	0	correct_rejection	NA	0
19	Single	133	133	781	6	0	0	608976	692	0	correct_rejection	NA	0
19	Single	134	134	782	8	0	0	609685	691	0	correct_rejection	NA	0
19	Single	135	135	783	4	0	0	610393	692	0	correct_rejection	NA	0
19	Single	136	136	784	6	0	0	611102	692	0	correct_rejection	NA	0
19	Single	137	137	785	0	1	1	611811	691	1	hit	350	0
19	Single	138	138	786	6	0	0	612519	692	0	correct_rejection	NA	0
19	Single	139	139	787	9	0	0	613228	691	0	correct_rejection	NA	0
19	Single	140	140	788	5	0	0	613936	692	0	correct_rejection	NA	0
19	Single	141	141	789	4	0	0	614645	691	0	correct_rejection	NA	0
19	Single	142	142	790	5	0	0	615353	692	0	correct_rejection	NA	0
19	Single	143	143	791	0	1	1	616062	692	1	hit	602	0
19	Single	144	144	792	6	0	0	616770	692	0	correct_rejection	NA	0
19	Single	145	145	793	7	0	0	617479	692	0	correct_rejection	NA	0
19	Single	146	146	794	8	0	0	618188	691	0	correct_rejection	NA	0
19	Single	147	147	795	8	0	0	618896	692	0	correct_rejection	NA	0
19	Single	148	148	796	7	0	0	619605	691	0	correct_rejection	NA	0
19	Single	149	149	797	4	0	0	620313	692	0	correct_rejection	NA	0
19	Single	150	150	798	7	0	0	621022	692	0	correct_rejection	NA	0
19	Single	151	151	799	9	0	0	621730	692	0	correct_rejection	NA	0
19	Single	152	152	800	6	0	0	622439	692	0	correct_rejection	NA	0
19	Single	153	153	801	5	0	0	623148	691	0	correct_rejection	NA	0
19	Single	154	154	802	0	1	1	623856	692	1	hit	301	0
19	Single	155	155	803	7	0	0	624565	691	0	correct_rejection	NA	0
19	Single	156	156	804	7	0	0	625273	692	0	correct_rejection	NA	0
19	Single	157	157	805	0	1	1	625982	692	1	hit	358	0
19	Single	158	158	806	5	0	0	626690	692	0	correct_rejection	NA	0
19	Single	159	159	807	5	0	0	627399	692	0	correct_rejection	NA	0
19	Single	160	160	808	9	0	0	628108	691	0	correct_rejection	NA	0
19	Single	161	161	809	8	0	0	628816	692	0	correct_rejection	NA	0
19	Single	162	162	810	9	0	0	629525	691	0	correct_rejection	NA	0
trigger nr 621 at 631442
trigger nr 625 at 704839
19	Correct	1	163	811	4	0	0	711368	692	0	correct_rejection	NA	6489
19	Correct	2	164	812	5	0	0	712077	692	0	correct_rejection	NA	0
19	Correct	3	165	813	6	0	0	712786	691	0	correct_rejection	NA	0
19	Correct	4	166	814	4	0	0	713494	692	0	correct_rejection	NA	0
19	Correct	5	167	815	5	0	0	714203	691	0	correct_rejection	NA	0
19	Correct	6	168	816	6	0	0	714911	692	0	correct_rejection	NA	0
19	Correct	7	169	817	4	0	0	715620	692	0	correct_rejection	NA	0
19	Correct	8	170	818	0	1	1	716328	692	1	hit	411	0
19	Correct	9	171	819	5	0	0	717037	692	0	correct_rejection	NA	0
19	Correct	10	172	820	6	0	0	717746	691	0	correct_rejection	NA	0
19	Correct	11	173	821	6	0	0	718454	692	0	correct_rejection	NA	0
19	Correct	12	174	822	5	0	0	719163	691	0	correct_rejection	NA	0
19	Correct	13	175	823	4	0	0	719871	692	0	correct_rejection	NA	0
19	Correct	14	176	824	0	1	2	720580	692	1	hit	333	0
19	Correct	15	177	825	6	0	0	721288	692	0	correct_rejection	NA	0
19	Correct	16	178	826	5	0	0	721997	692	0	correct_rejection	NA	0
19	Correct	17	179	827	4	0	0	722706	691	0	correct_rejection	NA	0
19	Correct	18	180	828	6	0	0	723414	692	0	correct_rejection	NA	0
19	Correct	19	181	829	5	0	0	724123	691	0	correct_rejection	NA	0
19	Correct	20	182	830	4	0	0	724831	692	0	correct_rejection	NA	0
19	Correct	21	183	831	0	1	3	725540	692	1	hit	476	0
19	Correct	22	184	832	9	0	0	726248	692	0	correct_rejection	NA	0
19	Correct	23	185	833	8	0	0	726957	692	0	correct_rejection	NA	0
19	Correct	24	186	834	7	0	0	727666	691	0	correct_rejection	NA	0
19	Correct	25	187	835	0	1	2	728374	692	1	hit	343	0
19	Correct	26	188	836	9	0	0	729083	691	0	correct_rejection	NA	0
19	Correct	27	189	837	8	0	0	729791	692	0	correct_rejection	NA	0
19	Correct	28	190	838	0	1	1	730500	692	1	hit	326	0
19	Correct	29	191	839	7	0	0	731208	692	0	correct_rejection	NA	0
19	Correct	30	192	840	9	0	0	731917	692	0	correct_rejection	NA	0
19	Correct	31	193	841	8	0	0	732626	691	0	correct_rejection	NA	0
19	Correct	32	194	842	7	0	0	733334	692	0	correct_rejection	NA	0
19	Correct	33	195	843	0	1	3	734043	691	1	hit	321	0
19	Correct	34	196	844	7	0	0	734751	692	0	correct_rejection	NA	0
19	Correct	35	197	845	8	0	0	735460	691	0	correct_rejection	NA	0
19	Correct	36	198	846	9	0	0	736168	692	0	correct_rejection	NA	0
19	Correct	37	199	847	7	0	0	736877	692	0	correct_rejection	NA	0
19	Correct	38	200	848	8	0	0	737586	691	0	correct_rejection	NA	0
19	Correct	39	201	849	9	0	0	738294	692	0	correct_rejection	NA	0
19	Correct	40	202	850	7	0	0	739003	691	0	correct_rejection	NA	0
19	Correct	41	203	851	8	0	0	739711	692	0	correct_rejection	NA	0
19	Correct	42	204	852	9	0	0	740420	691	0	correct_rejection	NA	0
19	Correct	43	205	853	4	0	0	741128	692	0	correct_rejection	NA	0
19	Correct	44	206	854	5	0	0	741837	692	0	correct_rejection	NA	0
19	Correct	45	207	855	6	0	0	742545	692	0	correct_rejection	NA	0
19	Correct	46	208	856	4	0	0	743254	692	0	correct_rejection	NA	0
19	Correct	47	209	857	5	0	0	743963	691	0	correct_rejection	NA	0
19	Correct	48	210	858	6	0	0	744671	692	0	correct_rejection	NA	0
19	Correct	49	211	859	4	0	0	745380	691	0	correct_rejection	NA	0
19	Correct	50	212	860	5	0	0	746088	692	0	correct_rejection	NA	0
19	Correct	51	213	861	6	0	0	746797	692	0	correct_rejection	NA	0
19	Correct	52	214	862	6	0	0	747505	692	0	correct_rejection	NA	0
19	Correct	53	215	863	5	0	0	748214	692	0	correct_rejection	NA	0
19	Correct	54	216	864	4	0	0	748923	691	0	correct_rejection	NA	0
19	Correct	55	217	865	6	0	0	749631	692	0	correct_rejection	NA	0
19	Correct	56	218	866	5	0	0	750340	691	0	correct_rejection	NA	0
19	Correct	57	219	867	4	0	0	751048	692	0	correct_rejection	NA	0
19	Correct	58	220	868	6	0	0	751757	692	0	correct_rejection	NA	0
19	Correct	59	221	869	5	0	0	752465	692	0	correct_rejection	NA	0
19	Correct	60	222	870	0	1	1	753174	692	1	hit	369	0
19	Correct	61	223	871	4	0	0	753883	691	0	correct_rejection	NA	0
19	Correct	62	224	872	9	0	0	754591	692	0	correct_rejection	NA	0
19	Correct	63	225	873	0	1	1	755300	691	1	hit	432	0
19	Correct	64	226	874	8	0	0	756008	692	0	correct_rejection	NA	0
19	Correct	65	227	875	7	0	0	756717	692	0	correct_rejection	NA	0
19	Correct	66	228	876	9	0	0	757425	692	0	correct_rejection	NA	0
19	Correct	67	229	877	8	0	0	758134	692	0	correct_rejection	NA	0
19	Correct	68	230	878	7	0	0	758843	691	0	correct_rejection	NA	0
19	Correct	69	231	879	9	0	0	759551	692	0	correct_rejection	NA	0
19	Correct	70	232	880	8	0	0	760260	691	0	correct_rejection	NA	0
19	Correct	71	233	881	7	0	0	760968	692	0	correct_rejection	NA	0
19	Correct	72	234	882	7	0	0	761677	692	0	correct_rejection	NA	0
19	Correct	73	235	883	8	0	0	762385	692	0	correct_rejection	NA	0
19	Correct	74	236	884	0	1	1	763094	692	1	hit	349	0
19	Correct	75	237	885	9	0	0	763803	691	0	correct_rejection	NA	0
19	Correct	76	238	886	7	0	0	764511	692	0	correct_rejection	NA	0
19	Correct	77	239	887	0	1	1	765220	691	1	hit	383	0
19	Correct	78	240	888	8	0	0	765928	692	0	correct_rejection	NA	0
19	Correct	79	241	889	9	0	0	766637	691	0	correct_rejection	NA	0
19	Correct	80	242	890	7	0	0	767345	692	0	correct_rejection	NA	0
19	Correct	81	243	891	0	1	1	768054	692	1	hit	337	0
19	Correct	82	244	892	8	0	0	768763	691	0	correct_rejection	NA	0
19	Correct	83	245	893	9	0	0	769471	692	0	correct_rejection	NA	0
19	Correct	84	246	894	4	0	0	770180	691	0	correct_rejection	NA	0
19	Correct	85	247	895	5	0	0	770888	692	0	correct_rejection	NA	0
19	Correct	86	248	896	6	0	0	771597	691	0	correct_rejection	NA	0
19	Correct	87	249	897	0	1	2	772305	692	1	hit	328	0
19	Correct	88	250	898	4	0	0	773014	692	0	correct_rejection	NA	0
19	Correct	89	251	899	5	0	0	773722	692	0	correct_rejection	NA	0
19	Correct	90	252	900	6	0	0	774431	692	0	correct_rejection	NA	0
19	Correct	91	253	901	4	0	0	775140	691	0	correct_rejection	NA	0
19	Correct	92	254	902	5	0	0	775848	692	0	correct_rejection	NA	0
19	Correct	93	255	903	6	0	0	776557	691	0	correct_rejection	NA	0
19	Correct	94	256	904	6	0	0	777265	692	0	correct_rejection	NA	0
19	Correct	95	257	905	0	1	1	777974	692	1	hit	313	0
19	Correct	96	258	906	5	0	0	778682	692	0	correct_rejection	NA	0
19	Correct	97	259	907	4	0	0	779391	692	0	correct_rejection	NA	0
19	Correct	98	260	908	6	0	0	780100	691	0	correct_rejection	NA	0
19	Correct	99	261	909	5	0	0	780808	692	0	correct_rejection	NA	0
19	Correct	100	262	910	4	0	0	781517	691	0	correct_rejection	NA	0
19	Correct	101	263	911	6	0	0	782225	692	0	correct_rejection	NA	0
19	Correct	102	264	912	5	0	0	782934	692	0	correct_rejection	NA	0
19	Correct	103	265	913	4	0	0	783642	692	0	correct_rejection	NA	0
19	Correct	104	266	914	9	0	0	784351	692	0	correct_rejection	NA	0
19	Correct	105	267	915	8	0	0	785060	691	0	correct_rejection	NA	0
19	Correct	106	268	916	7	0	0	785768	692	0	correct_rejection	NA	0
19	Correct	107	269	917	9	0	0	786477	691	0	correct_rejection	NA	0
19	Correct	108	270	918	8	0	0	787185	692	0	correct_rejection	NA	0
19	Correct	109	271	919	7	0	0	787894	692	0	correct_rejection	NA	0
19	Correct	110	272	920	9	0	0	788602	692	0	correct_rejection	NA	0
19	Correct	111	273	921	8	0	0	789311	692	0	correct_rejection	NA	0
19	Correct	112	274	922	7	0	0	790020	691	0	correct_rejection	NA	0
19	Correct	113	275	923	7	0	0	790728	692	0	correct_rejection	NA	0
19	Correct	114	276	924	8	0	0	791437	691	0	correct_rejection	NA	0
19	Correct	115	277	925	0	1	1	792145	692	1	hit	365	0
19	Correct	116	278	926	9	0	0	792854	692	0	correct_rejection	NA	0
19	Correct	117	279	927	7	0	0	793562	692	0	correct_rejection	NA	0
19	Correct	118	280	928	8	0	0	794271	692	0	correct_rejection	NA	0
19	Correct	119	281	929	9	0	0	794980	691	0	correct_rejection	NA	0
19	Correct	120	282	930	0	1	2	795688	692	1	hit	341	0
19	Correct	121	283	931	7	0	0	796397	691	0	correct_rejection	NA	0
19	Correct	122	284	932	8	0	0	797105	692	0	correct_rejection	NA	0
19	Correct	123	285	933	9	0	0	797814	691	0	correct_rejection	NA	0
19	Correct	124	286	934	4	0	0	798522	692	0	correct_rejection	NA	0
19	Correct	125	287	935	5	0	0	799231	692	0	correct_rejection	NA	0
19	Correct	126	288	936	0	1	1	799940	691	1	hit	391	0
19	Correct	127	289	937	6	0	0	800648	692	0	correct_rejection	NA	0
19	Correct	128	290	938	4	0	0	801357	691	0	correct_rejection	NA	0
19	Correct	129	291	939	5	0	0	802065	692	0	correct_rejection	NA	0
19	Correct	130	292	940	6	0	0	802774	691	0	correct_rejection	NA	0
19	Correct	131	293	941	4	0	0	803482	692	0	correct_rejection	NA	0
19	Correct	132	294	942	5	0	0	804191	692	0	correct_rejection	NA	0
19	Correct	133	295	943	6	0	0	804899	692	0	correct_rejection	NA	0
19	Correct	134	296	944	6	0	0	805608	692	0	correct_rejection	NA	0
19	Correct	135	297	945	5	0	0	806317	691	0	correct_rejection	NA	0
19	Correct	136	298	946	4	0	0	807025	692	0	correct_rejection	NA	0
19	Correct	137	299	947	6	0	0	807734	691	0	correct_rejection	NA	0
19	Correct	138	300	948	5	0	0	808442	692	0	correct_rejection	NA	0
19	Correct	139	301	949	4	0	0	809151	692	0	correct_rejection	NA	0
19	Correct	140	302	950	6	0	0	809859	692	0	correct_rejection	NA	0
19	Correct	141	303	951	5	0	0	810568	692	0	correct_rejection	NA	0
19	Correct	142	304	952	4	0	0	811277	691	0	correct_rejection	NA	0
19	Correct	143	305	953	9	0	0	811985	692	0	correct_rejection	NA	0
19	Correct	144	306	954	8	0	0	812694	691	0	correct_rejection	NA	0
19	Correct	145	307	955	7	0	0	813402	692	0	correct_rejection	NA	0
19	Correct	146	308	956	9	0	0	814111	692	0	correct_rejection	NA	0
19	Correct	147	309	957	8	0	0	814819	692	0	correct_rejection	NA	0
19	Correct	148	310	958	0	1	1	815528	692	1	hit	321	0
19	Correct	149	311	959	7	0	0	816237	691	0	correct_rejection	NA	0
19	Correct	150	312	960	9	0	0	816945	692	0	correct_rejection	NA	0
19	Correct	151	313	961	8	0	0	817654	691	0	correct_rejection	NA	0
19	Correct	152	314	962	7	0	0	818362	692	0	correct_rejection	NA	0
19	Correct	153	315	963	7	0	0	819071	692	0	correct_rejection	NA	0
19	Correct	154	316	964	0	1	1	819779	692	1	hit	366	0
19	Correct	155	317	965	8	0	0	820488	692	0	correct_rejection	NA	0
19	Correct	156	318	966	9	0	0	821197	691	0	correct_rejection	NA	0
19	Correct	157	319	967	7	0	0	821905	692	0	correct_rejection	NA	0
19	Correct	158	320	968	8	0	0	822614	691	0	correct_rejection	NA	0
19	Correct	159	321	969	9	0	0	823322	692	0	correct_rejection	NA	0
19	Correct	160	322	970	7	0	0	824031	692	0	correct_rejection	NA	0
19	Correct	161	323	971	8	0	0	824739	692	0	correct_rejection	NA	0
19	Correct	162	324	972	9	0	0	825448	692	0	correct_rejection	NA	0
19	Triplet	1	163	973	6	0	0	835768	692	0	correct_rejection	NA	7899
19	Triplet	2	164	974	5	0	0	836477	691	0	correct_rejection	NA	0
19	Triplet	3	165	975	4	0	0	837185	692	0	correct_rejection	NA	0
19	Triplet	4	166	976	0	1	2	837894	691	1	hit	325	0
19	Triplet	5	167	977	6	0	0	838602	692	0	correct_rejection	NA	0
19	Triplet	6	168	978	5	0	0	839311	692	0	correct_rejection	NA	0
19	Triplet	7	169	979	0	1	1	840019	692	1	hit	322	0
19	Triplet	8	170	980	4	0	0	840728	692	0	correct_rejection	NA	0
19	Triplet	9	171	981	4	0	0	841437	691	0	correct_rejection	NA	0
19	Triplet	10	172	982	5	0	0	842145	692	0	correct_rejection	NA	0
19	Triplet	11	173	983	0	1	1	842854	691	1	hit	319	0
19	Triplet	12	174	984	6	0	0	843562	692	0	correct_rejection	NA	0
19	Triplet	13	175	985	9	0	0	844271	692	0	correct_rejection	NA	0
19	Triplet	14	176	986	8	0	0	844979	692	0	correct_rejection	NA	0
19	Triplet	15	177	987	7	0	0	845688	692	0	correct_rejection	NA	0
19	Triplet	16	178	988	6	0	0	846397	691	0	correct_rejection	NA	0
19	Triplet	17	179	989	0	1	1	847105	692	1	hit	288	0
19	Triplet	18	180	990	5	0	0	847814	691	0	correct_rejection	NA	0
19	Triplet	19	181	991	4	0	0	848522	692	0	correct_rejection	NA	0
19	Triplet	20	182	992	9	0	0	849231	692	0	correct_rejection	NA	0
19	Triplet	21	183	993	8	0	0	849939	692	0	correct_rejection	NA	0
19	Triplet	22	184	994	7	0	0	850648	692	0	correct_rejection	NA	0
19	Triplet	23	185	995	0	1	2	851357	691	1	hit	338	0
19	Triplet	24	186	996	7	0	0	852065	692	0	correct_rejection	NA	0
19	Triplet	25	187	997	8	0	0	852774	691	0	correct_rejection	NA	0
19	Triplet	26	188	998	9	0	0	853482	692	0	correct_rejection	NA	0
19	Triplet	27	189	999	6	0	0	854191	692	0	correct_rejection	NA	0
19	Triplet	28	190	1000	5	0	0	854899	692	0	correct_rejection	NA	0
19	Triplet	29	191	1001	0	1	1	855608	692	1	hit	305	0
19	Triplet	30	192	1002	4	0	0	856317	691	0	correct_rejection	NA	0
19	Triplet	31	193	1003	7	0	0	857025	692	0	correct_rejection	NA	0
19	Triplet	32	194	1004	8	0	0	857734	691	0	correct_rejection	NA	0
19	Triplet	33	195	1005	9	0	0	858442	692	0	correct_rejection	NA	0
19	Triplet	34	196	1006	7	0	0	859151	691	0	correct_rejection	NA	0
19	Triplet	35	197	1007	8	0	0	859859	692	0	correct_rejection	NA	0
19	Triplet	36	198	1008	9	0	0	860568	692	0	correct_rejection	NA	0
19	Triplet	37	199	1009	9	0	0	861276	692	0	correct_rejection	NA	0
19	Triplet	38	200	1010	8	0	0	861985	692	0	correct_rejection	NA	0
19	Triplet	39	201	1011	7	0	0	862694	691	0	correct_rejection	NA	0
19	Triplet	40	202	1012	9	0	0	863402	692	0	correct_rejection	NA	0
19	Triplet	41	203	1013	8	0	0	864111	691	0	correct_rejection	NA	0
19	Triplet	42	204	1014	0	1	1	864819	692	1	hit	414	0
19	Triplet	43	205	1015	7	0	0	865528	692	0	correct_rejection	NA	0
19	Triplet	44	206	1016	4	0	0	866236	692	0	correct_rejection	NA	0
19	Triplet	45	207	1017	5	0	0	866945	692	0	correct_rejection	NA	0
19	Triplet	46	208	1018	6	0	0	867654	691	0	correct_rejection	NA	0
19	Triplet	47	209	1019	4	0	0	868362	692	0	correct_rejection	NA	0
19	Triplet	48	210	1020	5	0	0	869071	691	0	correct_rejection	NA	0
19	Triplet	49	211	1021	6	0	0	869779	692	0	correct_rejection	NA	0
19	Triplet	50	212	1022	7	0	0	870488	692	0	correct_rejection	NA	0
19	Triplet	51	213	1023	8	0	0	871196	692	0	correct_rejection	NA	0
19	Triplet	52	214	1024	9	0	0	871905	692	0	correct_rejection	NA	0
19	Triplet	53	215	1025	4	0	0	872614	691	0	correct_rejection	NA	0
19	Triplet	54	216	1026	5	0	0	873322	692	0	correct_rejection	NA	0
19	Triplet	55	217	1027	6	0	0	874031	691	0	correct_rejection	NA	0
19	Triplet	56	218	1028	7	0	0	874739	692	0	correct_rejection	NA	0
19	Triplet	57	219	1029	0	1	1	875448	692	1	hit	346	0
19	Triplet	58	220	1030	8	0	0	876156	692	0	correct_rejection	NA	0
19	Triplet	59	221	1031	9	0	0	876865	692	0	correct_rejection	NA	0
19	Triplet	60	222	1032	0	1	2	877574	691	1	hit	382	0
19	Triplet	61	223	1033	6	0	0	878282	692	0	correct_rejection	NA	0
19	Triplet	62	224	1034	5	0	0	878991	691	0	correct_rejection	NA	0
19	Triplet	63	225	1035	4	0	0	879699	692	0	correct_rejection	NA	0
19	Triplet	64	226	1036	6	0	0	880408	692	0	correct_rejection	NA	0
19	Triplet	65	227	1037	5	0	0	881116	692	0	correct_rejection	NA	0
19	Triplet	66	228	1038	4	0	0	881825	692	0	correct_rejection	NA	0
19	Triplet	67	229	1039	9	0	0	882534	691	0	correct_rejection	NA	0
19	Triplet	68	230	1040	8	0	0	883242	692	0	correct_rejection	NA	0
19	Triplet	69	231	1041	7	0	0	883951	691	0	correct_rejection	NA	0
19	Triplet	70	232	1042	4	0	0	884659	692	0	correct_rejection	NA	0
19	Triplet	71	233	1043	0	1	1	885368	692	1	hit	321	0
19	Triplet	72	234	1044	5	0	0	886076	692	0	correct_rejection	NA	0
19	Triplet	73	235	1045	6	0	0	886785	692	0	correct_rejection	NA	0
19	Triplet	74	236	1046	7	0	0	887494	691	0	correct_rejection	NA	0
19	Triplet	75	237	1047	8	0	0	888202	692	0	correct_rejection	NA	0
19	Triplet	76	238	1048	9	0	0	888911	691	0	correct_rejection	NA	0
19	Triplet	77	239	1049	7	0	0	889619	692	0	correct_rejection	NA	0
19	Triplet	78	240	1050	8	0	0	890328	691	0	correct_rejection	NA	0
19	Triplet	79	241	1051	9	0	0	891036	692	0	correct_rejection	NA	0
19	Triplet	80	242	1052	4	0	0	891745	692	0	correct_rejection	NA	0
19	Triplet	81	243	1053	5	0	0	892453	692	0	correct_rejection	NA	0
19	Triplet	82	244	1054	6	0	0	893162	692	0	correct_rejection	NA	0
19	Triplet	83	245	1055	6	0	0	893871	691	0	correct_rejection	NA	0
19	Triplet	84	246	1056	5	0	0	894579	692	0	correct_rejection	NA	0
19	Triplet	85	247	1057	4	0	0	895288	691	0	correct_rejection	NA	0
19	Triplet	86	248	1058	7	0	0	895996	692	0	correct_rejection	NA	0
19	Triplet	87	249	1059	8	0	0	896705	692	0	correct_rejection	NA	0
19	Triplet	88	250	1060	9	0	0	897413	692	0	correct_rejection	NA	0
19	Triplet	89	251	1061	9	0	0	898122	692	0	correct_rejection	NA	0
19	Triplet	90	252	1062	8	0	0	898831	691	0	correct_rejection	NA	0
19	Triplet	91	253	1063	7	0	0	899539	692	0	correct_rejection	NA	0
19	Triplet	92	254	1064	6	0	0	900248	691	0	correct_rejection	NA	0
19	Triplet	93	255	1065	5	0	0	900956	692	0	correct_rejection	NA	0
19	Triplet	94	256	1066	4	0	0	901665	692	0	correct_rejection	NA	0
19	Triplet	95	257	1067	4	0	0	902373	692	0	correct_rejection	NA	0
19	Triplet	96	258	1068	5	0	0	903082	692	0	correct_rejection	NA	0
19	Triplet	97	259	1069	6	0	0	903791	691	0	correct_rejection	NA	0
19	Triplet	98	260	1070	4	0	0	904499	692	0	correct_rejection	NA	0
19	Triplet	99	261	1071	5	0	0	905208	691	0	correct_rejection	NA	0
19	Triplet	100	262	1072	6	0	0	905916	692	0	correct_rejection	NA	0
19	Triplet	101	263	1073	9	0	0	906625	692	0	correct_rejection	NA	0
19	Triplet	102	264	1074	8	0	0	907333	692	0	correct_rejection	NA	0
19	Triplet	103	265	1075	7	0	0	908042	692	0	correct_rejection	NA	0
19	Triplet	104	266	1076	0	1	2	908751	691	1	hit	363	0
19	Triplet	105	267	1077	9	0	0	909459	692	0	correct_rejection	NA	0
19	Triplet	106	268	1078	8	0	0	910168	691	0	correct_rejection	NA	0
19	Triplet	107	269	1079	7	0	0	910876	692	0	correct_rejection	NA	0
19	Triplet	108	270	1080	4	0	0	911585	692	0	correct_rejection	NA	0
19	Triplet	109	271	1081	5	0	0	912293	692	0	correct_rejection	NA	0
19	Triplet	110	272	1082	6	0	0	913002	692	0	correct_rejection	NA	0
19	Triplet	111	273	1083	4	0	0	913711	691	0	correct_rejection	NA	0
19	Triplet	112	274	1084	5	0	0	914419	692	0	correct_rejection	NA	0
19	Triplet	113	275	1085	6	0	0	915128	691	0	correct_rejection	NA	0
19	Triplet	114	276	1086	6	0	0	915836	692	0	correct_rejection	NA	0
19	Triplet	115	277	1087	0	1	1	916545	691	1	hit	371	0
19	Triplet	116	278	1088	5	0	0	917253	692	0	correct_rejection	NA	0
19	Triplet	117	279	1089	4	0	0	917962	692	0	correct_rejection	NA	0
19	Triplet	118	280	1090	9	0	0	918671	691	0	correct_rejection	NA	0
19	Triplet	119	281	1091	8	0	0	919379	692	0	correct_rejection	NA	0
19	Triplet	120	282	1092	0	1	1	920088	691	1	hit	343	0
19	Triplet	121	283	1093	7	0	0	920796	692	0	correct_rejection	NA	0
19	Triplet	122	284	1094	9	0	0	921505	691	0	correct_rejection	NA	0
19	Triplet	123	285	1095	0	1	1	922213	692	1	hit	427	0
19	Triplet	124	286	1096	8	0	0	922922	692	0	correct_rejection	NA	0
19	Triplet	125	287	1097	7	0	0	923630	692	0	correct_rejection	NA	0
19	Triplet	126	288	1098	6	0	0	924339	692	0	correct_rejection	NA	0
19	Triplet	127	289	1099	5	0	0	925048	691	0	correct_rejection	NA	0
19	Triplet	128	290	1100	4	0	0	925756	692	0	correct_rejection	NA	0
19	Triplet	129	291	1101	6	0	0	926465	691	0	correct_rejection	NA	0
19	Triplet	130	292	1102	5	0	0	927173	692	0	correct_rejection	NA	0
19	Triplet	131	293	1103	4	0	0	927882	692	0	correct_rejection	NA	0
19	Triplet	132	294	1104	7	0	0	928590	692	0	correct_rejection	NA	0
19	Triplet	133	295	1105	0	1	1	929299	692	1	hit	321	0
19	Triplet	134	296	1106	8	0	0	930008	691	0	correct_rejection	NA	0
19	Triplet	135	297	1107	9	0	0	930716	692	0	correct_rejection	NA	0
19	Triplet	136	298	1108	4	0	0	931425	691	0	correct_rejection	NA	0
19	Triplet	137	299	1109	5	0	0	932133	692	0	correct_rejection	NA	0
19	Triplet	138	300	1110	6	0	0	932842	692	0	correct_rejection	NA	0
19	Triplet	139	301	1111	7	0	0	933550	692	0	correct_rejection	NA	0
19	Triplet	140	302	1112	8	0	0	934259	692	0	correct_rejection	NA	0
19	Triplet	141	303	1113	0	1	1	934968	691	1	hit	322	0
19	Triplet	142	304	1114	9	0	0	935676	692	0	correct_rejection	NA	0
19	Triplet	143	305	1115	9	0	0	936385	691	0	correct_rejection	NA	0
19	Triplet	144	306	1116	8	0	0	937093	692	0	correct_rejection	NA	0
19	Triplet	145	307	1117	7	0	0	937802	692	0	correct_rejection	NA	0
19	Triplet	146	308	1118	4	0	0	938510	692	0	correct_rejection	NA	0
19	Triplet	147	309	1119	5	0	0	939219	692	0	correct_rejection	NA	0
19	Triplet	148	310	1120	6	0	0	939928	691	0	correct_rejection	NA	0
19	Triplet	149	311	1121	9	0	0	940636	692	0	correct_rejection	NA	0
19	Triplet	150	312	1122	0	1	1	941345	691	1	hit	297	0
19	Triplet	151	313	1123	8	0	0	942053	692	0	correct_rejection	NA	0
19	Triplet	152	314	1124	7	0	0	942762	692	0	correct_rejection	NA	0
19	Triplet	153	315	1125	7	0	0	943470	692	0	correct_rejection	NA	0
19	Triplet	154	316	1126	8	0	0	944179	692	0	correct_rejection	NA	0
19	Triplet	155	317	1127	9	0	0	944888	691	0	correct_rejection	NA	0
19	Triplet	156	318	1128	7	0	0	945596	692	0	correct_rejection	NA	0
19	Triplet	157	319	1129	0	1	1	946305	691	1	hit	337	0
19	Triplet	158	320	1130	8	0	0	947013	692	0	correct_rejection	NA	0
19	Triplet	159	321	1131	9	0	0	947722	691	0	correct_rejection	NA	0
19	Triplet	160	322	1132	6	0	0	948430	692	0	correct_rejection	NA	0
19	Triplet	161	323	1133	5	0	0	949139	692	0	correct_rejection	NA	0
19	Triplet	162	324	1134	4	0	0	949848	691	0	correct_rejection	NA	0
19	Single	1	325	1135	9	0	0	959484	692	0	correct_rejection	NA	7609
19	Single	2	326	1136	5	0	0	960193	691	0	correct_rejection	NA	0
19	Single	3	327	1137	7	0	0	960901	692	0	correct_rejection	NA	0
19	Single	4	328	1138	6	0	0	961610	691	0	correct_rejection	NA	0
19	Single	5	329	1139	0	1	1	962318	692	1	hit	406	0
19	Single	6	330	1140	9	0	0	963027	692	0	correct_rejection	NA	0
19	Single	7	331	1141	4	0	0	963735	692	0	correct_rejection	NA	0
19	Single	8	332	1142	4	0	0	964444	692	0	correct_rejection	NA	0
19	Single	9	333	1143	7	0	0	965153	691	0	correct_rejection	NA	0
19	Single	10	334	1144	8	0	0	965861	692	0	correct_rejection	NA	0
19	Single	11	335	1145	5	0	0	966570	691	0	correct_rejection	NA	0
19	Single	12	336	1146	9	0	0	967278	692	0	correct_rejection	NA	0
19	Single	13	337	1147	0	1	1	967987	692	1	hit	336	0
19	Single	14	338	1148	8	0	0	968695	692	0	correct_rejection	NA	0
19	Single	15	339	1149	6	0	0	969404	692	0	correct_rejection	NA	0
19	Single	16	340	1150	7	0	0	970113	691	0	correct_rejection	NA	0
19	Single	17	341	1151	4	0	0	970821	692	0	correct_rejection	NA	0
19	Single	18	342	1152	0	1	1	971530	691	1	hit	326	0
19	Single	19	343	1153	5	0	0	972238	692	0	correct_rejection	NA	0
19	Single	20	344	1154	8	0	0	972947	692	0	correct_rejection	NA	0
19	Single	21	345	1155	8	0	0	973655	692	0	correct_rejection	NA	0
19	Single	22	346	1156	9	0	0	974364	692	0	correct_rejection	NA	0
19	Single	23	347	1157	7	0	0	975073	691	0	correct_rejection	NA	0
19	Single	24	348	1158	5	0	0	975781	692	0	correct_rejection	NA	0
19	Single	25	349	1159	5	0	0	976490	691	0	correct_rejection	NA	0
19	Single	26	350	1160	4	0	0	977198	692	0	correct_rejection	NA	0
19	Single	27	351	1161	9	0	0	977907	691	0	correct_rejection	NA	0
19	Single	28	352	1162	9	0	0	978615	692	0	correct_rejection	NA	0
19	Single	29	353	1163	6	0	0	979324	692	0	correct_rejection	NA	0
19	Single	30	354	1164	8	0	0	980033	691	0	correct_rejection	NA	0
19	Single	31	355	1165	4	0	0	980741	692	0	correct_rejection	NA	0
19	Single	32	356	1166	6	0	0	981450	691	0	correct_rejection	NA	0
19	Single	33	357	1167	0	1	1	982158	692	1	hit	336	0
19	Single	34	358	1168	6	0	0	982867	691	0	correct_rejection	NA	0
19	Single	35	359	1169	5	0	0	983575	692	0	correct_rejection	NA	0
19	Single	36	360	1170	6	0	0	984284	692	0	correct_rejection	NA	0
19	Single	37	361	1171	4	0	0	984992	692	0	correct_rejection	NA	0
19	Single	38	362	1172	8	0	0	985701	692	0	correct_rejection	NA	0
19	Single	39	363	1173	7	0	0	986410	691	0	correct_rejection	NA	0
19	Single	40	364	1174	7	0	0	987118	692	0	correct_rejection	NA	0
19	Single	41	365	1175	5	0	0	987827	691	0	correct_rejection	NA	0
19	Single	42	366	1176	8	0	0	988535	692	0	correct_rejection	NA	0
19	Single	43	367	1177	4	0	0	989244	692	0	correct_rejection	NA	0
19	Single	44	368	1178	5	0	0	989952	692	0	correct_rejection	NA	0
19	Single	45	369	1179	6	0	0	990661	692	0	correct_rejection	NA	0
19	Single	46	370	1180	8	0	0	991370	691	0	correct_rejection	NA	0
19	Single	47	371	1181	6	0	0	992078	692	0	correct_rejection	NA	0
19	Single	48	372	1182	6	0	0	992787	691	0	correct_rejection	NA	0
19	Single	49	373	1183	0	1	1	993495	692	1	hit	428	0
19	Single	50	374	1184	4	0	0	994204	692	0	correct_rejection	NA	0
19	Single	51	375	1185	7	0	0	994912	692	0	correct_rejection	NA	0
19	Single	52	376	1186	9	0	0	995621	692	0	correct_rejection	NA	0
19	Single	53	377	1187	0	1	1	996330	691	1	hit	341	0
19	Single	54	378	1188	7	0	0	997038	692	0	correct_rejection	NA	0
19	Single	55	379	1189	7	0	0	997747	691	0	correct_rejection	NA	0
19	Single	56	380	1190	8	0	0	998455	692	0	correct_rejection	NA	0
19	Single	57	381	1191	0	1	1	999164	692	1	hit	452	0
19	Single	58	382	1192	7	0	0	999872	692	0	correct_rejection	NA	0
19	Single	59	383	1193	4	0	0	1000581	692	0	correct_rejection	NA	0
19	Single	60	384	1194	0	1	1	1001290	691	1	hit	323	0
19	Single	61	385	1195	9	0	0	1001998	692	0	correct_rejection	NA	0
19	Single	62	386	1196	8	0	0	1002707	691	0	correct_rejection	NA	0
19	Single	63	387	1197	9	0	0	1003415	692	0	correct_rejection	NA	0
19	Single	64	388	1198	5	0	0	1004124	692	0	correct_rejection	NA	0
19	Single	65	389	1199	5	0	0	1004832	692	0	correct_rejection	NA	0
19	Single	66	390	1200	7	0	0	1005541	692	0	correct_rejection	NA	0
19	Single	67	391	1201	5	0	0	1006250	691	0	correct_rejection	NA	0
19	Single	68	392	1202	9	0	0	1006958	692	0	correct_rejection	NA	0
19	Single	69	393	1203	6	0	0	1007667	691	0	correct_rejection	NA	0
19	Single	70	394	1204	9	0	0	1008375	692	0	correct_rejection	NA	0
19	Single	71	395	1205	9	0	0	1009084	691	0	correct_rejection	NA	0
19	Single	72	396	1206	4	0	0	1009792	692	0	correct_rejection	NA	0
19	Single	73	397	1207	6	0	0	1010501	692	0	correct_rejection	NA	0
19	Single	74	398	1208	7	0	0	1011209	692	0	correct_rejection	NA	0
19	Single	75	399	1209	6	0	0	1011918	692	0	correct_rejection	NA	0
19	Single	76	400	1210	5	0	0	1012627	691	0	correct_rejection	NA	0
19	Single	77	401	1211	0	1	1	1013335	692	1	hit	329	0
19	Single	78	402	1212	4	0	0	1014044	691	0	correct_rejection	NA	0
19	Single	79	403	1213	4	0	0	1014752	692	0	correct_rejection	NA	0
19	Single	80	404	1214	8	0	0	1015461	692	0	correct_rejection	NA	0
19	Single	81	405	1215	8	0	0	1016169	692	0	correct_rejection	NA	0
19	Single	82	406	1216	0	1	1	1016878	692	1	hit	329	0
19	Single	83	407	1217	8	0	0	1017587	691	0	correct_rejection	NA	0
19	Single	84	408	1218	4	0	0	1018295	692	0	correct_rejection	NA	0
19	Single	85	409	1219	9	0	0	1019004	691	0	correct_rejection	NA	0
19	Single	86	410	1220	7	0	0	1019712	692	0	correct_rejection	NA	0
19	Single	87	411	1221	4	0	0	1020421	692	0	correct_rejection	NA	0
19	Single	88	412	1222	8	0	0	1021129	692	0	correct_rejection	NA	0
19	Single	89	413	1223	9	0	0	1021838	692	0	correct_rejection	NA	0
19	Single	90	414	1224	4	0	0	1022547	691	0	correct_rejection	NA	0
19	Single	91	415	1225	7	0	0	1023255	692	0	correct_rejection	NA	0
19	Single	92	416	1226	6	0	0	1023964	691	0	correct_rejection	NA	0
19	Single	93	417	1227	6	0	0	1024672	692	0	correct_rejection	NA	0
19	Single	94	418	1228	0	1	1	1025381	692	1	hit	344	0
19	Single	95	419	1229	8	0	0	1026089	692	0	correct_rejection	NA	0
19	Single	96	420	1230	8	0	0	1026798	692	0	correct_rejection	NA	0
19	Single	97	421	1231	5	0	0	1027507	691	0	correct_rejection	NA	0
19	Single	98	422	1232	5	0	0	1028215	692	0	correct_rejection	NA	0
19	Single	99	423	1233	6	0	0	1028924	691	0	correct_rejection	NA	0
19	Single	100	424	1234	0	1	1	1029632	692	1	hit	350	0
19	Single	101	425	1235	7	0	0	1030341	692	0	correct_rejection	NA	0
19	Single	102	426	1236	9	0	0	1031049	692	0	correct_rejection	NA	0
19	Single	103	427	1237	6	0	0	1031758	692	0	correct_rejection	NA	0
19	Single	104	428	1238	4	0	0	1032467	691	0	correct_rejection	NA	0
19	Single	105	429	1239	4	0	0	1033175	692	0	correct_rejection	NA	0
19	Single	106	430	1240	6	0	0	1033884	691	0	correct_rejection	NA	0
19	Single	107	431	1241	9	0	0	1034592	692	0	correct_rejection	NA	0
19	Single	108	432	1242	5	0	0	1035301	692	0	correct_rejection	NA	0
19	Single	109	433	1243	4	0	0	1036009	692	0	correct_rejection	NA	0
19	Single	110	434	1244	5	0	0	1036718	692	0	correct_rejection	NA	0
19	Single	111	435	1245	9	0	0	1037427	691	0	correct_rejection	NA	0
19	Single	112	436	1246	9	0	0	1038135	692	0	correct_rejection	NA	0
19	Single	113	437	1247	8	0	0	1038844	691	0	correct_rejection	NA	0
19	Single	114	438	1248	7	0	0	1039552	692	0	correct_rejection	NA	0
19	Single	115	439	1249	8	0	0	1040261	691	0	correct_rejection	NA	0
19	Single	116	440	1250	6	0	0	1040969	692	0	correct_rejection	NA	0
19	Single	117	441	1251	5	0	0	1041678	692	0	correct_rejection	NA	0
19	Single	118	442	1252	7	0	0	1042386	692	0	correct_rejection	NA	0
19	Single	119	443	1253	7	0	0	1043095	692	0	correct_rejection	NA	0
19	Single	120	444	1254	5	0	0	1043804	691	0	correct_rejection	NA	0
19	Single	121	445	1255	8	0	0	1044512	692	0	correct_rejection	NA	0
19	Single	122	446	1256	7	0	0	1045221	691	0	correct_rejection	NA	0
19	Single	123	447	1257	9	0	0	1045929	692	0	correct_rejection	NA	0
19	Single	124	448	1258	0	1	1	1046638	692	1	hit	334	0
19	Single	125	449	1259	9	0	0	1047346	692	0	correct_rejection	NA	0
19	Single	126	450	1260	6	0	0	1048055	692	0	correct_rejection	NA	0
19	Single	127	451	1261	0	1	1	1048764	691	1	hit	376	0
19	Single	128	452	1262	5	0	0	1049472	692	0	correct_rejection	NA	0
19	Single	129	453	1263	5	0	0	1050181	692	0	correct_rejection	NA	0
19	Single	130	454	1264	9	0	0	1050889	692	0	correct_rejection	NA	0
19	Single	131	455	1265	4	0	0	1051598	692	0	correct_rejection	NA	0
19	Single	132	456	1266	9	0	0	1052306	692	0	correct_rejection	NA	0
19	Single	133	457	1267	5	0	0	1053015	692	0	correct_rejection	NA	0
19	Single	134	458	1268	7	0	0	1053724	691	0	correct_rejection	NA	0
19	Single	135	459	1269	4	0	0	1054432	692	0	correct_rejection	NA	0
19	Single	136	460	1270	4	0	0	1055141	691	0	correct_rejection	NA	0
19	Single	137	461	1271	5	0	0	1055849	692	0	correct_rejection	NA	0
19	Single	138	462	1272	8	0	0	1056558	692	0	correct_rejection	NA	0
19	Single	139	463	1273	8	0	0	1057266	692	0	correct_rejection	NA	0
19	Single	140	464	1274	0	1	1	1057975	692	1	hit	355	0
19	Single	141	465	1275	9	0	0	1058684	691	0	correct_rejection	NA	0
19	Single	142	466	1276	7	0	0	1059392	692	0	correct_rejection	NA	0
19	Single	143	467	1277	8	0	0	1060101	691	0	correct_rejection	NA	0
19	Single	144	468	1278	4	0	0	1060809	692	0	correct_rejection	NA	0
19	Single	145	469	1279	8	0	0	1061518	692	0	correct_rejection	NA	0
19	Single	146	470	1280	6	0	0	1062226	692	0	correct_rejection	NA	0
19	Single	147	471	1281	9	0	0	1062935	692	0	correct_rejection	NA	0
19	Single	148	472	1282	8	0	0	1063644	691	0	correct_rejection	NA	0
19	Single	149	473	1283	0	1	1	1064352	692	1	hit	343	0
19	Single	150	474	1284	5	0	0	1065061	691	0	correct_rejection	NA	0
19	Single	151	475	1285	4	0	0	1065769	692	0	correct_rejection	NA	0
19	Single	152	476	1286	0	1	1	1066478	692	1	hit	456	0
19	Single	153	477	1287	7	0	0	1067186	692	0	correct_rejection	NA	0
19	Single	154	478	1288	5	0	0	1067895	692	0	correct_rejection	NA	0
19	Single	155	479	1289	0	1	1	1068604	691	1	hit	340	0
19	Single	156	480	1290	6	0	0	1069312	692	0	correct_rejection	NA	0
19	Single	157	481	1291	6	0	0	1070021	691	0	correct_rejection	NA	0
19	Single	158	482	1292	7	0	0	1070729	692	0	correct_rejection	NA	0
19	Single	159	483	1293	7	0	0	1071438	691	0	correct_rejection	NA	0
19	Single	160	484	1294	6	0	0	1072146	692	0	correct_rejection	NA	0
19	Single	161	485	1295	4	0	0	1072855	692	0	correct_rejection	NA	0
19	Single	162	486	1296	6	0	0	1073563	692	0	correct_rejection	NA	0
19	Nonet	1	649	1297	6	0	0	1083684	691	0	correct_rejection	NA	7809
19	Nonet	2	650	1298	5	0	0	1084392	692	0	correct_rejection	NA	0
19	Nonet	3	651	1299	4	0	0	1085101	691	0	correct_rejection	NA	0
19	Nonet	4	652	1300	6	0	0	1085809	692	0	correct_rejection	NA	0
19	Nonet	5	653	1301	5	0	0	1086518	691	0	correct_rejection	NA	0
19	Nonet	6	654	1302	4	0	0	1087226	692	0	correct_rejection	NA	0
19	Nonet	7	655	1303	6	0	0	1087935	692	0	correct_rejection	NA	0
19	Nonet	8	656	1304	5	0	0	1088643	692	0	correct_rejection	NA	0
19	Nonet	9	657	1305	4	0	0	1089352	692	0	correct_rejection	NA	0
19	Nonet	10	658	1306	9	0	0	1090061	691	0	correct_rejection	NA	0
19	Nonet	11	659	1307	8	0	0	1090769	692	0	correct_rejection	NA	0
19	Nonet	12	660	1308	7	0	0	1091478	691	0	correct_rejection	NA	0
19	Nonet	13	661	1309	9	0	0	1092186	692	0	correct_rejection	NA	0
19	Nonet	14	662	1310	8	0	0	1092895	692	0	correct_rejection	NA	0
19	Nonet	15	663	1311	7	0	0	1093603	692	0	correct_rejection	NA	0
19	Nonet	16	664	1312	0	1	2	1094312	692	1	hit	432	0
19	Nonet	17	665	1313	9	0	0	1095021	691	0	correct_rejection	NA	0
19	Nonet	18	666	1314	8	0	0	1095729	692	0	correct_rejection	NA	0
19	Nonet	19	667	1315	7	0	0	1096438	691	0	correct_rejection	NA	0
19	Nonet	20	668	1316	0	1	3	1097146	692	1	hit	356	0
19	Nonet	21	669	1317	4	0	0	1097855	692	0	correct_rejection	NA	0
19	Nonet	22	670	1318	5	0	0	1098563	692	0	correct_rejection	NA	0
19	Nonet	23	671	1319	0	1	1	1099272	692	1	hit	344	0
19	Nonet	24	672	1320	6	0	0	1099981	691	0	correct_rejection	NA	0
19	Nonet	25	673	1321	4	0	0	1100689	692	0	correct_rejection	NA	0
19	Nonet	26	674	1322	5	0	0	1101398	691	0	correct_rejection	NA	0
19	Nonet	27	675	1323	6	0	0	1102106	692	0	correct_rejection	NA	0
19	Nonet	28	676	1324	4	0	0	1102815	692	0	correct_rejection	NA	0
19	Nonet	29	677	1325	5	0	0	1103523	692	0	correct_rejection	NA	0
19	Nonet	30	678	1326	0	1	1	1104232	692	1	hit	355	0
19	Nonet	31	679	1327	6	0	0	1104941	691	0	correct_rejection	NA	0
19	Nonet	32	680	1328	4	0	0	1105649	692	0	correct_rejection	NA	0
19	Nonet	33	681	1329	5	0	0	1106358	691	0	correct_rejection	NA	0
19	Nonet	34	682	1330	6	0	0	1107066	692	0	correct_rejection	NA	0
19	Nonet	35	683	1331	4	0	0	1107775	692	0	correct_rejection	NA	0
19	Nonet	36	684	1332	5	0	0	1108483	692	0	correct_rejection	NA	0
19	Nonet	37	685	1333	6	0	0	1109192	692	0	correct_rejection	NA	0
19	Nonet	38	686	1334	4	0	0	1109901	691	0	correct_rejection	NA	0
19	Nonet	39	687	1335	5	0	0	1110609	692	0	correct_rejection	NA	0
19	Nonet	40	688	1336	6	0	0	1111318	691	0	correct_rejection	NA	0
19	Nonet	41	689	1337	6	0	0	1112026	692	0	correct_rejection	NA	0
19	Nonet	42	690	1338	5	0	0	1112735	691	0	correct_rejection	NA	0
19	Nonet	43	691	1339	4	0	0	1113443	692	0	correct_rejection	NA	0
19	Nonet	44	692	1340	6	0	0	1114152	692	0	correct_rejection	NA	0
19	Nonet	45	693	1341	5	0	0	1114861	691	0	correct_rejection	NA	0
19	Nonet	46	694	1342	4	0	0	1115569	692	0	correct_rejection	NA	0
19	Nonet	47	695	1343	6	0	0	1116278	691	0	correct_rejection	NA	0
19	Nonet	48	696	1344	5	0	0	1116986	692	0	correct_rejection	NA	0
19	Nonet	49	697	1345	0	1	1	1117695	691	1	hit	358	0
19	Nonet	50	698	1346	4	0	0	1118403	692	0	correct_rejection	NA	0
19	Nonet	51	699	1347	6	0	0	1119112	692	0	correct_rejection	NA	0
19	Nonet	52	700	1348	5	0	0	1119820	692	0	correct_rejection	NA	0
19	Nonet	53	701	1349	4	0	0	1120529	692	0	correct_rejection	NA	0
19	Nonet	54	702	1350	6	0	0	1121238	691	0	correct_rejection	NA	0
19	Nonet	55	703	1351	0	1	1	1121946	692	1	hit	350	0
19	Nonet	56	704	1352	5	0	0	1122655	691	0	correct_rejection	NA	0
19	Nonet	57	705	1353	4	0	0	1123363	692	0	correct_rejection	NA	0
19	Nonet	58	706	1354	0	1	2	1124072	692	1	hit	328	0
19	Nonet	59	707	1355	6	0	0	1124780	692	0	correct_rejection	NA	0
19	Nonet	60	708	1356	5	0	0	1125489	692	0	correct_rejection	NA	0
19	Nonet	61	709	1357	4	0	0	1126198	691	0	correct_rejection	NA	0
19	Nonet	62	710	1358	4	0	0	1126906	692	0	correct_rejection	NA	0
19	Nonet	63	711	1359	5	0	0	1127615	691	0	correct_rejection	NA	0
19	Nonet	64	712	1360	6	0	0	1128323	692	0	correct_rejection	NA	0
19	Nonet	65	713	1361	4	0	0	1129032	692	0	correct_rejection	NA	0
19	Nonet	66	714	1362	5	0	0	1129740	692	0	correct_rejection	NA	0
19	Nonet	67	715	1363	6	0	0	1130449	692	0	correct_rejection	NA	0
19	Nonet	68	716	1364	4	0	0	1131158	691	0	correct_rejection	NA	0
19	Nonet	69	717	1365	5	0	0	1131866	692	0	correct_rejection	NA	0
19	Nonet	70	718	1366	6	0	0	1132575	691	0	correct_rejection	NA	0
19	Nonet	71	719	1367	7	0	0	1133283	692	0	correct_rejection	NA	0
19	Nonet	72	720	1368	8	0	0	1133992	692	0	correct_rejection	NA	0
19	Nonet	73	721	1369	9	0	0	1134700	692	0	correct_rejection	NA	0
19	Nonet	74	722	1370	0	1	2	1135409	692	1	hit	353	0
19	Nonet	75	723	1371	7	0	0	1136118	691	0	correct_rejection	NA	0
19	Nonet	76	724	1372	8	0	0	1136826	692	0	correct_rejection	NA	0
19	Nonet	77	725	1373	0	1	1	1137535	691	1	hit	503	0
19	Nonet	78	726	1374	9	0	0	1138243	692	0	correct_rejection	NA	0
19	Nonet	79	727	1375	7	0	0	1138952	692	0	correct_rejection	NA	0
19	Nonet	80	728	1376	8	0	0	1139660	692	0	correct_rejection	NA	0
19	Nonet	81	729	1377	9	0	0	1140369	692	0	correct_rejection	NA	0
19	Nonet	82	730	1378	6	0	0	1141078	691	0	correct_rejection	NA	0
19	Nonet	83	731	1379	5	0	0	1141786	692	0	correct_rejection	NA	0
19	Nonet	84	732	1380	4	0	0	1142495	691	0	correct_rejection	NA	0
19	Nonet	85	733	1381	6	0	0	1143203	692	0	correct_rejection	NA	0
19	Nonet	86	734	1382	5	0	0	1143912	691	0	correct_rejection	NA	0
19	Nonet	87	735	1383	4	0	0	1144620	692	0	correct_rejection	NA	0
19	Nonet	88	736	1384	0	1	2	1145329	692	1	hit	355	0
19	Nonet	89	737	1385	6	0	0	1146038	691	0	correct_rejection	NA	0
19	Nonet	90	738	1386	5	0	0	1146746	692	0	correct_rejection	NA	0
19	Nonet	91	739	1387	4	0	0	1147455	691	0	correct_rejection	NA	0
19	Nonet	92	740	1388	7	0	0	1148163	692	0	correct_rejection	NA	0
19	Nonet	93	741	1389	8	0	0	1148872	691	0	correct_rejection	NA	0
19	Nonet	94	742	1390	9	0	0	1149580	692	0	correct_rejection	NA	0
19	Nonet	95	743	1391	7	0	0	1150289	692	0	correct_rejection	NA	0
19	Nonet	96	744	1392	8	0	0	1150997	692	0	correct_rejection	NA	0
19	Nonet	97	745	1393	9	0	0	1151706	692	0	correct_rejection	NA	0
19	Nonet	98	746	1394	7	0	0	1152415	691	0	correct_rejection	NA	0
19	Nonet	99	747	1395	0	1	1	1153123	692	1	hit	347	0
19	Nonet	100	748	1396	8	0	0	1153832	691	0	correct_rejection	NA	0
19	Nonet	101	749	1397	9	0	0	1154540	692	0	correct_rejection	NA	0
19	Nonet	102	750	1398	4	0	0	1155249	692	0	correct_rejection	NA	0
19	Nonet	103	751	1399	0	1	1	1155957	692	1	hit	347	0
19	Nonet	104	752	1400	5	0	0	1156666	692	0	correct_rejection	NA	0
19	Nonet	105	753	1401	6	0	0	1157375	691	0	correct_rejection	NA	0
19	Nonet	106	754	1402	0	1	2	1158083	692	1	hit	355	0
19	Nonet	107	755	1403	4	0	0	1158792	691	0	correct_rejection	NA	0
19	Nonet	108	756	1404	5	0	0	1159500	692	0	correct_rejection	NA	0
19	Nonet	109	757	1405	6	0	0	1160209	692	0	correct_rejection	NA	0
19	Nonet	110	758	1406	4	0	0	1160917	692	0	correct_rejection	NA	0
19	Nonet	111	759	1407	5	0	0	1161626	692	0	correct_rejection	NA	0
19	Nonet	112	760	1408	6	0	0	1162335	691	0	correct_rejection	NA	0
19	Nonet	113	761	1409	9	0	0	1163043	692	0	correct_rejection	NA	0
19	Nonet	114	762	1410	8	0	0	1163752	691	0	correct_rejection	NA	0
19	Nonet	115	763	1411	7	0	0	1164460	692	0	correct_rejection	NA	0
19	Nonet	116	764	1412	9	0	0	1165169	692	0	correct_rejection	NA	0
19	Nonet	117	765	1413	0	1	1	1165877	692	1	hit	409	0
19	Nonet	118	766	1414	8	0	0	1166586	692	0	correct_rejection	NA	0
19	Nonet	119	767	1415	7	0	0	1167295	691	0	correct_rejection	NA	0
19	Nonet	120	768	1416	9	0	0	1168003	692	0	correct_rejection	NA	0
19	Nonet	121	769	1417	8	0	0	1168712	691	0	correct_rejection	NA	0
19	Nonet	122	770	1418	0	1	1	1169420	692	1	hit	369	0
19	Nonet	123	771	1419	7	0	0	1170129	692	0	correct_rejection	NA	0
19	Nonet	124	772	1420	9	0	0	1170837	692	0	correct_rejection	NA	0
19	Nonet	125	773	1421	8	0	0	1171546	692	0	correct_rejection	NA	0
19	Nonet	126	774	1422	7	0	0	1172255	691	0	correct_rejection	NA	0
19	Nonet	127	775	1423	0	1	2	1172963	692	1	hit	329	0
19	Nonet	128	776	1424	9	0	0	1173672	691	0	correct_rejection	NA	0
19	Nonet	129	777	1425	8	0	0	1174380	692	0	correct_rejection	NA	0
19	Nonet	130	778	1426	0	1	1	1175089	691	1	hit	409	0
19	Nonet	131	779	1427	7	0	0	1175797	692	0	correct_rejection	NA	0
19	Nonet	132	780	1428	9	0	0	1176506	692	0	correct_rejection	NA	0
19	Nonet	133	781	1429	8	0	0	1177214	692	0	correct_rejection	NA	0
19	Nonet	134	782	1430	7	0	0	1177923	692	0	correct_rejection	NA	0
19	Nonet	135	783	1431	7	0	0	1178632	691	0	correct_rejection	NA	0
19	Nonet	136	784	1432	8	0	0	1179340	692	0	correct_rejection	NA	0
19	Nonet	137	785	1433	9	0	0	1180049	691	0	correct_rejection	NA	0
19	Nonet	138	786	1434	7	0	0	1180757	692	0	correct_rejection	NA	0
19	Nonet	139	787	1435	8	0	0	1181466	692	0	correct_rejection	NA	0
19	Nonet	140	788	1436	9	0	0	1182174	692	0	correct_rejection	NA	0
19	Nonet	141	789	1437	7	0	0	1182883	692	0	correct_rejection	NA	0
19	Nonet	142	790	1438	8	0	0	1183592	691	0	correct_rejection	NA	0
19	Nonet	143	791	1439	9	0	0	1184300	692	0	correct_rejection	NA	0
19	Nonet	144	792	1440	0	1	3	1185009	691	1	hit	302	0
19	Nonet	145	793	1441	7	0	0	1185717	692	0	correct_rejection	NA	0
19	Nonet	146	794	1442	8	0	0	1186426	692	0	correct_rejection	NA	0
19	Nonet	147	795	1443	9	0	0	1187134	692	0	correct_rejection	NA	0
19	Nonet	148	796	1444	7	0	0	1187843	692	0	correct_rejection	NA	0
19	Nonet	149	797	1445	8	0	0	1188552	691	0	correct_rejection	NA	0
19	Nonet	150	798	1446	9	0	0	1189260	692	0	correct_rejection	NA	0
19	Nonet	151	799	1447	7	0	0	1189969	691	0	correct_rejection	NA	0
19	Nonet	152	800	1448	8	0	0	1190677	692	0	correct_rejection	NA	0
19	Nonet	153	801	1449	9	0	0	1191386	692	0	correct_rejection	NA	0
19	Nonet	154	802	1450	9	0	0	1192094	692	0	correct_rejection	NA	0
19	Nonet	155	803	1451	8	0	0	1192803	692	0	correct_rejection	NA	0
19	Nonet	156	804	1452	7	0	0	1193512	691	0	correct_rejection	NA	0
19	Nonet	157	805	1453	9	0	0	1194220	692	0	correct_rejection	NA	0
19	Nonet	158	806	1454	8	0	0	1194929	691	0	correct_rejection	NA	0
19	Nonet	159	807	1455	7	0	0	1195637	692	0	correct_rejection	NA	0
19	Nonet	160	808	1456	9	0	0	1196346	692	0	correct_rejection	NA	0
19	Nonet	161	809	1457	8	0	0	1197054	692	0	correct_rejection	NA	0
19	Nonet	162	810	1458	7	0	0	1197763	692	0	correct_rejection	NA	0
19	Triplet	1	487	1459	6	0	0	1207083	691	0	correct_rejection	NA	7219
19	Triplet	2	488	1460	5	0	0	1207791	692	0	correct_rejection	NA	0
19	Triplet	3	489	1461	4	0	0	1208500	692	0	correct_rejection	NA	0
19	Triplet	4	490	1462	4	0	0	1209208	692	0	correct_rejection	NA	0
19	Triplet	5	491	1463	5	0	0	1209917	692	0	correct_rejection	NA	0
19	Triplet	6	492	1464	6	0	0	1210626	691	0	correct_rejection	NA	0
19	Triplet	7	493	1465	9	0	0	1211334	692	0	correct_rejection	NA	0
19	Triplet	8	494	1466	8	0	0	1212043	691	0	correct_rejection	NA	0
19	Triplet	9	495	1467	7	0	0	1212751	692	0	correct_rejection	NA	0
19	Triplet	10	496	1468	0	1	2	1213460	692	1	hit	364	0
19	Triplet	11	497	1469	4	0	0	1214168	692	0	correct_rejection	NA	0
19	Triplet	12	498	1470	5	0	0	1214877	692	0	correct_rejection	NA	0
19	Triplet	13	499	1471	0	1	1	1215586	691	1	hit	379	0
19	Triplet	14	500	1472	6	0	0	1216294	692	0	correct_rejection	NA	0
19	Triplet	15	501	1473	6	0	0	1217003	691	0	correct_rejection	NA	0
19	Triplet	16	502	1474	5	0	0	1217711	692	0	correct_rejection	NA	0
19	Triplet	17	503	1475	0	1	1	1218420	691	1	hit	329	0
19	Triplet	18	504	1476	4	0	0	1219128	692	0	correct_rejection	NA	0
19	Triplet	19	505	1477	6	0	0	1219837	692	0	correct_rejection	NA	0
19	Triplet	20	506	1478	5	0	0	1220546	691	0	correct_rejection	NA	0
19	Triplet	21	507	1479	4	0	0	1221254	692	0	correct_rejection	NA	0
19	Triplet	22	508	1480	7	0	0	1221963	691	0	correct_rejection	NA	0
19	Triplet	23	509	1481	0	1	1	1222671	692	1	hit	324	0
19	Triplet	24	510	1482	8	0	0	1223380	691	0	correct_rejection	NA	0
19	Triplet	25	511	1483	9	0	0	1224088	692	0	correct_rejection	NA	0
19	Triplet	26	512	1484	6	0	0	1224797	692	0	correct_rejection	NA	0
19	Triplet	27	513	1485	0	1	1	1225505	692	1	hit	364	0
19	Triplet	28	514	1486	5	0	0	1226214	692	0	correct_rejection	NA	0
19	Triplet	29	515	1487	4	0	0	1226923	691	0	correct_rejection	NA	0
19	Triplet	30	516	1488	9	0	0	1227631	692	0	correct_rejection	NA	0
19	Triplet	31	517	1489	0	1	1	1228340	691	1	hit	326	0
19	Triplet	32	518	1490	8	0	0	1229048	692	0	correct_rejection	NA	0
19	Triplet	33	519	1491	7	0	0	1229757	692	0	correct_rejection	NA	0
19	Triplet	34	520	1492	9	0	0	1230465	692	0	correct_rejection	NA	0
19	Triplet	35	521	1493	8	0	0	1231174	692	0	correct_rejection	NA	0
19	Triplet	36	522	1494	0	1	1	1231883	691	1	hit	318	0
19	Triplet	37	523	1495	7	0	0	1232591	692	0	correct_rejection	NA	0
19	Triplet	38	524	1496	7	0	0	1233300	691	0	correct_rejection	NA	0
19	Triplet	39	525	1497	8	0	0	1234008	692	0	correct_rejection	NA	0
19	Triplet	40	526	1498	9	0	0	1234717	692	0	correct_rejection	NA	0
19	Triplet	41	527	1499	0	1	2	1235425	692	1	hit	366	0
19	Triplet	42	528	1500	4	0	0	1236134	692	0	correct_rejection	NA	0
19	Triplet	43	529	1501	5	0	0	1236843	691	0	correct_rejection	NA	0
19	Triplet	44	530	1502	6	0	0	1237551	692	0	correct_rejection	NA	0
19	Triplet	45	531	1503	4	0	0	1238260	691	0	correct_rejection	NA	0
19	Triplet	46	532	1504	5	0	0	1238968	692	0	correct_rejection	NA	0
19	Triplet	47	533	1505	6	0	0	1239677	692	0	correct_rejection	NA	0
19	Triplet	48	534	1506	7	0	0	1240385	692	0	correct_rejection	NA	0
19	Triplet	49	535	1507	8	0	0	1241094	692	0	correct_rejection	NA	0
19	Triplet	50	536	1508	9	0	0	1241803	691	0	correct_rejection	NA	0
19	Triplet	51	537	1509	7	0	0	1242511	692	0	correct_rejection	NA	0
19	Triplet	52	538	1510	8	0	0	1243220	691	0	correct_rejection	NA	0
19	Triplet	53	539	1511	0	1	1	1243928	692	1	hit	347	0
19	Triplet	54	540	1512	9	0	0	1244637	692	0	correct_rejection	NA	0
19	Triplet	55	541	1513	9	0	0	1245345	692	0	correct_rejection	NA	0
19	Triplet	56	542	1514	8	0	0	1246054	692	0	correct_rejection	NA	0
19	Triplet	57	543	1515	7	0	0	1246763	691	0	correct_rejection	NA	0
19	Triplet	58	544	1516	4	0	0	1247471	692	0	correct_rejection	NA	0
19	Triplet	59	545	1517	5	0	0	1248180	691	0	correct_rejection	NA	0
19	Triplet	60	546	1518	0	1	1	1248888	692	1	hit	320	0
19	Triplet	61	547	1519	6	0	0	1249597	691	0	correct_rejection	NA	0
19	Triplet	62	548	1520	7	0	0	1250305	692	0	correct_rejection	NA	0
19	Triplet	63	549	1521	8	0	0	1251014	692	0	correct_rejection	NA	0
19	Triplet	64	550	1522	9	0	0	1251723	691	0	correct_rejection	NA	0
19	Triplet	65	551	1523	6	0	0	1252431	692	0	correct_rejection	NA	0
19	Triplet	66	552	1524	0	1	1	1253140	691	1	hit	291	0
19	Triplet	67	553	1525	5	0	0	1253848	692	0	correct_rejection	NA	0
19	Triplet	68	554	1526	4	0	0	1254557	691	0	correct_rejection	NA	0
19	Triplet	69	555	1527	6	0	0	1255265	692	0	correct_rejection	NA	0
19	Triplet	70	556	1528	5	0	0	1255974	692	0	correct_rejection	NA	0
19	Triplet	71	557	1529	4	0	0	1256682	692	0	correct_rejection	NA	0
19	Triplet	72	558	1530	4	0	0	1257391	692	0	correct_rejection	NA	0
19	Triplet	73	559	1531	5	0	0	1258100	691	0	correct_rejection	NA	0
19	Triplet	74	560	1532	6	0	0	1258808	692	0	correct_rejection	NA	0
19	Triplet	75	561	1533	4	0	0	1259517	691	0	correct_rejection	NA	0
19	Triplet	76	562	1534	5	0	0	1260225	692	0	correct_rejection	NA	0
19	Triplet	77	563	1535	6	0	0	1260934	692	0	correct_rejection	NA	0
19	Triplet	78	564	1536	0	1	2	1261642	692	1	hit	322	0
19	Triplet	79	565	1537	6	0	0	1262351	692	0	correct_rejection	NA	0
19	Triplet	80	566	1538	5	0	0	1263060	691	0	correct_rejection	NA	0
19	Triplet	81	567	1539	4	0	0	1263768	692	0	correct_rejection	NA	0
19	Triplet	82	568	1540	7	0	0	1264477	691	0	correct_rejection	NA	0
19	Triplet	83	569	1541	0	1	1	1265185	692	1	hit	303	0
19	Triplet	84	570	1542	8	0	0	1265894	692	0	correct_rejection	NA	0
19	Triplet	85	571	1543	9	0	0	1266602	692	0	correct_rejection	NA	0
19	Triplet	86	572	1544	0	1	2	1267311	692	1	hit	356	0
19	Triplet	87	573	1545	9	0	0	1268020	691	0	correct_rejection	NA	0
19	Triplet	88	574	1546	8	0	0	1268728	692	0	correct_rejection	NA	0
19	Triplet	89	575	1547	0	1	1	1269437	691	1	hit	309	0
19	Triplet	90	576	1548	7	0	0	1270145	692	0	correct_rejection	NA	0
19	Triplet	91	577	1549	4	0	0	1270854	692	0	correct_rejection	NA	0
19	Triplet	92	578	1550	5	0	0	1271562	692	0	correct_rejection	NA	0
19	Triplet	93	579	1551	6	0	0	1272271	692	0	correct_rejection	NA	0
19	Triplet	94	580	1552	9	0	0	1272980	691	0	correct_rejection	NA	0
19	Triplet	95	581	1553	8	0	0	1273688	692	0	correct_rejection	NA	0
19	Triplet	96	582	1554	7	0	0	1274397	691	0	correct_rejection	NA	0
19	Triplet	97	583	1555	9	0	0	1275105	692	0	correct_rejection	NA	0
19	Triplet	98	584	1556	8	0	0	1275814	692	0	correct_rejection	NA	0
19	Triplet	99	585	1557	0	1	1	1276522	692	1	hit	357	0
19	Triplet	100	586	1558	7	0	0	1277231	692	0	correct_rejection	NA	0
19	Triplet	101	587	1559	6	0	0	1277940	691	0	correct_rejection	NA	0
19	Triplet	102	588	1560	5	0	0	1278648	692	0	correct_rejection	NA	0
19	Triplet	103	589	1561	4	0	0	1279357	691	0	correct_rejection	NA	0
19	Triplet	104	590	1562	9	0	0	1280065	692	0	correct_rejection	NA	0
19	Triplet	105	591	1563	8	0	0	1280774	691	0	correct_rejection	NA	0
19	Triplet	106	592	1564	7	0	0	1281482	692	0	correct_rejection	NA	0
19	Triplet	107	593	1565	7	0	0	1282191	692	0	correct_rejection	NA	0
19	Triplet	108	594	1566	8	0	0	1282899	692	0	correct_rejection	NA	0
19	Triplet	109	595	1567	9	0	0	1283608	692	0	correct_rejection	NA	0
19	Triplet	110	596	1568	7	0	0	1284317	691	0	correct_rejection	NA	0
19	Triplet	111	597	1569	8	0	0	1285025	692	0	correct_rejection	NA	0
19	Triplet	112	598	1570	9	0	0	1285734	691	0	correct_rejection	NA	0
19	Triplet	113	599	1571	6	0	0	1286442	692	0	correct_rejection	NA	0
19	Triplet	114	600	1572	5	0	0	1287151	692	0	correct_rejection	NA	0
19	Triplet	115	601	1573	4	0	0	1287859	692	0	correct_rejection	NA	0
19	Triplet	116	602	1574	0	1	2	1288568	692	1	hit	331	0
19	Triplet	117	603	1575	9	0	0	1289277	691	0	correct_rejection	NA	0
19	Triplet	118	604	1576	8	0	0	1289985	692	0	correct_rejection	NA	0
19	Triplet	119	605	1577	7	0	0	1290694	691	0	correct_rejection	NA	0
19	Triplet	120	606	1578	6	0	0	1291402	692	0	correct_rejection	NA	0
19	Triplet	121	607	1579	5	0	0	1292111	692	0	correct_rejection	NA	0
19	Triplet	122	608	1580	4	0	0	1292819	692	0	correct_rejection	NA	0
19	Triplet	123	609	1581	7	0	0	1293528	692	0	correct_rejection	NA	0
19	Triplet	124	610	1582	8	0	0	1294237	691	0	correct_rejection	NA	0
19	Triplet	125	611	1583	9	0	0	1294945	692	0	correct_rejection	NA	0
19	Triplet	126	612	1584	7	0	0	1295654	691	0	correct_rejection	NA	0
19	Triplet	127	613	1585	8	0	0	1296362	692	0	correct_rejection	NA	0
19	Triplet	128	614	1586	9	0	0	1297071	692	0	correct_rejection	NA	0
19	Triplet	129	615	1587	4	0	0	1297779	692	0	correct_rejection	NA	0
19	Triplet	130	616	1588	5	0	0	1298488	692	0	correct_rejection	NA	0
19	Triplet	131	617	1589	6	0	0	1299197	691	0	correct_rejection	NA	0
19	Triplet	132	618	1590	6	0	0	1299905	692	0	correct_rejection	NA	0
19	Triplet	133	619	1591	5	0	0	1300614	691	0	correct_rejection	NA	0
19	Triplet	134	620	1592	4	0	0	1301322	692	0	correct_rejection	NA	0
19	Triplet	135	621	1593	4	0	0	1302031	692	0	correct_rejection	NA	0
19	Triplet	136	622	1594	5	0	0	1302739	692	0	correct_rejection	NA	0
19	Triplet	137	623	1595	6	0	0	1303448	692	0	correct_rejection	NA	0
19	Triplet	138	624	1596	7	0	0	1304157	691	0	correct_rejection	NA	0
19	Triplet	139	625	1597	8	0	0	1304865	692	0	correct_rejection	NA	0
19	Triplet	140	626	1598	9	0	0	1305574	691	0	correct_rejection	NA	0
