ID	block	trial_block	trial_cat	trial_total	number	violation	level_violation	onset	duration	Response	Hit_Miss	RT	pre_trial_fixcross_ISI
first_trigger_at: 11236
trigger nr 3 at 13235
20	Correct	1	163	1	4	0	0	19764	692	0	correct_rejection	NA	6488
20	Correct	2	164	2	5	0	0	20473	692	0	correct_rejection	NA	0
20	Correct	3	165	3	6	0	0	21181	692	0	correct_rejection	NA	0
20	Correct	4	166	4	4	0	0	21890	692	0	correct_rejection	NA	0
20	Correct	5	167	5	5	0	0	22599	691	0	correct_rejection	NA	0
20	Correct	6	168	6	6	0	0	23307	692	0	correct_rejection	NA	0
20	Correct	7	169	7	4	0	0	24016	691	0	correct_rejection	NA	0
20	Correct	8	170	8	0	1	1	24724	692	1	hit	442	0
20	Correct	9	171	9	5	0	0	25433	692	0	correct_rejection	NA	0
20	Correct	10	172	10	6	0	0	26141	692	0	correct_rejection	NA	0
20	Correct	11	173	11	6	0	0	26850	692	0	correct_rejection	NA	0
20	Correct	12	174	12	5	0	0	27559	691	0	correct_rejection	NA	0
20	Correct	13	175	13	4	0	0	28267	692	0	correct_rejection	NA	0
20	Correct	14	176	14	0	1	2	28976	691	1	hit	328	0
20	Correct	15	177	15	6	0	0	29684	692	0	correct_rejection	NA	0
20	Correct	16	178	16	5	0	0	30393	692	0	correct_rejection	NA	0
20	Correct	17	179	17	4	0	0	31101	692	0	correct_rejection	NA	0
20	Correct	18	180	18	6	0	0	31810	692	0	correct_rejection	NA	0
20	Correct	19	181	19	5	0	0	32519	691	0	correct_rejection	NA	0
20	Correct	20	182	20	4	0	0	33227	692	0	correct_rejection	NA	0
20	Correct	21	183	21	0	1	3	33936	691	1	hit	339	0
20	Correct	22	184	22	9	0	0	34644	692	0	correct_rejection	NA	0
20	Correct	23	185	23	8	0	0	35353	692	0	correct_rejection	NA	0
20	Correct	24	186	24	7	0	0	36061	692	0	correct_rejection	NA	0
20	Correct	25	187	25	0	1	2	36770	692	1	hit	370	0
20	Correct	26	188	26	9	0	0	37479	691	0	correct_rejection	NA	0
20	Correct	27	189	27	8	0	0	38187	692	0	correct_rejection	NA	0
20	Correct	28	190	28	0	1	1	38896	691	1	hit	338	0
20	Correct	29	191	29	7	0	0	39604	692	0	correct_rejection	NA	0
20	Correct	30	192	30	9	0	0	40313	692	0	correct_rejection	NA	0
20	Correct	31	193	31	8	0	0	41021	692	0	correct_rejection	NA	0
20	Correct	32	194	32	7	0	0	41730	692	0	correct_rejection	NA	0
20	Correct	33	195	33	0	1	3	42439	691	1	hit	306	0
20	Correct	34	196	34	7	0	0	43147	692	0	correct_rejection	NA	0
20	Correct	35	197	35	8	0	0	43856	691	0	correct_rejection	NA	0
20	Correct	36	198	36	9	0	0	44564	692	0	correct_rejection	NA	0
20	Correct	37	199	37	7	0	0	45273	691	0	correct_rejection	NA	0
20	Correct	38	200	38	8	0	0	45981	692	0	correct_rejection	NA	0
20	Correct	39	201	39	9	0	0	46690	692	0	correct_rejection	NA	0
20	Correct	40	202	40	7	0	0	47399	691	0	correct_rejection	NA	0
20	Correct	41	203	41	8	0	0	48107	692	0	correct_rejection	NA	0
20	Correct	42	204	42	9	0	0	48816	691	0	correct_rejection	NA	0
20	Correct	43	205	43	4	0	0	49524	692	0	correct_rejection	NA	0
20	Correct	44	206	44	5	0	0	50233	691	0	correct_rejection	NA	0
20	Correct	45	207	45	6	0	0	50941	692	0	correct_rejection	NA	0
20	Correct	46	208	46	4	0	0	51650	692	0	correct_rejection	NA	0
20	Correct	47	209	47	5	0	0	52358	692	0	correct_rejection	NA	0
20	Correct	48	210	48	6	0	0	53067	692	0	correct_rejection	NA	0
20	Correct	49	211	49	4	0	0	53776	691	0	correct_rejection	NA	0
20	Correct	50	212	50	5	0	0	54484	692	0	correct_rejection	NA	0
20	Correct	51	213	51	6	0	0	55193	691	0	correct_rejection	NA	0
20	Correct	52	214	52	6	0	0	55901	692	0	correct_rejection	NA	0
20	Correct	53	215	53	5	0	0	56610	692	0	correct_rejection	NA	0
20	Correct	54	216	54	4	0	0	57318	692	0	correct_rejection	NA	0
20	Correct	55	217	55	6	0	0	58027	692	0	correct_rejection	NA	0
20	Correct	56	218	56	5	0	0	58736	691	0	correct_rejection	NA	0
20	Correct	57	219	57	4	0	0	59444	692	0	correct_rejection	NA	0
20	Correct	58	220	58	6	0	0	60153	691	0	correct_rejection	NA	0
20	Correct	59	221	59	5	0	0	60861	692	0	correct_rejection	NA	0
20	Correct	60	222	60	0	1	1	61570	692	1	hit	348	0
20	Correct	61	223	61	4	0	0	62278	692	0	correct_rejection	NA	0
20	Correct	62	224	62	9	0	0	62987	692	0	correct_rejection	NA	0
20	Correct	63	225	63	0	1	1	63696	691	1	hit	428	0
20	Correct	64	226	64	8	0	0	64404	692	0	correct_rejection	NA	0
20	Correct	65	227	65	7	0	0	65113	691	0	correct_rejection	NA	0
20	Correct	66	228	66	9	0	0	65821	692	0	correct_rejection	NA	0
20	Correct	67	229	67	8	0	0	66530	692	0	correct_rejection	NA	0
20	Correct	68	230	68	7	0	0	67238	692	0	correct_rejection	NA	0
20	Correct	69	231	69	9	0	0	67947	692	0	correct_rejection	NA	0
20	Correct	70	232	70	8	0	0	68656	691	0	correct_rejection	NA	0
20	Correct	71	233	71	7	0	0	69364	692	0	correct_rejection	NA	0
20	Correct	72	234	72	7	0	0	70073	691	0	correct_rejection	NA	0
20	Correct	73	235	73	8	0	0	70781	692	0	correct_rejection	NA	0
20	Correct	74	236	74	0	1	1	71490	692	1	hit	397	0
20	Correct	75	237	75	9	0	0	72198	692	0	correct_rejection	NA	0
20	Correct	76	238	76	7	0	0	72907	692	0	correct_rejection	NA	0
20	Correct	77	239	77	0	1	1	73616	691	1	hit	424	0
20	Correct	78	240	78	8	0	0	74324	692	0	correct_rejection	NA	0
20	Correct	79	241	79	9	0	0	75033	691	0	correct_rejection	NA	0
20	Correct	80	242	80	7	0	0	75741	692	0	correct_rejection	NA	0
20	Correct	81	243	81	0	1	1	76450	691	1	hit	298	0
20	Correct	82	244	82	8	0	0	77158	692	0	correct_rejection	NA	0
20	Correct	83	245	83	9	0	0	77867	692	0	correct_rejection	NA	0
20	Correct	84	246	84	4	0	0	78576	691	0	correct_rejection	NA	0
20	Correct	85	247	85	5	0	0	79284	692	0	correct_rejection	NA	0
20	Correct	86	248	86	6	0	0	79993	691	0	correct_rejection	NA	0
20	Correct	87	249	87	0	1	2	80701	692	1	hit	361	0
20	Correct	88	250	88	4	0	0	81410	691	0	correct_rejection	NA	0
20	Correct	89	251	89	5	0	0	82118	692	0	correct_rejection	NA	0
20	Correct	90	252	90	6	0	0	82827	692	0	correct_rejection	NA	0
20	Correct	91	253	91	4	0	0	83535	692	0	correct_rejection	NA	0
20	Correct	92	254	92	5	0	0	84244	692	0	correct_rejection	NA	0
20	Correct	93	255	93	6	0	0	84953	691	0	correct_rejection	NA	0
20	Correct	94	256	94	6	0	0	85661	692	0	correct_rejection	NA	0
20	Correct	95	257	95	0	1	1	86370	691	1	hit	399	0
20	Correct	96	258	96	5	0	0	87078	692	0	correct_rejection	NA	0
20	Correct	97	259	97	4	0	0	87787	692	0	correct_rejection	NA	0
20	Correct	98	260	98	6	0	0	88495	692	0	correct_rejection	NA	0
20	Correct	99	261	99	5	0	0	89204	692	0	correct_rejection	NA	0
20	Correct	100	262	100	4	0	0	89913	691	0	correct_rejection	NA	0
20	Correct	101	263	101	6	0	0	90621	692	0	correct_rejection	NA	0
20	Correct	102	264	102	5	0	0	91330	691	0	correct_rejection	NA	0
20	Correct	103	265	103	4	0	0	92038	692	0	correct_rejection	NA	0
20	Correct	104	266	104	9	0	0	92747	692	0	correct_rejection	NA	0
20	Correct	105	267	105	8	0	0	93455	692	0	correct_rejection	NA	0
20	Correct	106	268	106	7	0	0	94164	692	0	correct_rejection	NA	0
20	Correct	107	269	107	9	0	0	94873	691	0	correct_rejection	NA	0
20	Correct	108	270	108	8	0	0	95581	692	0	correct_rejection	NA	0
20	Correct	109	271	109	7	0	0	96290	691	0	correct_rejection	NA	0
20	Correct	110	272	110	9	0	0	96998	692	0	correct_rejection	NA	0
20	Correct	111	273	111	8	0	0	97707	692	0	correct_rejection	NA	0
20	Correct	112	274	112	7	0	0	98415	692	0	correct_rejection	NA	0
20	Correct	113	275	113	7	0	0	99124	692	0	correct_rejection	NA	0
20	Correct	114	276	114	8	0	0	99833	691	0	correct_rejection	NA	0
20	Correct	115	277	115	0	1	1	100541	692	1	hit	364	0
20	Correct	116	278	116	9	0	0	101250	691	0	correct_rejection	NA	0
20	Correct	117	279	117	7	0	0	101958	692	0	correct_rejection	NA	0
20	Correct	118	280	118	8	0	0	102667	692	0	correct_rejection	NA	0
20	Correct	119	281	119	9	0	0	103375	692	0	correct_rejection	NA	0
20	Correct	120	282	120	0	1	2	104084	692	1	hit	456	0
20	Correct	121	283	121	7	0	0	104793	691	0	correct_rejection	NA	0
20	Correct	122	284	122	8	0	0	105501	692	0	correct_rejection	NA	0
20	Correct	123	285	123	9	0	0	106210	691	0	correct_rejection	NA	0
20	Correct	124	286	124	4	0	0	106918	692	0	correct_rejection	NA	0
20	Correct	125	287	125	5	0	0	107627	691	0	correct_rejection	NA	0
20	Correct	126	288	126	0	1	1	108335	692	1	hit	377	0
20	Correct	127	289	127	6	0	0	109044	692	0	correct_rejection	NA	0
20	Correct	128	290	128	4	0	0	109753	691	0	correct_rejection	NA	0
20	Correct	129	291	129	5	0	0	110461	692	0	correct_rejection	NA	0
20	Correct	130	292	130	6	0	0	111170	691	0	correct_rejection	NA	0
20	Correct	131	293	131	4	0	0	111878	692	0	correct_rejection	NA	0
20	Correct	132	294	132	5	0	0	112587	691	0	correct_rejection	NA	0
20	Correct	133	295	133	6	0	0	113295	692	0	correct_rejection	NA	0
20	Correct	134	296	134	6	0	0	114004	692	0	correct_rejection	NA	0
20	Correct	135	297	135	5	0	0	114712	692	0	correct_rejection	NA	0
20	Correct	136	298	136	4	0	0	115421	692	0	correct_rejection	NA	0
20	Correct	137	299	137	6	0	0	116130	691	0	correct_rejection	NA	0
20	Correct	138	300	138	5	0	0	116838	692	0	correct_rejection	NA	0
20	Correct	139	301	139	4	0	0	117547	691	0	correct_rejection	NA	0
20	Correct	140	302	140	6	0	0	118255	692	0	correct_rejection	NA	0
20	Correct	141	303	141	5	0	0	118964	692	0	correct_rejection	NA	0
20	Correct	142	304	142	4	0	0	119672	692	0	correct_rejection	NA	0
20	Correct	143	305	143	9	0	0	120381	692	0	correct_rejection	NA	0
20	Correct	144	306	144	8	0	0	121090	691	0	correct_rejection	NA	0
20	Correct	145	307	145	7	0	0	121798	692	0	correct_rejection	NA	0
20	Correct	146	308	146	9	0	0	122507	691	0	correct_rejection	NA	0
20	Correct	147	309	147	8	0	0	123215	692	0	correct_rejection	NA	0
20	Correct	148	310	148	0	1	1	123924	692	1	hit	450	0
20	Correct	149	311	149	7	0	0	124632	692	0	correct_rejection	NA	0
20	Correct	150	312	150	9	0	0	125341	692	0	correct_rejection	NA	0
20	Correct	151	313	151	8	0	0	126050	691	0	correct_rejection	NA	0
20	Correct	152	314	152	7	0	0	126758	692	0	correct_rejection	NA	0
20	Correct	153	315	153	7	0	0	127467	691	0	correct_rejection	NA	0
20	Correct	154	316	154	0	1	1	128175	692	1	hit	634	0
20	Correct	155	317	155	8	0	0	128884	692	0	correct_rejection	NA	0
20	Correct	156	318	156	9	0	0	129592	692	0	correct_rejection	NA	0
20	Correct	157	319	157	7	0	0	130301	692	0	correct_rejection	NA	0
20	Correct	158	320	158	8	0	0	131010	691	0	correct_rejection	NA	0
20	Correct	159	321	159	9	0	0	131718	692	0	correct_rejection	NA	0
20	Correct	160	322	160	7	0	0	132427	691	0	correct_rejection	NA	0
20	Correct	161	323	161	8	0	0	133135	692	0	correct_rejection	NA	0
20	Correct	162	324	162	9	0	0	133844	692	0	correct_rejection	NA	0
20	Nonet	1	487	163	7	0	0	143889	692	0	correct_rejection	NA	7619
20	Nonet	2	488	164	8	0	0	144597	692	0	correct_rejection	NA	0
20	Nonet	3	489	165	9	0	0	145306	692	0	correct_rejection	NA	0
20	Nonet	4	490	166	0	1	2	146015	691	1	hit	374	0
20	Nonet	5	491	167	7	0	0	146723	692	0	correct_rejection	NA	0
20	Nonet	6	492	168	8	0	0	147432	691	0	correct_rejection	NA	0
20	Nonet	7	493	169	9	0	0	148140	692	0	correct_rejection	NA	0
20	Nonet	8	494	170	7	0	0	148849	691	0	correct_rejection	NA	0
20	Nonet	9	495	171	8	0	0	149557	692	0	correct_rejection	NA	0
20	Nonet	10	496	172	9	0	0	150266	692	0	correct_rejection	NA	0
20	Nonet	11	497	173	7	0	0	150975	691	0	correct_rejection	NA	0
20	Nonet	12	498	174	8	0	0	151683	692	0	correct_rejection	NA	0
20	Nonet	13	499	175	0	1	1	152392	691	1	hit	480	0
20	Nonet	14	500	176	9	0	0	153100	692	0	correct_rejection	NA	0
20	Nonet	15	501	177	7	0	0	153809	691	0	correct_rejection	NA	0
20	Nonet	16	502	178	0	1	1	154517	692	1	hit	381	0
20	Nonet	17	503	179	8	0	0	155226	692	0	correct_rejection	NA	0
20	Nonet	18	504	180	9	0	0	155934	692	0	correct_rejection	NA	0
20	Nonet	19	505	181	7	0	0	156643	692	0	correct_rejection	NA	0
20	Nonet	20	506	182	8	0	0	157352	691	0	correct_rejection	NA	0
20	Nonet	21	507	183	9	0	0	158060	692	0	correct_rejection	NA	0
20	Nonet	22	508	184	9	0	0	158769	691	0	correct_rejection	NA	0
20	Nonet	23	509	185	8	0	0	159477	692	0	correct_rejection	NA	0
20	Nonet	24	510	186	7	0	0	160186	692	0	correct_rejection	NA	0
20	Nonet	25	511	187	9	0	0	160894	692	0	correct_rejection	NA	0
20	Nonet	26	512	188	8	0	0	161603	692	0	correct_rejection	NA	0
20	Nonet	27	513	189	7	0	0	162312	691	0	correct_rejection	NA	0
20	Nonet	28	514	190	9	0	0	163020	692	0	correct_rejection	NA	0
20	Nonet	29	515	191	0	1	1	163729	691	1	hit	433	0
20	Nonet	30	516	192	8	0	0	164437	692	0	correct_rejection	NA	0
20	Nonet	31	517	193	7	0	0	165146	692	0	correct_rejection	NA	0
20	Nonet	32	518	194	9	0	0	165854	692	0	correct_rejection	NA	0
20	Nonet	33	519	195	8	0	0	166563	692	0	correct_rejection	NA	0
20	Nonet	34	520	196	7	0	0	167272	691	0	correct_rejection	NA	0
20	Nonet	35	521	197	9	0	0	167980	692	0	correct_rejection	NA	0
20	Nonet	36	522	198	0	1	1	168689	691	1	hit	351	0
20	Nonet	37	523	199	8	0	0	169397	692	0	correct_rejection	NA	0
20	Nonet	38	524	200	7	0	0	170106	692	0	correct_rejection	NA	0
20	Nonet	39	525	201	9	0	0	170814	692	0	correct_rejection	NA	0
20	Nonet	40	526	202	8	0	0	171523	692	0	correct_rejection	NA	0
20	Nonet	41	527	203	7	0	0	172232	691	0	correct_rejection	NA	0
20	Nonet	42	528	204	4	0	0	172940	692	0	correct_rejection	NA	0
20	Nonet	43	529	205	5	0	0	173649	691	0	correct_rejection	NA	0
20	Nonet	44	530	206	6	0	0	174357	692	0	correct_rejection	NA	0
20	Nonet	45	531	207	4	0	0	175066	692	0	correct_rejection	NA	0
20	Nonet	46	532	208	5	0	0	175774	692	0	correct_rejection	NA	0
20	Nonet	47	533	209	0	1	1	176483	692	1	hit	335	0
20	Nonet	48	534	210	6	0	0	177192	691	0	correct_rejection	NA	0
20	Nonet	49	535	211	4	0	0	177900	692	0	correct_rejection	NA	0
20	Nonet	50	536	212	5	0	0	178609	691	0	correct_rejection	NA	0
20	Nonet	51	537	213	6	0	0	179317	692	0	correct_rejection	NA	0
20	Nonet	52	538	214	6	0	0	180026	691	0	correct_rejection	NA	0
20	Nonet	53	539	215	5	0	0	180734	692	0	correct_rejection	NA	0
20	Nonet	54	540	216	4	0	0	181443	692	0	correct_rejection	NA	0
20	Nonet	55	541	217	6	0	0	182152	691	0	correct_rejection	NA	0
20	Nonet	56	542	218	5	0	0	182860	692	0	correct_rejection	NA	0
20	Nonet	57	543	219	4	0	0	183569	691	0	correct_rejection	NA	0
20	Nonet	58	544	220	6	0	0	184277	692	0	correct_rejection	NA	0
20	Nonet	59	545	221	5	0	0	184986	691	0	correct_rejection	NA	0
20	Nonet	60	546	222	4	0	0	185694	692	0	correct_rejection	NA	0
20	Nonet	61	547	223	4	0	0	186403	692	0	correct_rejection	NA	0
20	Nonet	62	548	224	5	0	0	187111	692	0	correct_rejection	NA	0
20	Nonet	63	549	225	6	0	0	187820	692	0	correct_rejection	NA	0
20	Nonet	64	550	226	4	0	0	188529	691	0	correct_rejection	NA	0
20	Nonet	65	551	227	5	0	0	189237	692	0	correct_rejection	NA	0
20	Nonet	66	552	228	6	0	0	189946	691	0	correct_rejection	NA	0
20	Nonet	67	553	229	0	1	2	190654	692	1	hit	513	0
20	Nonet	68	554	230	4	0	0	191363	692	0	correct_rejection	NA	0
20	Nonet	69	555	231	5	0	0	192071	692	0	correct_rejection	NA	0
20	Nonet	70	556	232	6	0	0	192780	692	0	correct_rejection	NA	0
20	Nonet	71	557	233	7	0	0	193489	691	0	correct_rejection	NA	0
20	Nonet	72	558	234	8	0	0	194197	692	0	correct_rejection	NA	0
20	Nonet	73	559	235	9	0	0	194906	691	0	correct_rejection	NA	0
20	Nonet	74	560	236	7	0	0	195614	692	0	correct_rejection	NA	0
20	Nonet	75	561	237	8	0	0	196323	692	0	correct_rejection	NA	0
20	Nonet	76	562	238	9	0	0	197031	692	0	correct_rejection	NA	0
20	Nonet	77	563	239	7	0	0	197740	692	0	correct_rejection	NA	0
20	Nonet	78	564	240	8	0	0	198449	691	0	correct_rejection	NA	0
20	Nonet	79	565	241	9	0	0	199157	692	0	correct_rejection	NA	0
20	Nonet	80	566	242	6	0	0	199866	691	0	correct_rejection	NA	0
20	Nonet	81	567	243	5	0	0	200574	692	0	correct_rejection	NA	0
20	Nonet	82	568	244	0	1	1	201283	692	1	hit	445	0
20	Nonet	83	569	245	4	0	0	201991	692	0	correct_rejection	NA	0
20	Nonet	84	570	246	6	0	0	202700	692	0	correct_rejection	NA	0
20	Nonet	85	571	247	5	0	0	203409	691	0	correct_rejection	NA	0
20	Nonet	86	572	248	4	0	0	204117	692	0	correct_rejection	NA	0
20	Nonet	87	573	249	0	1	2	204826	691	1	hit	495	0
20	Nonet	88	574	250	6	0	0	205534	692	0	correct_rejection	NA	0
20	Nonet	89	575	251	5	0	0	206243	692	0	correct_rejection	NA	0
20	Nonet	90	576	252	4	0	0	206951	692	0	correct_rejection	NA	0
20	Nonet	91	577	253	9	0	0	207660	692	0	correct_rejection	NA	0
20	Nonet	92	578	254	8	0	0	208369	691	0	correct_rejection	NA	0
20	Nonet	93	579	255	7	0	0	209077	692	0	correct_rejection	NA	0
20	Nonet	94	580	256	9	0	0	209786	691	0	correct_rejection	NA	0
20	Nonet	95	581	257	8	0	0	210494	692	0	correct_rejection	NA	0
20	Nonet	96	582	258	7	0	0	211203	691	0	correct_rejection	NA	0
20	Nonet	97	583	259	0	1	2	211911	692	1	hit	417	0
20	Nonet	98	584	260	9	0	0	212620	692	0	correct_rejection	NA	0
20	Nonet	99	585	261	8	0	0	213328	692	0	correct_rejection	NA	0
20	Nonet	100	586	262	7	0	0	214037	692	0	correct_rejection	NA	0
20	Nonet	101	587	263	6	0	0	214746	691	0	correct_rejection	NA	0
20	Nonet	102	588	264	5	0	0	215454	692	0	correct_rejection	NA	0
20	Nonet	103	589	265	0	1	1	216163	691	1	hit	460	0
20	Nonet	104	590	266	4	0	0	216871	692	0	correct_rejection	NA	0
20	Nonet	105	591	267	6	0	0	217580	692	0	correct_rejection	NA	0
20	Nonet	106	592	268	5	0	0	218288	692	0	correct_rejection	NA	0
20	Nonet	107	593	269	4	0	0	218997	692	0	correct_rejection	NA	0
20	Nonet	108	594	270	6	0	0	219706	691	0	correct_rejection	NA	0
20	Nonet	109	595	271	5	0	0	220414	692	0	correct_rejection	NA	0
20	Nonet	110	596	272	4	0	0	221123	691	0	correct_rejection	NA	0
20	Nonet	111	597	273	6	0	0	221831	692	0	correct_rejection	NA	0
20	Nonet	112	598	274	5	0	0	222540	692	0	correct_rejection	NA	0
20	Nonet	113	599	275	4	0	0	223248	692	0	correct_rejection	NA	0
20	Nonet	114	600	276	6	0	0	223957	692	0	correct_rejection	NA	0
20	Nonet	115	601	277	5	0	0	224666	691	0	correct_rejection	NA	0
20	Nonet	116	602	278	4	0	0	225374	692	0	correct_rejection	NA	0
20	Nonet	117	603	279	6	0	0	226083	691	0	correct_rejection	NA	0
20	Nonet	118	604	280	0	1	1	226791	692	1	hit	484	0
20	Nonet	119	605	281	5	0	0	227500	692	0	correct_rejection	NA	0
20	Nonet	120	606	282	4	0	0	228208	692	0	correct_rejection	NA	0
20	Nonet	121	607	283	7	0	0	228917	692	0	correct_rejection	NA	0
20	Nonet	122	608	284	8	0	0	229626	691	0	correct_rejection	NA	0
20	Nonet	123	609	285	0	1	1	230334	692	1	hit	504	0
20	Nonet	124	610	286	9	0	0	231043	691	0	correct_rejection	NA	0
20	Nonet	125	611	287	7	0	0	231751	692	0	correct_rejection	NA	0
20	Nonet	126	612	288	0	1	1	232460	692	1	hit	454	0
20	Nonet	127	613	289	8	0	0	233168	692	0	correct_rejection	NA	0
20	Nonet	128	614	290	9	0	0	233877	692	0	correct_rejection	NA	0
20	Nonet	129	615	291	0	1	2	234586	691	1	hit	387	0
20	Nonet	130	616	292	7	0	0	235294	692	0	correct_rejection	NA	0
20	Nonet	131	617	293	8	0	0	236003	691	0	correct_rejection	NA	0
20	Nonet	132	618	294	9	0	0	236711	692	0	correct_rejection	NA	0
20	Nonet	133	619	295	4	0	0	237420	692	0	correct_rejection	NA	0
20	Nonet	134	620	296	5	0	0	238128	692	0	correct_rejection	NA	0
20	Nonet	135	621	297	6	0	0	238837	692	0	correct_rejection	NA	0
20	Nonet	136	622	298	4	0	0	239546	691	0	correct_rejection	NA	0
20	Nonet	137	623	299	5	0	0	240254	692	0	correct_rejection	NA	0
20	Nonet	138	624	300	6	0	0	240963	691	0	correct_rejection	NA	0
20	Nonet	139	625	301	4	0	0	241671	692	0	correct_rejection	NA	0
20	Nonet	140	626	302	5	0	0	242380	691	0	correct_rejection	NA	0
20	Nonet	141	627	303	6	0	0	243088	692	0	correct_rejection	NA	0
20	Nonet	142	628	304	4	0	0	243797	692	0	correct_rejection	NA	0
20	Nonet	143	629	305	5	0	0	244506	691	0	correct_rejection	NA	0
20	Nonet	144	630	306	6	0	0	245214	692	0	correct_rejection	NA	0
20	Nonet	145	631	307	4	0	0	245923	691	0	correct_rejection	NA	0
20	Nonet	146	632	308	0	1	1	246631	692	1	hit	541	0
20	Nonet	147	633	309	5	0	0	247340	691	0	correct_rejection	NA	0
20	Nonet	148	634	310	6	0	0	248048	692	0	correct_rejection	NA	0
20	Nonet	149	635	311	0	1	2	248757	692	1	hit	440	0
20	Nonet	150	636	312	4	0	0	249465	692	0	correct_rejection	NA	0
20	Nonet	151	637	313	5	0	0	250174	692	0	correct_rejection	NA	0
20	Nonet	152	638	314	6	0	0	250883	691	0	correct_rejection	NA	0
20	Nonet	153	639	315	9	0	0	251591	692	0	correct_rejection	NA	0
20	Nonet	154	640	316	8	0	0	252300	691	0	correct_rejection	NA	0
20	Nonet	155	641	317	7	0	0	253008	692	0	correct_rejection	NA	0
20	Nonet	156	642	318	9	0	0	253717	692	0	correct_rejection	NA	0
20	Nonet	157	643	319	8	0	0	254425	692	0	correct_rejection	NA	0
20	Nonet	158	644	320	7	0	0	255134	692	0	correct_rejection	NA	0
20	Nonet	159	645	321	9	0	0	255843	691	0	correct_rejection	NA	0
20	Nonet	160	646	322	8	0	0	256551	692	0	correct_rejection	NA	0
20	Nonet	161	647	323	0	1	1	257260	691	1	hit	516	0
20	Nonet	162	648	324	7	0	0	257968	692	0	correct_rejection	NA	0
20	Single	1	163	325	8	0	0	267263	692	0	correct_rejection	NA	6999
20	Single	2	164	326	6	0	0	267972	691	0	correct_rejection	NA	0
20	Single	3	165	327	7	0	0	268680	692	0	correct_rejection	NA	0
20	Single	4	166	328	5	0	0	269389	691	0	correct_rejection	NA	0
20	Single	5	167	329	0	1	1	270097	692	1	hit	376	0
20	Single	6	168	330	5	0	0	270806	692	0	correct_rejection	NA	0
20	Single	7	169	331	7	0	0	271514	692	0	correct_rejection	NA	0
20	Single	8	170	332	6	0	0	272223	692	0	correct_rejection	NA	0
20	Single	9	171	333	0	1	1	272932	691	1	hit	407	0
20	Single	10	172	334	8	0	0	273640	692	0	correct_rejection	NA	0
20	Single	11	173	335	7	0	0	274349	691	0	correct_rejection	NA	0
20	Single	12	174	336	7	0	0	275057	692	0	correct_rejection	NA	0
20	Single	13	175	337	8	0	0	275766	692	0	correct_rejection	NA	0
20	Single	14	176	338	8	0	0	276474	692	0	correct_rejection	NA	0
20	Single	15	177	339	4	0	0	277183	692	0	correct_rejection	NA	0
20	Single	16	178	340	7	0	0	277892	691	0	correct_rejection	NA	0
20	Single	17	179	341	0	1	1	278600	692	1	hit	376	0
20	Single	18	180	342	9	0	0	279309	691	0	correct_rejection	NA	0
20	Single	19	181	343	6	0	0	280017	692	0	correct_rejection	NA	0
20	Single	20	182	344	5	0	0	280726	692	0	correct_rejection	NA	0
20	Single	21	183	345	9	0	0	281434	692	0	correct_rejection	NA	0
20	Single	22	184	346	7	0	0	282143	692	0	correct_rejection	NA	0
20	Single	23	185	347	4	0	0	282852	691	0	correct_rejection	NA	0
20	Single	24	186	348	4	0	0	283560	692	0	correct_rejection	NA	0
20	Single	25	187	349	0	1	1	284269	691	1	hit	320	0
20	Single	26	188	350	6	0	0	284977	692	0	correct_rejection	NA	0
20	Single	27	189	351	9	0	0	285686	692	0	correct_rejection	NA	0
20	Single	28	190	352	9	0	0	286394	692	0	correct_rejection	NA	0
20	Single	29	191	353	5	0	0	287103	692	0	correct_rejection	NA	0
20	Single	30	192	354	6	0	0	287812	691	0	correct_rejection	NA	0
20	Single	31	193	355	6	0	0	288520	692	0	correct_rejection	NA	0
20	Single	32	194	356	0	1	1	289229	691	1	hit	383	0
20	Single	33	195	357	4	0	0	289937	692	0	correct_rejection	NA	0
20	Single	34	196	358	8	0	0	290646	691	0	correct_rejection	NA	0
20	Single	35	197	359	5	0	0	291354	692	0	correct_rejection	NA	0
20	Single	36	198	360	4	0	0	292063	692	0	correct_rejection	NA	0
20	Single	37	199	361	9	0	0	292771	692	0	correct_rejection	NA	0
20	Single	38	200	362	4	0	0	293480	692	0	correct_rejection	NA	0
20	Single	39	201	363	5	0	0	294189	691	0	correct_rejection	NA	0
20	Single	40	202	364	8	0	0	294897	692	0	correct_rejection	NA	0
20	Single	41	203	365	9	0	0	295606	691	0	correct_rejection	NA	0
20	Single	42	204	366	9	0	0	296314	692	0	correct_rejection	NA	0
20	Single	43	205	367	7	0	0	297023	692	0	correct_rejection	NA	0
20	Single	44	206	368	6	0	0	297731	692	0	correct_rejection	NA	0
20	Single	45	207	369	9	0	0	298440	692	0	correct_rejection	NA	0
20	Single	46	208	370	6	0	0	299149	691	0	correct_rejection	NA	0
20	Single	47	209	371	8	0	0	299857	692	0	correct_rejection	NA	0
20	Single	48	210	372	0	1	1	300566	691	1	hit	488	0
20	Single	49	211	373	4	0	0	301274	692	0	correct_rejection	NA	0
20	Single	50	212	374	8	0	0	301983	692	0	correct_rejection	NA	0
20	Single	51	213	375	8	0	0	302691	692	0	correct_rejection	NA	0
20	Single	52	214	376	0	1	1	303400	692	1	hit	586	0
20	Single	53	215	377	5	0	0	304109	691	0	correct_rejection	NA	0
20	Single	54	216	378	7	0	0	304817	692	0	correct_rejection	NA	0
20	Single	55	217	379	7	0	0	305526	691	0	correct_rejection	NA	0
20	Single	56	218	380	5	0	0	306234	692	0	correct_rejection	NA	0
20	Single	57	219	381	6	0	0	306943	692	0	correct_rejection	NA	0
20	Single	58	220	382	4	0	0	307651	692	0	correct_rejection	NA	0
20	Single	59	221	383	7	0	0	308360	692	0	correct_rejection	NA	0
20	Single	60	222	384	0	1	1	309069	691	1	hit	392	0
20	Single	61	223	385	4	0	0	309777	692	0	correct_rejection	NA	0
20	Single	62	224	386	6	0	0	310486	691	0	correct_rejection	NA	0
20	Single	63	225	387	5	0	0	311194	692	0	correct_rejection	NA	0
20	Single	64	226	388	5	0	0	311903	692	0	correct_rejection	NA	0
20	Single	65	227	389	8	0	0	312611	692	0	correct_rejection	NA	0
20	Single	66	228	390	0	1	1	313320	692	1	hit	371	0
20	Single	67	229	391	7	0	0	314029	691	0	correct_rejection	NA	0
20	Single	68	230	392	8	0	0	314737	692	0	correct_rejection	NA	0
20	Single	69	231	393	9	0	0	315446	691	0	correct_rejection	NA	0
20	Single	70	232	394	0	1	1	316154	692	1	hit	386	0
20	Single	71	233	395	4	0	0	316863	692	0	correct_rejection	NA	0
20	Single	72	234	396	9	0	0	317571	692	0	correct_rejection	NA	0
20	Single	73	235	397	5	0	0	318280	692	0	correct_rejection	NA	0
20	Single	74	236	398	4	0	0	318989	691	0	correct_rejection	NA	0
20	Single	75	237	399	4	0	0	319697	692	0	correct_rejection	NA	0
20	Single	76	238	400	5	0	0	320406	691	0	correct_rejection	NA	0
20	Single	77	239	401	0	1	1	321114	692	1	hit	401	0
20	Single	78	240	402	9	0	0	321823	691	0	correct_rejection	NA	0
20	Single	79	241	403	9	0	0	322531	692	0	correct_rejection	NA	0
20	Single	80	242	404	8	0	0	323240	692	0	correct_rejection	NA	0
20	Single	81	243	405	6	0	0	323948	692	0	correct_rejection	NA	0
20	Single	82	244	406	6	0	0	324657	692	0	correct_rejection	NA	0
20	Single	83	245	407	7	0	0	325366	691	0	correct_rejection	NA	0
20	Single	84	246	408	7	0	0	326074	692	0	correct_rejection	NA	0
20	Single	85	247	409	5	0	0	326783	691	0	correct_rejection	NA	0
20	Single	86	248	410	7	0	0	327491	692	0	correct_rejection	NA	0
20	Single	87	249	411	9	0	0	328200	692	0	correct_rejection	NA	0
20	Single	88	250	412	9	0	0	328908	692	0	correct_rejection	NA	0
20	Single	89	251	413	7	0	0	329617	692	0	correct_rejection	NA	0
20	Single	90	252	414	7	0	0	330326	691	0	correct_rejection	NA	0
20	Single	91	253	415	4	0	0	331034	692	0	correct_rejection	NA	0
20	Single	92	254	416	8	0	0	331743	691	0	correct_rejection	NA	0
20	Single	93	255	417	7	0	0	332451	692	0	correct_rejection	NA	0
20	Single	94	256	418	6	0	0	333160	692	0	correct_rejection	NA	0
20	Single	95	257	419	5	0	0	333868	692	0	correct_rejection	NA	0
20	Single	96	258	420	6	0	0	334577	692	0	correct_rejection	NA	0
20	Single	97	259	421	7	0	0	335286	691	0	correct_rejection	NA	0
20	Single	98	260	422	8	0	0	335994	692	0	correct_rejection	NA	0
20	Single	99	261	423	5	0	0	336703	691	0	correct_rejection	NA	0
20	Single	100	262	424	9	0	0	337411	692	0	correct_rejection	NA	0
20	Single	101	263	425	4	0	0	338120	692	0	correct_rejection	NA	0
20	Single	102	264	426	4	0	0	338828	692	0	correct_rejection	NA	0
20	Single	103	265	427	9	0	0	339537	692	0	correct_rejection	NA	0
20	Single	104	266	428	0	1	1	340246	691	1	hit	464	0
20	Single	105	267	429	8	0	0	340954	692	0	correct_rejection	NA	0
20	Single	106	268	430	9	0	0	341663	691	0	correct_rejection	NA	0
20	Single	107	269	431	6	0	0	342371	692	0	correct_rejection	NA	0
20	Single	108	270	432	9	0	0	343080	692	0	correct_rejection	NA	0
20	Single	109	271	433	0	1	1	343788	692	1	hit	444	0
20	Single	110	272	434	5	0	0	344497	692	0	correct_rejection	NA	0
20	Single	111	273	435	8	0	0	345206	691	0	correct_rejection	NA	0
20	Single	112	274	436	4	0	0	345914	692	0	correct_rejection	NA	0
20	Single	113	275	437	5	0	0	346623	691	0	correct_rejection	NA	0
20	Single	114	276	438	5	0	0	347331	692	0	correct_rejection	NA	0
20	Single	115	277	439	4	0	0	348040	691	0	correct_rejection	NA	0
20	Single	116	278	440	6	0	0	348748	692	0	correct_rejection	NA	0
20	Single	117	279	441	6	0	0	349457	692	0	correct_rejection	NA	0
20	Single	118	280	442	8	0	0	350166	691	0	correct_rejection	NA	0
20	Single	119	281	443	8	0	0	350874	692	0	correct_rejection	NA	0
20	Single	120	282	444	6	0	0	351583	691	0	correct_rejection	NA	0
20	Single	121	283	445	4	0	0	352291	692	0	correct_rejection	NA	0
20	Single	122	284	446	8	0	0	353000	691	0	correct_rejection	NA	0
20	Single	123	285	447	4	0	0	353708	692	0	correct_rejection	NA	0
20	Single	124	286	448	6	0	0	354417	692	0	correct_rejection	NA	0
20	Single	125	287	449	0	1	1	355125	692	1	hit	479	0
20	Single	126	288	450	9	0	0	355834	692	0	correct_rejection	NA	0
20	Single	127	289	451	8	0	0	356543	691	0	correct_rejection	NA	0
20	Single	128	290	452	8	0	0	357251	692	0	correct_rejection	NA	0
20	Single	129	291	453	0	1	1	357960	691	1	hit	494	0
20	Single	130	292	454	9	0	0	358668	692	0	correct_rejection	NA	0
20	Single	131	293	455	5	0	0	359377	692	0	correct_rejection	NA	0
20	Single	132	294	456	9	0	0	360085	692	0	correct_rejection	NA	0
20	Single	133	295	457	7	0	0	360794	692	0	correct_rejection	NA	0
20	Single	134	296	458	5	0	0	361503	691	0	correct_rejection	NA	0
20	Single	135	297	459	8	0	0	362211	692	0	correct_rejection	NA	0
20	Single	136	298	460	5	0	0	362920	691	0	correct_rejection	NA	0
20	Single	137	299	461	5	0	0	363628	692	0	correct_rejection	NA	0
20	Single	138	300	462	6	0	0	364337	692	0	correct_rejection	NA	0
20	Single	139	301	463	8	0	0	365045	692	0	correct_rejection	NA	0
20	Single	140	302	464	0	1	1	365754	692	1	hit	634	0
20	Single	141	303	465	6	0	0	366463	691	0	correct_rejection	NA	0
20	Single	142	304	466	7	0	0	367171	692	0	correct_rejection	NA	0
20	Single	143	305	467	9	0	0	367880	691	0	correct_rejection	NA	0
20	Single	144	306	468	6	0	0	368588	692	0	correct_rejection	NA	0
20	Single	145	307	469	0	1	1	369297	692	1	hit	435	0
20	Single	146	308	470	5	0	0	370005	692	0	correct_rejection	NA	0
20	Single	147	309	471	4	0	0	370714	692	0	correct_rejection	NA	0
20	Single	148	310	472	0	1	1	371423	691	1	hit	423	0
20	Single	149	311	473	5	0	0	372131	692	0	correct_rejection	NA	0
20	Single	150	312	474	7	0	0	372840	691	0	correct_rejection	NA	0
20	Single	151	313	475	8	0	0	373548	692	0	correct_rejection	NA	0
20	Single	152	314	476	7	0	0	374257	692	0	correct_rejection	NA	0
20	Single	153	315	477	4	0	0	374965	692	0	correct_rejection	NA	0
20	Single	154	316	478	4	0	0	375674	692	0	correct_rejection	NA	0
20	Single	155	317	479	7	0	0	376383	691	0	correct_rejection	NA	0
20	Single	156	318	480	7	0	0	377091	692	0	correct_rejection	NA	0
20	Single	157	319	481	6	0	0	377800	691	0	correct_rejection	NA	0
20	Single	158	320	482	6	0	0	378508	692	0	correct_rejection	NA	0
20	Single	159	321	483	4	0	0	379217	692	0	correct_rejection	NA	0
20	Single	160	322	484	9	0	0	379925	692	0	correct_rejection	NA	0
20	Single	161	323	485	9	0	0	380634	692	0	correct_rejection	NA	0
20	Single	162	324	486	4	0	0	381343	691	0	correct_rejection	NA	0
20	Correct	1	1	487	4	0	0	390362	692	0	correct_rejection	NA	7099
20	Correct	2	2	488	5	0	0	391071	691	0	correct_rejection	NA	0
20	Correct	3	3	489	6	0	0	391779	692	0	correct_rejection	NA	0
20	Correct	4	4	490	0	1	2	392488	692	1	hit	386	0
20	Correct	5	5	491	4	0	0	393196	692	0	correct_rejection	NA	0
20	Correct	6	6	492	5	0	0	393905	692	0	correct_rejection	NA	0
20	Correct	7	7	493	6	0	0	394614	691	0	correct_rejection	NA	0
20	Correct	8	8	494	4	0	0	395322	692	0	correct_rejection	NA	0
20	Correct	9	9	495	5	0	0	396031	691	0	correct_rejection	NA	0
20	Correct	10	10	496	6	0	0	396739	692	0	correct_rejection	NA	0
20	Correct	11	11	497	0	1	3	397448	692	1	hit	408	0
20	Correct	12	12	498	6	0	0	398156	692	0	correct_rejection	NA	0
20	Correct	13	13	499	5	0	0	398865	692	0	correct_rejection	NA	0
20	Correct	14	14	500	4	0	0	399574	691	0	correct_rejection	NA	0
20	Correct	15	15	501	6	0	0	400282	692	0	correct_rejection	NA	0
20	Correct	16	16	502	0	1	1	400991	691	1	hit	496	0
20	Correct	17	17	503	5	0	0	401699	692	0	correct_rejection	NA	0
20	Correct	18	18	504	4	0	0	402408	692	0	correct_rejection	NA	0
20	Correct	19	19	505	6	0	0	403116	692	0	correct_rejection	NA	0
20	Correct	20	20	506	5	0	0	403825	692	0	correct_rejection	NA	0
20	Correct	21	21	507	4	0	0	404534	691	0	correct_rejection	NA	0
20	Correct	22	22	508	9	0	0	405242	692	0	correct_rejection	NA	0
20	Correct	23	23	509	8	0	0	405951	691	0	correct_rejection	NA	0
20	Correct	24	24	510	7	0	0	406659	692	0	correct_rejection	NA	0
20	Correct	25	25	511	9	0	0	407368	691	0	correct_rejection	NA	0
20	Correct	26	26	512	8	0	0	408076	692	0	correct_rejection	NA	0
20	Correct	27	27	513	7	0	0	408785	692	0	correct_rejection	NA	0
20	Correct	28	28	514	0	1	2	409494	691	1	hit	460	0
20	Correct	29	29	515	9	0	0	410202	692	0	correct_rejection	NA	0
20	Correct	30	30	516	8	0	0	410911	691	0	correct_rejection	NA	0
20	Correct	31	31	517	7	0	0	411619	692	0	correct_rejection	NA	0
20	Correct	32	32	518	7	0	0	412328	691	0	correct_rejection	NA	0
20	Correct	33	33	519	8	0	0	413036	692	0	correct_rejection	NA	0
20	Correct	34	34	520	9	0	0	413745	692	0	correct_rejection	NA	0
20	Correct	35	35	521	7	0	0	414453	692	0	correct_rejection	NA	0
20	Correct	36	36	522	8	0	0	415162	692	0	correct_rejection	NA	0
20	Correct	37	37	523	9	0	0	415871	691	0	correct_rejection	NA	0
20	Correct	38	38	524	7	0	0	416579	692	0	correct_rejection	NA	0
20	Correct	39	39	525	8	0	0	417288	691	0	correct_rejection	NA	0
20	Correct	40	40	526	9	0	0	417996	692	0	correct_rejection	NA	0
20	Correct	41	41	527	0	1	4	418705	692	1	hit	447	0
20	Correct	42	42	528	4	0	0	419413	692	0	correct_rejection	NA	0
20	Correct	43	43	529	5	0	0	420122	692	0	correct_rejection	NA	0
20	Correct	44	44	530	0	1	1	420831	691	1	hit	520	0
20	Correct	45	45	531	6	0	0	421539	692	0	correct_rejection	NA	0
20	Correct	46	46	532	4	0	0	422248	691	0	correct_rejection	NA	0
20	Correct	47	47	533	5	0	0	422956	692	0	correct_rejection	NA	0
20	Correct	48	48	534	6	0	0	423665	692	0	correct_rejection	NA	0
20	Correct	49	49	535	4	0	0	424373	692	0	correct_rejection	NA	0
20	Correct	50	50	536	5	0	0	425082	692	0	correct_rejection	NA	0
20	Correct	51	51	537	6	0	0	425791	691	0	correct_rejection	NA	0
20	Correct	52	52	538	6	0	0	426499	692	0	correct_rejection	NA	0
20	Correct	53	53	539	5	0	0	427208	691	0	correct_rejection	NA	0
20	Correct	54	54	540	4	0	0	427916	692	0	correct_rejection	NA	0
20	Correct	55	55	541	6	0	0	428625	692	0	correct_rejection	NA	0
20	Correct	56	56	542	5	0	0	429333	692	0	correct_rejection	NA	0
20	Correct	57	57	543	4	0	0	430042	692	0	correct_rejection	NA	0
20	Correct	58	58	544	6	0	0	430751	691	0	correct_rejection	NA	0
20	Correct	59	59	545	5	0	0	431459	692	0	correct_rejection	NA	0
20	Correct	60	60	546	4	0	0	432168	691	0	correct_rejection	NA	0
20	Correct	61	61	547	9	0	0	432876	692	0	correct_rejection	NA	0
20	Correct	62	62	548	8	0	0	433585	692	0	correct_rejection	NA	0
20	Correct	63	63	549	7	0	0	434293	692	0	correct_rejection	NA	0
20	Correct	64	64	550	9	0	0	435002	692	0	correct_rejection	NA	0
20	Correct	65	65	551	8	0	0	435711	691	0	correct_rejection	NA	0
20	Correct	66	66	552	7	0	0	436419	692	0	correct_rejection	NA	0
20	Correct	67	67	553	9	0	0	437128	691	0	correct_rejection	NA	0
20	Correct	68	68	554	8	0	0	437836	692	0	correct_rejection	NA	0
20	Correct	69	69	555	7	0	0	438545	691	0	correct_rejection	NA	0
20	Correct	70	70	556	7	0	0	439253	692	0	correct_rejection	NA	0
20	Correct	71	71	557	8	0	0	439962	692	0	correct_rejection	NA	0
20	Correct	72	72	558	9	0	0	440671	691	0	correct_rejection	NA	0
20	Correct	73	73	559	7	0	0	441379	692	0	correct_rejection	NA	0
20	Correct	74	74	560	8	0	0	442088	691	0	correct_rejection	NA	0
20	Correct	75	75	561	9	0	0	442796	692	0	correct_rejection	NA	0
20	Correct	76	76	562	7	0	0	443505	691	0	correct_rejection	NA	0
20	Correct	77	77	563	8	0	0	444213	692	0	correct_rejection	NA	0
20	Correct	78	78	564	9	0	0	444922	692	0	correct_rejection	NA	0
20	Correct	79	79	565	4	0	0	445630	692	0	correct_rejection	NA	0
20	Correct	80	80	566	0	1	1	446339	692	1	hit	501	0
20	Correct	81	81	567	5	0	0	447048	691	0	correct_rejection	NA	0
20	Correct	82	82	568	6	0	0	447756	692	0	correct_rejection	NA	0
20	Correct	83	83	569	4	0	0	448465	691	0	correct_rejection	NA	0
20	Correct	84	84	570	5	0	0	449173	692	0	correct_rejection	NA	0
20	Correct	85	85	571	6	0	0	449882	692	0	correct_rejection	NA	0
20	Correct	86	86	572	4	0	0	450590	692	0	correct_rejection	NA	0
20	Correct	87	87	573	0	1	1	451299	692	1	hit	415	0
20	Correct	88	88	574	5	0	0	452008	691	0	correct_rejection	NA	0
20	Correct	89	89	575	6	0	0	452716	692	0	correct_rejection	NA	0
20	Correct	90	90	576	6	0	0	453425	691	0	correct_rejection	NA	0
20	Correct	91	91	577	5	0	0	454133	692	0	correct_rejection	NA	0
20	Correct	92	92	578	0	1	1	454842	692	1	hit	543	0
20	Correct	93	93	579	4	0	0	455550	692	0	correct_rejection	NA	0
20	Correct	94	94	580	6	0	0	456259	692	0	correct_rejection	NA	0
20	Correct	95	95	581	5	0	0	456968	691	0	correct_rejection	NA	0
20	Correct	96	96	582	0	1	1	457676	692	1	hit	444	0
20	Correct	97	97	583	4	0	0	458385	691	0	correct_rejection	NA	0
20	Correct	98	98	584	6	0	0	459093	692	0	correct_rejection	NA	0
20	Correct	99	99	585	5	0	0	459802	692	0	correct_rejection	NA	0
20	Correct	100	100	586	4	0	0	460510	692	0	correct_rejection	NA	0
20	Correct	101	101	587	9	0	0	461219	692	0	correct_rejection	NA	0
20	Correct	102	102	588	0	1	1	461928	691	1	hit	389	0
20	Correct	103	103	589	8	0	0	462636	692	0	correct_rejection	NA	0
20	Correct	104	104	590	7	0	0	463345	691	0	correct_rejection	NA	0
20	Correct	105	105	591	9	0	0	464053	692	0	correct_rejection	NA	0
20	Correct	106	106	592	8	0	0	464762	692	0	correct_rejection	NA	0
20	Correct	107	107	593	7	0	0	465470	692	0	correct_rejection	NA	0
20	Correct	108	108	594	9	0	0	466179	692	0	correct_rejection	NA	0
20	Correct	109	109	595	8	0	0	466888	691	0	correct_rejection	NA	0
20	Correct	110	110	596	0	1	1	467596	692	1	hit	458	0
20	Correct	111	111	597	7	0	0	468305	691	0	correct_rejection	NA	0
20	Correct	112	112	598	7	0	0	469013	692	0	correct_rejection	NA	0
20	Correct	113	113	599	8	0	0	469722	691	0	correct_rejection	NA	0
20	Correct	114	114	600	9	0	0	470430	692	0	correct_rejection	NA	0
20	Correct	115	115	601	7	0	0	471139	692	0	correct_rejection	NA	0
20	Correct	116	116	602	8	0	0	471848	691	0	correct_rejection	NA	0
20	Correct	117	117	603	9	0	0	472556	692	0	correct_rejection	NA	0
20	Correct	118	118	604	7	0	0	473265	691	0	correct_rejection	NA	0
20	Correct	119	119	605	8	0	0	473973	692	0	correct_rejection	NA	0
20	Correct	120	120	606	0	1	1	474682	691	1	hit	504	0
20	Correct	121	121	607	9	0	0	475390	692	0	correct_rejection	NA	0
20	Correct	122	122	608	4	0	0	476099	692	0	correct_rejection	NA	0
20	Correct	123	123	609	5	0	0	476807	692	0	correct_rejection	NA	0
20	Correct	124	124	610	6	0	0	477516	692	0	correct_rejection	NA	0
20	Correct	125	125	611	4	0	0	478225	691	0	correct_rejection	NA	0
20	Correct	126	126	612	5	0	0	478933	692	0	correct_rejection	NA	0
20	Correct	127	127	613	6	0	0	479642	691	0	correct_rejection	NA	0
20	Correct	128	128	614	4	0	0	480350	692	0	correct_rejection	NA	0
20	Correct	129	129	615	5	0	0	481059	692	0	correct_rejection	NA	0
20	Correct	130	130	616	0	1	1	481767	692	1	hit	423	0
20	Correct	131	131	617	6	0	0	482476	692	0	correct_rejection	NA	0
20	Correct	132	132	618	6	0	0	483185	691	0	correct_rejection	NA	0
20	Correct	133	133	619	0	1	1	483893	692	1	hit	542	0
20	Correct	134	134	620	5	0	0	484602	691	0	correct_rejection	NA	0
20	Correct	135	135	621	4	0	0	485310	692	0	correct_rejection	NA	0
20	Correct	136	136	622	6	0	0	486019	692	0	correct_rejection	NA	0
20	Correct	137	137	623	5	0	0	486727	692	0	correct_rejection	NA	0
20	Correct	138	138	624	4	0	0	487436	692	0	correct_rejection	NA	0
20	Correct	139	139	625	0	1	2	488145	691	1	hit	367	0
20	Correct	140	140	626	6	0	0	488853	692	0	correct_rejection	NA	0
20	Correct	141	141	627	5	0	0	489562	691	0	correct_rejection	NA	0
20	Correct	142	142	628	4	0	0	490270	692	0	correct_rejection	NA	0
20	Correct	143	143	629	9	0	0	490979	692	0	correct_rejection	NA	0
20	Correct	144	144	630	8	0	0	491687	692	0	correct_rejection	NA	0
20	Correct	145	145	631	7	0	0	492396	692	0	correct_rejection	NA	0
20	Correct	146	146	632	9	0	0	493105	691	0	correct_rejection	NA	0
20	Correct	147	147	633	8	0	0	493813	692	0	correct_rejection	NA	0
20	Correct	148	148	634	7	0	0	494522	691	0	correct_rejection	NA	0
20	Correct	149	149	635	9	0	0	495230	692	0	correct_rejection	NA	0
20	Correct	150	150	636	0	1	1	495939	692	1	hit	429	0
20	Correct	151	151	637	8	0	0	496647	692	0	correct_rejection	NA	0
20	Correct	152	152	638	7	0	0	497356	692	0	correct_rejection	NA	0
20	Correct	153	153	639	7	0	0	498065	691	0	correct_rejection	NA	0
20	Correct	154	154	640	8	0	0	498773	692	0	correct_rejection	NA	0
20	Correct	155	155	641	9	0	0	499482	691	0	correct_rejection	NA	0
20	Correct	156	156	642	0	1	2	500190	692	1	hit	672	0
20	Correct	157	157	643	7	0	0	500899	691	0	correct_rejection	NA	0
20	Correct	158	158	644	8	0	0	501607	692	0	correct_rejection	NA	0
20	Correct	159	159	645	9	0	0	502316	692	0	correct_rejection	NA	0
20	Correct	160	160	646	7	0	0	503025	691	0	correct_rejection	NA	0
20	Correct	161	161	647	8	0	0	503733	692	0	correct_rejection	NA	0
20	Correct	162	162	648	9	0	0	504442	691	0	correct_rejection	NA	0
20	Triplet	1	163	649	6	0	0	514162	691	0	correct_rejection	NA	7899
20	Triplet	2	164	650	5	0	0	514870	692	0	correct_rejection	NA	0
20	Triplet	3	165	651	4	0	0	515579	691	0	correct_rejection	NA	0
20	Triplet	4	166	652	0	1	2	516287	692	1	hit	508	0
20	Triplet	5	167	653	6	0	0	516996	691	0	correct_rejection	NA	0
20	Triplet	6	168	654	5	0	0	517704	692	0	correct_rejection	NA	0
20	Triplet	7	169	655	0	1	1	518413	692	0	miss	NA	0
20	Triplet	8	170	656	4	0	0	519122	691	1	false_alarm	51	0
20	Triplet	9	171	657	4	0	0	519830	692	0	correct_rejection	NA	0
20	Triplet	10	172	658	5	0	0	520539	691	0	correct_rejection	NA	0
20	Triplet	11	173	659	0	1	1	521247	692	1	hit	394	0
20	Triplet	12	174	660	6	0	0	521956	691	0	correct_rejection	NA	0
20	Triplet	13	175	661	9	0	0	522664	692	0	correct_rejection	NA	0
20	Triplet	14	176	662	8	0	0	523373	692	0	correct_rejection	NA	0
20	Triplet	15	177	663	7	0	0	524081	692	0	correct_rejection	NA	0
20	Triplet	16	178	664	6	0	0	524790	692	0	correct_rejection	NA	0
20	Triplet	17	179	665	0	1	1	525499	691	1	hit	423	0
20	Triplet	18	180	666	5	0	0	526207	692	0	correct_rejection	NA	0
20	Triplet	19	181	667	4	0	0	526916	691	0	correct_rejection	NA	0
20	Triplet	20	182	668	9	0	0	527624	692	0	correct_rejection	NA	0
20	Triplet	21	183	669	8	0	0	528333	692	0	correct_rejection	NA	0
20	Triplet	22	184	670	7	0	0	529041	692	0	correct_rejection	NA	0
20	Triplet	23	185	671	0	1	2	529750	692	1	hit	424	0
20	Triplet	24	186	672	7	0	0	530459	691	0	correct_rejection	NA	0
20	Triplet	25	187	673	8	0	0	531167	692	0	correct_rejection	NA	0
20	Triplet	26	188	674	9	0	0	531876	691	0	correct_rejection	NA	0
20	Triplet	27	189	675	6	0	0	532584	692	0	correct_rejection	NA	0
20	Triplet	28	190	676	5	0	0	533293	692	0	correct_rejection	NA	0
20	Triplet	29	191	677	0	1	1	534001	692	1	hit	349	0
20	Triplet	30	192	678	4	0	0	534710	692	0	correct_rejection	NA	0
20	Triplet	31	193	679	7	0	0	535419	691	0	correct_rejection	NA	0
20	Triplet	32	194	680	8	0	0	536127	692	0	correct_rejection	NA	0
20	Triplet	33	195	681	9	0	0	536836	691	0	correct_rejection	NA	0
20	Triplet	34	196	682	7	0	0	537544	692	0	correct_rejection	NA	0
20	Triplet	35	197	683	8	0	0	538253	692	0	correct_rejection	NA	0
20	Triplet	36	198	684	9	0	0	538961	692	0	correct_rejection	NA	0
20	Triplet	37	199	685	9	0	0	539670	692	0	correct_rejection	NA	0
20	Triplet	38	200	686	8	0	0	540379	691	0	correct_rejection	NA	0
20	Triplet	39	201	687	7	0	0	541087	692	0	correct_rejection	NA	0
20	Triplet	40	202	688	9	0	0	541796	691	0	correct_rejection	NA	0
20	Triplet	41	203	689	8	0	0	542504	692	0	correct_rejection	NA	0
20	Triplet	42	204	690	0	1	1	543213	692	1	hit	498	0
20	Triplet	43	205	691	7	0	0	543921	692	0	correct_rejection	NA	0
20	Triplet	44	206	692	4	0	0	544630	692	0	correct_rejection	NA	0
20	Triplet	45	207	693	5	0	0	545339	691	0	correct_rejection	NA	0
20	Triplet	46	208	694	6	0	0	546047	692	0	correct_rejection	NA	0
20	Triplet	47	209	695	4	0	0	546756	691	0	correct_rejection	NA	0
20	Triplet	48	210	696	5	0	0	547464	692	0	correct_rejection	NA	0
20	Triplet	49	211	697	6	0	0	548173	691	0	correct_rejection	NA	0
20	Triplet	50	212	698	7	0	0	548881	692	0	correct_rejection	NA	0
20	Triplet	51	213	699	8	0	0	549590	692	0	correct_rejection	NA	0
20	Triplet	52	214	700	9	0	0	550298	692	0	correct_rejection	NA	0
20	Triplet	53	215	701	4	0	0	551007	692	0	correct_rejection	NA	0
20	Triplet	54	216	702	5	0	0	551716	691	0	correct_rejection	NA	0
20	Triplet	55	217	703	6	0	0	552424	692	0	correct_rejection	NA	0
20	Triplet	56	218	704	7	0	0	553133	691	0	correct_rejection	NA	0
20	Triplet	57	219	705	0	1	1	553841	692	1	hit	534	0
20	Triplet	58	220	706	8	0	0	554550	692	0	correct_rejection	NA	0
20	Triplet	59	221	707	9	0	0	555258	692	0	correct_rejection	NA	0
20	Triplet	60	222	708	0	1	2	555967	692	1	hit	563	0
20	Triplet	61	223	709	6	0	0	556676	691	0	correct_rejection	NA	0
20	Triplet	62	224	710	5	0	0	557384	692	0	correct_rejection	NA	0
20	Triplet	63	225	711	4	0	0	558093	691	0	correct_rejection	NA	0
20	Triplet	64	226	712	6	0	0	558801	692	0	correct_rejection	NA	0
20	Triplet	65	227	713	5	0	0	559510	692	0	correct_rejection	NA	0
20	Triplet	66	228	714	4	0	0	560218	692	0	correct_rejection	NA	0
20	Triplet	67	229	715	9	0	0	560927	692	0	correct_rejection	NA	0
20	Triplet	68	230	716	8	0	0	561636	691	0	correct_rejection	NA	0
20	Triplet	69	231	717	7	0	0	562344	692	0	correct_rejection	NA	0
20	Triplet	70	232	718	4	0	0	563053	691	0	correct_rejection	NA	0
20	Triplet	71	233	719	0	1	1	563761	692	1	hit	686	0
20	Triplet	72	234	720	5	0	0	564470	692	0	correct_rejection	NA	0
20	Triplet	73	235	721	6	0	0	565178	692	0	correct_rejection	NA	0
20	Triplet	74	236	722	7	0	0	565887	692	0	correct_rejection	NA	0
20	Triplet	75	237	723	8	0	0	566596	691	0	correct_rejection	NA	0
20	Triplet	76	238	724	9	0	0	567304	692	0	correct_rejection	NA	0
20	Triplet	77	239	725	7	0	0	568013	691	0	correct_rejection	NA	0
20	Triplet	78	240	726	8	0	0	568721	692	0	correct_rejection	NA	0
20	Triplet	79	241	727	9	0	0	569430	692	0	correct_rejection	NA	0
20	Triplet	80	242	728	4	0	0	570138	692	0	correct_rejection	NA	0
20	Triplet	81	243	729	5	0	0	570847	692	0	correct_rejection	NA	0
20	Triplet	82	244	730	6	0	0	571556	691	0	correct_rejection	NA	0
20	Triplet	83	245	731	6	0	0	572264	692	0	correct_rejection	NA	0
20	Triplet	84	246	732	5	0	0	572973	691	0	correct_rejection	NA	0
20	Triplet	85	247	733	4	0	0	573681	692	0	correct_rejection	NA	0
20	Triplet	86	248	734	7	0	0	574390	692	0	correct_rejection	NA	0
20	Triplet	87	249	735	8	0	0	575098	692	0	correct_rejection	NA	0
20	Triplet	88	250	736	9	0	0	575807	692	0	correct_rejection	NA	0
20	Triplet	89	251	737	9	0	0	576516	691	0	correct_rejection	NA	0
20	Triplet	90	252	738	8	0	0	577224	692	0	correct_rejection	NA	0
20	Triplet	91	253	739	7	0	0	577933	691	0	correct_rejection	NA	0
20	Triplet	92	254	740	6	0	0	578641	692	0	correct_rejection	NA	0
20	Triplet	93	255	741	5	0	0	579350	691	0	correct_rejection	NA	0
20	Triplet	94	256	742	4	0	0	580058	692	0	correct_rejection	NA	0
20	Triplet	95	257	743	4	0	0	580767	692	0	correct_rejection	NA	0
20	Triplet	96	258	744	5	0	0	581475	692	0	correct_rejection	NA	0
20	Triplet	97	259	745	6	0	0	582184	692	0	correct_rejection	NA	0
20	Triplet	98	260	746	4	0	0	582893	691	0	correct_rejection	NA	0
20	Triplet	99	261	747	5	0	0	583601	692	0	correct_rejection	NA	0
20	Triplet	100	262	748	6	0	0	584310	691	0	correct_rejection	NA	0
20	Triplet	101	263	749	9	0	0	585018	692	0	correct_rejection	NA	0
20	Triplet	102	264	750	8	0	0	585727	692	0	correct_rejection	NA	0
20	Triplet	103	265	751	7	0	0	586435	692	0	correct_rejection	NA	0
20	Triplet	104	266	752	0	1	2	587144	692	1	hit	548	0
20	Triplet	105	267	753	9	0	0	587853	691	0	correct_rejection	NA	0
20	Triplet	106	268	754	8	0	0	588561	692	0	correct_rejection	NA	0
20	Triplet	107	269	755	7	0	0	589270	691	0	correct_rejection	NA	0
20	Triplet	108	270	756	4	0	0	589978	692	0	correct_rejection	NA	0
20	Triplet	109	271	757	5	0	0	590687	692	0	correct_rejection	NA	0
20	Triplet	110	272	758	6	0	0	591395	692	0	correct_rejection	NA	0
20	Triplet	111	273	759	4	0	0	592104	692	0	correct_rejection	NA	0
20	Triplet	112	274	760	5	0	0	592813	691	0	correct_rejection	NA	0
20	Triplet	113	275	761	6	0	0	593521	692	0	correct_rejection	NA	0
20	Triplet	114	276	762	6	0	0	594230	691	0	correct_rejection	NA	0
20	Triplet	115	277	763	0	1	1	594938	692	1	hit	502	0
20	Triplet	116	278	764	5	0	0	595647	692	0	correct_rejection	NA	0
20	Triplet	117	279	765	4	0	0	596355	692	0	correct_rejection	NA	0
20	Triplet	118	280	766	9	0	0	597064	692	0	correct_rejection	NA	0
20	Triplet	119	281	767	8	0	0	597773	691	0	correct_rejection	NA	0
20	Triplet	120	282	768	0	1	1	598481	692	1	hit	467	0
20	Triplet	121	283	769	7	0	0	599190	691	0	correct_rejection	NA	0
20	Triplet	122	284	770	9	0	0	599898	692	0	correct_rejection	NA	0
20	Triplet	123	285	771	0	1	1	600607	692	1	hit	390	0
20	Triplet	124	286	772	8	0	0	601315	692	0	correct_rejection	NA	0
20	Triplet	125	287	773	7	0	0	602024	692	0	correct_rejection	NA	0
20	Triplet	126	288	774	6	0	0	602733	691	0	correct_rejection	NA	0
20	Triplet	127	289	775	5	0	0	603441	692	0	correct_rejection	NA	0
20	Triplet	128	290	776	4	0	0	604150	691	0	correct_rejection	NA	0
20	Triplet	129	291	777	6	0	0	604858	692	0	correct_rejection	NA	0
20	Triplet	130	292	778	5	0	0	605567	692	0	correct_rejection	NA	0
20	Triplet	131	293	779	4	0	0	606275	692	0	correct_rejection	NA	0
20	Triplet	132	294	780	7	0	0	606984	692	0	correct_rejection	NA	0
20	Triplet	133	295	781	0	1	1	607693	691	1	hit	406	0
20	Triplet	134	296	782	8	0	0	608401	692	0	correct_rejection	NA	0
20	Triplet	135	297	783	9	0	0	609110	691	0	correct_rejection	NA	0
20	Triplet	136	298	784	4	0	0	609818	692	0	correct_rejection	NA	0
20	Triplet	137	299	785	5	0	0	610527	691	0	correct_rejection	NA	0
20	Triplet	138	300	786	6	0	0	611235	692	0	correct_rejection	NA	0
20	Triplet	139	301	787	7	0	0	611944	692	0	correct_rejection	NA	0
20	Triplet	140	302	788	8	0	0	612652	692	0	correct_rejection	NA	0
20	Triplet	141	303	789	0	1	1	613361	692	1	hit	452	0
20	Triplet	142	304	790	9	0	0	614070	691	0	correct_rejection	NA	0
20	Triplet	143	305	791	9	0	0	614778	692	0	correct_rejection	NA	0
20	Triplet	144	306	792	8	0	0	615487	691	0	correct_rejection	NA	0
20	Triplet	145	307	793	7	0	0	616195	692	0	correct_rejection	NA	0
20	Triplet	146	308	794	4	0	0	616904	692	0	correct_rejection	NA	0
20	Triplet	147	309	795	5	0	0	617612	692	0	correct_rejection	NA	0
20	Triplet	148	310	796	6	0	0	618321	692	0	correct_rejection	NA	0
20	Triplet	149	311	797	9	0	0	619030	691	0	correct_rejection	NA	0
20	Triplet	150	312	798	0	1	1	619738	692	1	hit	589	0
20	Triplet	151	313	799	8	0	0	620447	691	0	correct_rejection	NA	0
20	Triplet	152	314	800	7	0	0	621155	692	0	correct_rejection	NA	0
20	Triplet	153	315	801	7	0	0	621864	692	0	correct_rejection	NA	0
20	Triplet	154	316	802	8	0	0	622572	692	0	correct_rejection	NA	0
20	Triplet	155	317	803	9	0	0	623281	692	0	correct_rejection	NA	0
20	Triplet	156	318	804	7	0	0	623990	691	0	correct_rejection	NA	0
20	Triplet	157	319	805	0	1	1	624698	692	1	hit	526	0
20	Triplet	158	320	806	8	0	0	625407	691	0	correct_rejection	NA	0
20	Triplet	159	321	807	9	0	0	626115	692	0	correct_rejection	NA	0
20	Triplet	160	322	808	6	0	0	626824	692	0	correct_rejection	NA	0
20	Triplet	161	323	809	5	0	0	627532	692	0	correct_rejection	NA	0
20	Triplet	162	324	810	4	0	0	628241	692	0	correct_rejection	NA	0
trigger nr 620 at 630222
trigger nr 624 at 705517
20	Single	1	649	811	8	0	0	712886	691	0	correct_rejection	NA	7329
20	Single	2	650	812	9	0	0	713594	692	0	correct_rejection	NA	0
20	Single	3	651	813	8	0	0	714303	692	0	correct_rejection	NA	0
20	Single	4	652	814	5	0	0	715011	692	0	correct_rejection	NA	0
20	Single	5	653	815	4	0	0	715720	692	0	correct_rejection	NA	0
20	Single	6	654	816	4	0	0	716429	691	0	correct_rejection	NA	0
20	Single	7	655	817	9	0	0	717137	692	0	correct_rejection	NA	0
20	Single	8	656	818	9	0	0	717846	691	0	correct_rejection	NA	0
20	Single	9	657	819	4	0	0	718554	692	0	correct_rejection	NA	0
20	Single	10	658	820	7	0	0	719263	692	0	correct_rejection	NA	0
20	Single	11	659	821	4	0	0	719971	692	0	correct_rejection	NA	0
20	Single	12	660	822	5	0	0	720680	692	0	correct_rejection	NA	0
20	Single	13	661	823	7	0	0	721389	691	0	correct_rejection	NA	0
20	Single	14	662	824	6	0	0	722097	692	0	correct_rejection	NA	0
20	Single	15	663	825	8	0	0	722806	691	0	correct_rejection	NA	0
20	Single	16	664	826	7	0	0	723514	692	0	correct_rejection	NA	0
20	Single	17	665	827	5	0	0	724223	691	0	correct_rejection	NA	0
20	Single	18	666	828	5	0	0	724931	692	0	correct_rejection	NA	0
20	Single	19	667	829	9	0	0	725640	692	0	correct_rejection	NA	0
20	Single	20	668	830	5	0	0	726349	691	0	correct_rejection	NA	0
20	Single	21	669	831	0	1	1	727057	692	1	hit	451	0
20	Single	22	670	832	8	0	0	727766	691	0	correct_rejection	NA	0
20	Single	23	671	833	6	0	0	728474	692	0	correct_rejection	NA	0
20	Single	24	672	834	5	0	0	729183	691	0	correct_rejection	NA	0
20	Single	25	673	835	6	0	0	729891	692	0	correct_rejection	NA	0
20	Single	26	674	836	6	0	0	730600	692	0	correct_rejection	NA	0
20	Single	27	675	837	7	0	0	731308	692	0	correct_rejection	NA	0
20	Single	28	676	838	9	0	0	732017	692	0	correct_rejection	NA	0
20	Single	29	677	839	6	0	0	732726	691	0	correct_rejection	NA	0
20	Single	30	678	840	9	0	0	733434	692	0	correct_rejection	NA	0
20	Single	31	679	841	7	0	0	734143	691	0	correct_rejection	NA	0
20	Single	32	680	842	7	0	0	734851	692	0	correct_rejection	NA	0
20	Single	33	681	843	0	1	1	735560	692	1	hit	414	0
20	Single	34	682	844	8	0	0	736268	692	0	correct_rejection	NA	0
20	Single	35	683	845	8	0	0	736977	692	0	correct_rejection	NA	0
20	Single	36	684	846	4	0	0	737686	691	0	correct_rejection	NA	0
20	Single	37	685	847	6	0	0	738394	692	0	correct_rejection	NA	0
20	Single	38	686	848	4	0	0	739103	691	0	correct_rejection	NA	0
20	Single	39	687	849	7	0	0	739811	692	0	correct_rejection	NA	0
20	Single	40	688	850	9	0	0	740520	692	0	correct_rejection	NA	0
20	Single	41	689	851	5	0	0	741228	692	0	correct_rejection	NA	0
20	Single	42	690	852	9	0	0	741937	692	0	correct_rejection	NA	0
20	Single	43	691	853	4	0	0	742646	691	0	correct_rejection	NA	0
20	Single	44	692	854	8	0	0	743354	692	0	correct_rejection	NA	0
20	Single	45	693	855	4	0	0	744063	691	0	correct_rejection	NA	0
20	Single	46	694	856	9	0	0	744771	692	0	correct_rejection	NA	0
20	Single	47	695	857	7	0	0	745480	692	0	correct_rejection	NA	0
20	Single	48	696	858	8	0	0	746188	692	0	correct_rejection	NA	0
20	Single	49	697	859	9	0	0	746897	692	0	correct_rejection	NA	0
20	Single	50	698	860	6	0	0	747606	691	0	correct_rejection	NA	0
20	Single	51	699	861	8	0	0	748314	692	0	correct_rejection	NA	0
20	Single	52	700	862	8	0	0	749023	691	0	correct_rejection	NA	0
20	Single	53	701	863	5	0	0	749731	692	0	correct_rejection	NA	0
20	Single	54	702	864	8	0	0	750440	692	0	correct_rejection	NA	0
20	Single	55	703	865	7	0	0	751148	692	0	correct_rejection	NA	0
20	Single	56	704	866	7	0	0	751857	692	0	correct_rejection	NA	0
20	Single	57	705	867	4	0	0	752566	691	0	correct_rejection	NA	0
20	Single	58	706	868	0	1	1	753274	692	1	hit	632	0
20	Single	59	707	869	4	0	0	753983	691	0	correct_rejection	NA	0
20	Single	60	708	870	6	0	0	754691	692	0	correct_rejection	NA	0
20	Single	61	709	871	5	0	0	755400	691	0	correct_rejection	NA	0
20	Single	62	710	872	4	0	0	756108	692	0	correct_rejection	NA	0
20	Single	63	711	873	7	0	0	756817	692	0	correct_rejection	NA	0
20	Single	64	712	874	6	0	0	757526	691	0	correct_rejection	NA	0
20	Single	65	713	875	6	0	0	758234	692	0	correct_rejection	NA	0
20	Single	66	714	876	9	0	0	758943	691	0	correct_rejection	NA	0
20	Single	67	715	877	0	1	1	759651	692	1	hit	577	0
20	Single	68	716	878	9	0	0	760360	691	0	correct_rejection	NA	0
20	Single	69	717	879	8	0	0	761068	692	0	correct_rejection	NA	0
20	Single	70	718	880	0	1	1	761777	692	1	hit	429	0
20	Single	71	719	881	6	0	0	762485	692	0	correct_rejection	NA	0
20	Single	72	720	882	4	0	0	763194	692	0	correct_rejection	NA	0
20	Single	73	721	883	5	0	0	763903	691	0	correct_rejection	NA	0
20	Single	74	722	884	5	0	0	764611	692	0	correct_rejection	NA	0
20	Single	75	723	885	0	1	1	765320	691	1	hit	360	0
20	Single	76	724	886	6	0	0	766028	692	0	correct_rejection	NA	0
20	Single	77	725	887	7	0	0	766737	692	0	correct_rejection	NA	0
20	Single	78	726	888	0	1	1	767445	692	1	hit	357	0
20	Single	79	727	889	5	0	0	768154	692	0	correct_rejection	NA	0
20	Single	80	728	890	5	0	0	768863	691	0	correct_rejection	NA	0
20	Single	81	729	891	4	0	0	769571	692	0	correct_rejection	NA	0
20	Single	82	730	892	0	1	1	770280	691	1	hit	330	0
20	Single	83	731	893	9	0	0	770988	692	0	correct_rejection	NA	0
20	Single	84	732	894	5	0	0	771697	692	0	correct_rejection	NA	0
20	Single	85	733	895	6	0	0	772405	692	0	correct_rejection	NA	0
20	Single	86	734	896	4	0	0	773114	692	0	correct_rejection	NA	0
20	Single	87	735	897	0	1	1	773823	691	1	hit	451	0
20	Single	88	736	898	7	0	0	774531	692	0	correct_rejection	NA	0
20	Single	89	737	899	9	0	0	775240	691	0	correct_rejection	NA	0
20	Single	90	738	900	8	0	0	775948	692	0	correct_rejection	NA	0
20	Single	91	739	901	8	0	0	776657	692	0	correct_rejection	NA	0
20	Single	92	740	902	7	0	0	777365	692	0	correct_rejection	NA	0
20	Single	93	741	903	8	0	0	778074	692	0	correct_rejection	NA	0
20	Single	94	742	904	0	1	1	778783	691	1	hit	422	0
20	Single	95	743	905	4	0	0	779491	692	0	correct_rejection	NA	0
20	Single	96	744	906	8	0	0	780200	691	0	correct_rejection	NA	0
20	Single	97	745	907	5	0	0	780908	692	0	correct_rejection	NA	0
20	Single	98	746	908	5	0	0	781617	692	0	correct_rejection	NA	0
20	Single	99	747	909	8	0	0	782325	692	0	correct_rejection	NA	0
20	Single	100	748	910	9	0	0	783034	692	0	correct_rejection	NA	0
20	Single	101	749	911	4	0	0	783743	691	0	correct_rejection	NA	0
20	Single	102	750	912	4	0	0	784451	692	0	correct_rejection	NA	0
20	Single	103	751	913	0	1	1	785160	691	1	hit	353	0
20	Single	104	752	914	5	0	0	785868	692	0	correct_rejection	NA	0
20	Single	105	753	915	9	0	0	786577	691	0	correct_rejection	NA	0
20	Single	106	754	916	9	0	0	787285	692	0	correct_rejection	NA	0
20	Single	107	755	917	7	0	0	787994	692	0	correct_rejection	NA	0
20	Single	108	756	918	6	0	0	788702	692	0	correct_rejection	NA	0
20	Single	109	757	919	7	0	0	789411	692	0	correct_rejection	NA	0
20	Single	110	758	920	7	0	0	790120	691	0	correct_rejection	NA	0
20	Single	111	759	921	5	0	0	790828	692	0	correct_rejection	NA	0
20	Single	112	760	922	0	1	1	791537	691	0	miss	NA	0
20	Single	113	761	923	7	0	0	792245	692	0	correct_rejection	NA	0
20	Single	114	762	924	4	0	0	792954	692	0	correct_rejection	NA	0
20	Single	115	763	925	6	0	0	793662	692	0	correct_rejection	NA	0
20	Single	116	764	926	9	0	0	794371	692	0	correct_rejection	NA	0
20	Single	117	765	927	6	0	0	795080	691	0	correct_rejection	NA	0
20	Single	118	766	928	6	0	0	795788	692	0	correct_rejection	NA	0
20	Single	119	767	929	8	0	0	796497	691	0	correct_rejection	NA	0
20	Single	120	768	930	6	0	0	797205	692	0	correct_rejection	NA	0
20	Single	121	769	931	0	1	1	797914	692	1	hit	382	0
20	Single	122	770	932	7	0	0	798622	692	0	correct_rejection	NA	0
20	Single	123	771	933	7	0	0	799331	692	0	correct_rejection	NA	0
20	Single	124	772	934	8	0	0	800040	691	0	correct_rejection	NA	0
20	Single	125	773	935	7	0	0	800748	692	0	correct_rejection	NA	0
20	Single	126	774	936	6	0	0	801457	691	0	correct_rejection	NA	0
20	Single	127	775	937	9	0	0	802165	692	0	correct_rejection	NA	0
20	Single	128	776	938	7	0	0	802874	692	0	correct_rejection	NA	0
20	Single	129	777	939	0	1	1	803582	692	1	hit	424	0
20	Single	130	778	940	4	0	0	804291	692	0	correct_rejection	NA	0
20	Single	131	779	941	9	0	0	805000	691	0	correct_rejection	NA	0
20	Single	132	780	942	6	0	0	805708	692	0	correct_rejection	NA	0
20	Single	133	781	943	5	0	0	806417	691	0	correct_rejection	NA	0
20	Single	134	782	944	6	0	0	807125	692	0	correct_rejection	NA	0
20	Single	135	783	945	0	1	1	807834	692	1	hit	517	0
20	Single	136	784	946	6	0	0	808542	692	0	correct_rejection	NA	0
20	Single	137	785	947	7	0	0	809251	692	0	correct_rejection	NA	0
20	Single	138	786	948	9	0	0	809960	691	0	correct_rejection	NA	0
20	Single	139	787	949	9	0	0	810668	692	0	correct_rejection	NA	0
20	Single	140	788	950	4	0	0	811377	691	0	correct_rejection	NA	0
20	Single	141	789	951	5	0	0	812085	692	0	correct_rejection	NA	0
20	Single	142	790	952	8	0	0	812794	692	0	correct_rejection	NA	0
20	Single	143	791	953	6	0	0	813502	692	0	correct_rejection	NA	0
20	Single	144	792	954	8	0	0	814211	692	0	correct_rejection	NA	0
20	Single	145	793	955	9	0	0	814920	691	0	correct_rejection	NA	0
20	Single	146	794	956	5	0	0	815628	692	0	correct_rejection	NA	0
20	Single	147	795	957	7	0	0	816337	691	0	correct_rejection	NA	0
20	Single	148	796	958	5	0	0	817045	692	0	correct_rejection	NA	0
20	Single	149	797	959	5	0	0	817754	691	0	correct_rejection	NA	0
20	Single	150	798	960	9	0	0	818462	692	0	correct_rejection	NA	0
20	Single	151	799	961	8	0	0	819171	692	0	correct_rejection	NA	0
20	Single	152	800	962	0	1	1	819879	692	1	hit	469	0
20	Single	153	801	963	5	0	0	820588	692	0	correct_rejection	NA	0
20	Single	154	802	964	4	0	0	821297	691	0	correct_rejection	NA	0
20	Single	155	803	965	6	0	0	822005	692	0	correct_rejection	NA	0
20	Single	156	804	966	0	1	1	822714	691	1	hit	404	0
20	Single	157	805	967	4	0	0	823422	692	0	correct_rejection	NA	0
20	Single	158	806	968	4	0	0	824131	692	0	correct_rejection	NA	0
20	Single	159	807	969	8	0	0	824839	692	0	correct_rejection	NA	0
20	Single	160	808	970	0	1	1	825548	692	1	hit	367	0
20	Single	161	809	971	8	0	0	826257	691	0	correct_rejection	NA	0
20	Single	162	810	972	4	0	0	826965	692	0	correct_rejection	NA	0
20	Triplet	1	325	973	6	0	0	835935	692	0	correct_rejection	NA	6379
20	Triplet	2	326	974	5	0	0	836643	692	0	correct_rejection	NA	0
20	Triplet	3	327	975	4	0	0	837352	692	0	correct_rejection	NA	0
20	Triplet	4	328	976	6	0	0	838061	691	0	correct_rejection	NA	0
20	Triplet	5	329	977	5	0	0	838769	692	0	correct_rejection	NA	0
20	Triplet	6	330	978	4	0	0	839478	691	0	correct_rejection	NA	0
20	Triplet	7	331	979	9	0	0	840186	692	0	correct_rejection	NA	0
20	Triplet	8	332	980	8	0	0	840895	691	0	correct_rejection	NA	0
20	Triplet	9	333	981	7	0	0	841603	692	0	correct_rejection	NA	0
20	Triplet	10	334	982	9	0	0	842312	692	0	correct_rejection	NA	0
20	Triplet	11	335	983	8	0	0	843020	692	0	correct_rejection	NA	0
20	Triplet	12	336	984	7	0	0	843729	692	0	correct_rejection	NA	0
20	Triplet	13	337	985	7	0	0	844438	691	0	correct_rejection	NA	0
20	Triplet	14	338	986	0	1	1	845146	692	1	hit	429	0
20	Triplet	15	339	987	8	0	0	845855	691	0	correct_rejection	NA	0
20	Triplet	16	340	988	9	0	0	846563	692	0	correct_rejection	NA	0
20	Triplet	17	341	989	9	0	0	847272	692	0	correct_rejection	NA	0
20	Triplet	18	342	990	8	0	0	847980	692	0	correct_rejection	NA	0
20	Triplet	19	343	991	7	0	0	848689	692	0	correct_rejection	NA	0
20	Triplet	20	344	992	6	0	0	849398	691	0	correct_rejection	NA	0
20	Triplet	21	345	993	5	0	0	850106	692	0	correct_rejection	NA	0
20	Triplet	22	346	994	4	0	0	850815	691	0	correct_rejection	NA	0
20	Triplet	23	347	995	7	0	0	851523	692	0	correct_rejection	NA	0
20	Triplet	24	348	996	8	0	0	852232	692	0	correct_rejection	NA	0
20	Triplet	25	349	997	9	0	0	852940	692	0	correct_rejection	NA	0
20	Triplet	26	350	998	4	0	0	853649	692	0	correct_rejection	NA	0
20	Triplet	27	351	999	5	0	0	854358	691	0	correct_rejection	NA	0
20	Triplet	28	352	1000	6	0	0	855066	692	0	correct_rejection	NA	0
20	Triplet	29	353	1001	6	0	0	855775	691	0	correct_rejection	NA	0
20	Triplet	30	354	1002	0	1	1	856483	692	1	hit	463	0
20	Triplet	31	355	1003	5	0	0	857192	692	0	correct_rejection	NA	0
20	Triplet	32	356	1004	4	0	0	857900	692	0	correct_rejection	NA	0
20	Triplet	33	357	1005	4	0	0	858609	692	0	correct_rejection	NA	0
20	Triplet	34	358	1006	5	0	0	859318	691	0	correct_rejection	NA	0
20	Triplet	35	359	1007	6	0	0	860026	692	0	correct_rejection	NA	0
20	Triplet	36	360	1008	9	0	0	860735	691	0	correct_rejection	NA	0
20	Triplet	37	361	1009	8	0	0	861443	692	0	correct_rejection	NA	0
20	Triplet	38	362	1010	7	0	0	862152	692	0	correct_rejection	NA	0
20	Triplet	39	363	1011	4	0	0	862860	692	0	correct_rejection	NA	0
20	Triplet	40	364	1012	5	0	0	863569	692	0	correct_rejection	NA	0
20	Triplet	41	365	1013	6	0	0	864278	691	0	correct_rejection	NA	0
20	Triplet	42	366	1014	4	0	0	864986	692	0	correct_rejection	NA	0
20	Triplet	43	367	1015	0	1	1	865695	691	1	hit	500	0
20	Triplet	44	368	1016	5	0	0	866403	692	0	correct_rejection	NA	0
20	Triplet	45	369	1017	6	0	0	867112	692	0	correct_rejection	NA	0
20	Triplet	46	370	1018	7	0	0	867820	692	0	correct_rejection	NA	0
20	Triplet	47	371	1019	8	0	0	868529	692	0	correct_rejection	NA	0
20	Triplet	48	372	1020	9	0	0	869238	691	0	correct_rejection	NA	0
20	Triplet	49	373	1021	7	0	0	869946	692	0	correct_rejection	NA	0
20	Triplet	50	374	1022	8	0	0	870655	691	0	correct_rejection	NA	0
20	Triplet	51	375	1023	9	0	0	871363	692	0	correct_rejection	NA	0
20	Triplet	52	376	1024	0	1	2	872072	691	1	hit	485	0
20	Triplet	53	377	1025	6	0	0	872780	692	0	correct_rejection	NA	0
20	Triplet	54	378	1026	5	0	0	873489	692	0	correct_rejection	NA	0
20	Triplet	55	379	1027	4	0	0	874197	692	0	correct_rejection	NA	0
20	Triplet	56	380	1028	0	1	2	874906	692	1	hit	520	0
20	Triplet	57	381	1029	7	0	0	875615	691	0	correct_rejection	NA	0
20	Triplet	58	382	1030	8	0	0	876323	692	0	correct_rejection	NA	0
20	Triplet	59	383	1031	9	0	0	877032	691	0	correct_rejection	NA	0
20	Triplet	60	384	1032	9	0	0	877740	692	0	correct_rejection	NA	0
20	Triplet	61	385	1033	8	0	0	878449	692	0	correct_rejection	NA	0
20	Triplet	62	386	1034	7	0	0	879157	692	0	correct_rejection	NA	0
20	Triplet	63	387	1035	4	0	0	879866	692	0	correct_rejection	NA	0
20	Triplet	64	388	1036	5	0	0	880575	691	0	correct_rejection	NA	0
20	Triplet	65	389	1037	6	0	0	881283	692	0	correct_rejection	NA	0
20	Triplet	66	390	1038	7	0	0	881992	691	0	correct_rejection	NA	0
20	Triplet	67	391	1039	8	0	0	882700	692	0	correct_rejection	NA	0
20	Triplet	68	392	1040	0	1	1	883409	692	1	hit	399	0
20	Triplet	69	393	1041	9	0	0	884117	692	0	correct_rejection	NA	0
20	Triplet	70	394	1042	4	0	0	884826	692	0	correct_rejection	NA	0
20	Triplet	71	395	1043	5	0	0	885535	691	0	correct_rejection	NA	0
20	Triplet	72	396	1044	0	1	1	886243	692	1	hit	446	0
20	Triplet	73	397	1045	6	0	0	886952	691	0	correct_rejection	NA	0
20	Triplet	74	398	1046	4	0	0	887660	692	0	correct_rejection	NA	0
20	Triplet	75	399	1047	0	1	1	888369	692	1	hit	475	0
20	Triplet	76	400	1048	5	0	0	889077	692	0	correct_rejection	NA	0
20	Triplet	77	401	1049	6	0	0	889786	692	0	correct_rejection	NA	0
20	Triplet	78	402	1050	9	0	0	890495	691	0	correct_rejection	NA	0
20	Triplet	79	403	1051	0	1	1	891203	692	1	hit	353	0
20	Triplet	80	404	1052	8	0	0	891912	691	0	correct_rejection	NA	0
20	Triplet	81	405	1053	7	0	0	892620	692	0	correct_rejection	NA	0
20	Triplet	82	406	1054	9	0	0	893329	692	0	correct_rejection	NA	0
20	Triplet	83	407	1055	8	0	0	894037	692	0	correct_rejection	NA	0
20	Triplet	84	408	1056	7	0	0	894746	692	0	correct_rejection	NA	0
20	Triplet	85	409	1057	6	0	0	895455	691	0	correct_rejection	NA	0
20	Triplet	86	410	1058	5	0	0	896163	692	0	correct_rejection	NA	0
20	Triplet	87	411	1059	4	0	0	896872	691	0	correct_rejection	NA	0
20	Triplet	88	412	1060	4	0	0	897580	692	0	correct_rejection	NA	0
20	Triplet	89	413	1061	5	0	0	898289	692	0	correct_rejection	NA	0
20	Triplet	90	414	1062	6	0	0	898997	692	0	correct_rejection	NA	0
20	Triplet	91	415	1063	6	0	0	899706	692	0	correct_rejection	NA	0
20	Triplet	92	416	1064	5	0	0	900415	691	0	correct_rejection	NA	0
20	Triplet	93	417	1065	4	0	0	901123	692	0	correct_rejection	NA	0
20	Triplet	94	418	1066	9	0	0	901832	691	0	correct_rejection	NA	0
20	Triplet	95	419	1067	8	0	0	902540	692	0	correct_rejection	NA	0
20	Triplet	96	420	1068	7	0	0	903249	691	0	correct_rejection	NA	0
20	Triplet	97	421	1069	0	1	2	903957	692	0	miss	NA	0
20	Triplet	98	422	1070	7	0	0	904666	692	1	false_alarm	10	0
20	Triplet	99	423	1071	8	0	0	905374	692	0	correct_rejection	NA	0
20	Triplet	100	424	1072	9	0	0	906083	692	0	correct_rejection	NA	0
20	Triplet	101	425	1073	7	0	0	906792	691	0	correct_rejection	NA	0
20	Triplet	102	426	1074	8	0	0	907500	692	0	correct_rejection	NA	0
20	Triplet	103	427	1075	9	0	0	908209	691	0	correct_rejection	NA	0
20	Triplet	104	428	1076	6	0	0	908917	692	0	correct_rejection	NA	0
20	Triplet	105	429	1077	5	0	0	909626	692	0	correct_rejection	NA	0
20	Triplet	106	430	1078	4	0	0	910334	692	0	correct_rejection	NA	0
20	Triplet	107	431	1079	0	1	2	911043	692	1	hit	451	0
20	Triplet	108	432	1080	6	0	0	911752	691	0	correct_rejection	NA	0
20	Triplet	109	433	1081	5	0	0	912460	692	0	correct_rejection	NA	0
20	Triplet	110	434	1082	0	1	1	913169	691	1	hit	453	0
20	Triplet	111	435	1083	4	0	0	913877	692	0	correct_rejection	NA	0
20	Triplet	112	436	1084	9	0	0	914586	692	0	correct_rejection	NA	0
20	Triplet	113	437	1085	8	0	0	915294	692	0	correct_rejection	NA	0
20	Triplet	114	438	1086	7	0	0	916003	692	0	correct_rejection	NA	0
20	Triplet	115	439	1087	4	0	0	916712	691	0	correct_rejection	NA	0
20	Triplet	116	440	1088	5	0	0	917420	692	0	correct_rejection	NA	0
20	Triplet	117	441	1089	6	0	0	918129	691	0	correct_rejection	NA	0
20	Triplet	118	442	1090	9	0	0	918837	692	0	correct_rejection	NA	0
20	Triplet	119	443	1091	8	0	0	919546	692	0	correct_rejection	NA	0
20	Triplet	120	444	1092	7	0	0	920254	692	0	correct_rejection	NA	0
20	Triplet	121	445	1093	7	0	0	920963	692	0	correct_rejection	NA	0
20	Triplet	122	446	1094	8	0	0	921672	691	0	correct_rejection	NA	0
20	Triplet	123	447	1095	9	0	0	922380	692	0	correct_rejection	NA	0
20	Triplet	124	448	1096	6	0	0	923089	691	0	correct_rejection	NA	0
20	Triplet	125	449	1097	5	0	0	923797	692	0	correct_rejection	NA	0
20	Triplet	126	450	1098	4	0	0	924506	692	0	correct_rejection	NA	0
20	Triplet	127	451	1099	4	0	0	925214	692	0	correct_rejection	NA	0
20	Triplet	128	452	1100	0	1	1	925923	692	1	hit	542	0
20	Triplet	129	453	1101	5	0	0	926632	691	0	correct_rejection	NA	0
20	Triplet	130	454	1102	6	0	0	927340	692	0	correct_rejection	NA	0
20	Triplet	131	455	1103	0	1	2	928049	691	1	hit	501	0
20	Triplet	132	456	1104	4	0	0	928757	692	0	correct_rejection	NA	0
20	Triplet	133	457	1105	5	0	0	929466	691	0	correct_rejection	NA	0
20	Triplet	134	458	1106	6	0	0	930174	692	0	correct_rejection	NA	0
20	Triplet	135	459	1107	6	0	0	930883	692	0	correct_rejection	NA	0
20	Triplet	136	460	1108	5	0	0	931592	691	0	correct_rejection	NA	0
20	Triplet	137	461	1109	4	0	0	932300	692	0	correct_rejection	NA	0
20	Triplet	138	462	1110	6	0	0	933009	691	0	correct_rejection	NA	0
20	Triplet	139	463	1111	5	0	0	933717	692	0	correct_rejection	NA	0
20	Triplet	140	464	1112	0	1	1	934426	691	1	hit	449	0
20	Triplet	141	465	1113	4	0	0	935134	692	0	correct_rejection	NA	0
20	Triplet	142	466	1114	7	0	0	935843	692	0	correct_rejection	NA	0
20	Triplet	143	467	1115	8	0	0	936551	692	0	correct_rejection	NA	0
20	Triplet	144	468	1116	9	0	0	937260	692	0	correct_rejection	NA	0
20	Triplet	145	469	1117	7	0	0	937969	691	0	correct_rejection	NA	0
20	Triplet	146	470	1118	8	0	0	938677	692	0	correct_rejection	NA	0
20	Triplet	147	471	1119	9	0	0	939386	691	0	correct_rejection	NA	0
20	Triplet	148	472	1120	4	0	0	940094	692	0	correct_rejection	NA	0
20	Triplet	149	473	1121	5	0	0	940803	692	0	correct_rejection	NA	0
20	Triplet	150	474	1122	6	0	0	941511	692	0	correct_rejection	NA	0
20	Triplet	151	475	1123	0	1	2	942220	692	1	hit	431	0
20	Triplet	152	476	1124	7	0	0	942929	691	0	correct_rejection	NA	0
20	Triplet	153	477	1125	8	0	0	943637	692	0	correct_rejection	NA	0
20	Triplet	154	478	1126	0	1	1	944346	691	1	hit	472	0
20	Triplet	155	479	1127	9	0	0	945054	692	0	correct_rejection	NA	0
20	Triplet	156	480	1128	9	0	0	945763	692	0	correct_rejection	NA	0
20	Triplet	157	481	1129	8	0	0	946471	692	0	correct_rejection	NA	0
20	Triplet	158	482	1130	7	0	0	947180	692	0	correct_rejection	NA	0
20	Triplet	159	483	1131	9	0	0	947889	691	0	correct_rejection	NA	0
20	Triplet	160	484	1132	0	1	1	948597	692	1	hit	407	0
20	Triplet	161	485	1133	8	0	0	949306	691	0	correct_rejection	NA	0
20	Triplet	162	486	1134	7	0	0	950014	692	0	correct_rejection	NA	0
20	Nonet	1	163	1135	4	0	0	960209	692	0	correct_rejection	NA	7658
20	Nonet	2	164	1136	5	0	0	960918	692	0	correct_rejection	NA	0
20	Nonet	3	165	1137	6	0	0	961626	692	0	correct_rejection	NA	0
20	Nonet	4	166	1138	4	0	0	962335	692	0	correct_rejection	NA	0
20	Nonet	5	167	1139	5	0	0	963044	691	0	correct_rejection	NA	0
20	Nonet	6	168	1140	6	0	0	963752	692	0	correct_rejection	NA	0
20	Nonet	7	169	1141	4	0	0	964461	691	0	correct_rejection	NA	0
20	Nonet	8	170	1142	5	0	0	965169	692	0	correct_rejection	NA	0
20	Nonet	9	171	1143	0	1	1	965878	692	1	hit	494	0
20	Nonet	10	172	1144	6	0	0	966586	692	0	correct_rejection	NA	0
20	Nonet	11	173	1145	4	0	0	967295	692	0	correct_rejection	NA	0
20	Nonet	12	174	1146	5	0	0	968004	691	0	correct_rejection	NA	0
20	Nonet	13	175	1147	6	0	0	968712	692	0	correct_rejection	NA	0
20	Nonet	14	176	1148	4	0	0	969421	691	0	correct_rejection	NA	0
20	Nonet	15	177	1149	5	0	0	970129	692	0	correct_rejection	NA	0
20	Nonet	16	178	1150	6	0	0	970838	692	0	correct_rejection	NA	0
20	Nonet	17	179	1151	4	0	0	971546	692	0	correct_rejection	NA	0
20	Nonet	18	180	1152	5	0	0	972255	692	0	correct_rejection	NA	0
20	Nonet	19	181	1153	6	0	0	972964	691	0	correct_rejection	NA	0
20	Nonet	20	182	1154	7	0	0	973672	692	0	correct_rejection	NA	0
20	Nonet	21	183	1155	8	0	0	974381	691	0	correct_rejection	NA	0
20	Nonet	22	184	1156	9	0	0	975089	692	0	correct_rejection	NA	0
20	Nonet	23	185	1157	7	0	0	975798	692	0	correct_rejection	NA	0
20	Nonet	24	186	1158	8	0	0	976506	692	0	correct_rejection	NA	0
20	Nonet	25	187	1159	9	0	0	977215	692	0	correct_rejection	NA	0
20	Nonet	26	188	1160	7	0	0	977924	691	0	correct_rejection	NA	0
20	Nonet	27	189	1161	0	1	1	978632	692	1	hit	530	0
20	Nonet	28	190	1162	8	0	0	979341	691	0	correct_rejection	NA	0
20	Nonet	29	191	1163	9	0	0	980049	692	0	correct_rejection	NA	0
20	Nonet	30	192	1164	0	1	3	980758	691	1	hit	438	0
20	Nonet	31	193	1165	7	0	0	981466	692	0	correct_rejection	NA	0
20	Nonet	32	194	1166	8	0	0	982175	692	0	correct_rejection	NA	0
20	Nonet	33	195	1167	9	0	0	982884	691	0	correct_rejection	NA	0
20	Nonet	34	196	1168	7	0	0	983592	692	0	correct_rejection	NA	0
20	Nonet	35	197	1169	0	1	1	984301	691	1	hit	419	0
20	Nonet	36	198	1170	8	0	0	985009	692	0	correct_rejection	NA	0
20	Nonet	37	199	1171	9	0	0	985718	691	0	correct_rejection	NA	0
20	Nonet	38	200	1172	7	0	0	986426	692	0	correct_rejection	NA	0
20	Nonet	39	201	1173	8	0	0	987135	692	0	correct_rejection	NA	0
20	Nonet	40	202	1174	9	0	0	987843	692	0	correct_rejection	NA	0
20	Nonet	41	203	1175	6	0	0	988552	692	0	correct_rejection	NA	0
20	Nonet	42	204	1176	5	0	0	989261	691	0	correct_rejection	NA	0
20	Nonet	43	205	1177	4	0	0	989969	692	0	correct_rejection	NA	0
20	Nonet	44	206	1178	6	0	0	990678	691	0	correct_rejection	NA	0
20	Nonet	45	207	1179	5	0	0	991386	692	0	correct_rejection	NA	0
20	Nonet	46	208	1180	4	0	0	992095	692	0	correct_rejection	NA	0
20	Nonet	47	209	1181	6	0	0	992803	692	0	correct_rejection	NA	0
20	Nonet	48	210	1182	5	0	0	993512	692	0	correct_rejection	NA	0
20	Nonet	49	211	1183	0	1	1	994221	691	0	miss	NA	0
20	Nonet	50	212	1184	4	0	0	994929	692	1	false_alarm	34	0
20	Nonet	51	213	1185	6	0	0	995638	691	0	correct_rejection	NA	0
20	Nonet	52	214	1186	5	0	0	996346	692	0	correct_rejection	NA	0
20	Nonet	53	215	1187	4	0	0	997055	692	0	correct_rejection	NA	0
20	Nonet	54	216	1188	6	0	0	997763	692	0	correct_rejection	NA	0
20	Nonet	55	217	1189	0	1	1	998472	692	1	hit	484	0
20	Nonet	56	218	1190	5	0	0	999181	691	0	correct_rejection	NA	0
20	Nonet	57	219	1191	4	0	0	999889	692	0	correct_rejection	NA	0
20	Nonet	58	220	1192	6	0	0	1000598	691	0	correct_rejection	NA	0
20	Nonet	59	221	1193	5	0	0	1001306	692	0	correct_rejection	NA	0
20	Nonet	60	222	1194	4	0	0	1002015	692	0	correct_rejection	NA	0
20	Nonet	61	223	1195	4	0	0	1002723	692	0	correct_rejection	NA	0
20	Nonet	62	224	1196	0	1	1	1003432	692	1	hit	473	0
20	Nonet	63	225	1197	5	0	0	1004141	691	0	correct_rejection	NA	0
20	Nonet	64	226	1198	6	0	0	1004849	692	0	correct_rejection	NA	0
20	Nonet	65	227	1199	4	0	0	1005558	691	0	correct_rejection	NA	0
20	Nonet	66	228	1200	5	0	0	1006266	692	0	correct_rejection	NA	0
20	Nonet	67	229	1201	6	0	0	1006975	692	0	correct_rejection	NA	0
20	Nonet	68	230	1202	4	0	0	1007683	692	0	correct_rejection	NA	0
20	Nonet	69	231	1203	5	0	0	1008392	692	0	correct_rejection	NA	0
20	Nonet	70	232	1204	6	0	0	1009101	691	0	correct_rejection	NA	0
20	Nonet	71	233	1205	6	0	0	1009809	692	0	correct_rejection	NA	0
20	Nonet	72	234	1206	5	0	0	1010518	691	0	correct_rejection	NA	0
20	Nonet	73	235	1207	4	0	0	1011226	692	0	correct_rejection	NA	0
20	Nonet	74	236	1208	6	0	0	1011935	691	0	correct_rejection	NA	0
20	Nonet	75	237	1209	0	1	1	1012643	692	1	hit	427	0
20	Nonet	76	238	1210	5	0	0	1013352	692	0	correct_rejection	NA	0
20	Nonet	77	239	1211	4	0	0	1014061	691	0	correct_rejection	NA	0
20	Nonet	78	240	1212	0	1	2	1014769	692	1	hit	569	0
20	Nonet	79	241	1213	6	0	0	1015478	691	0	correct_rejection	NA	0
20	Nonet	80	242	1214	5	0	0	1016186	692	0	correct_rejection	NA	0
20	Nonet	81	243	1215	4	0	0	1016895	691	0	correct_rejection	NA	0
20	Nonet	82	244	1216	9	0	0	1017603	692	0	correct_rejection	NA	0
20	Nonet	83	245	1217	0	1	1	1018312	692	1	hit	578	0
20	Nonet	84	246	1218	8	0	0	1019020	692	0	correct_rejection	NA	0
20	Nonet	85	247	1219	7	0	0	1019729	692	0	correct_rejection	NA	0
20	Nonet	86	248	1220	9	0	0	1020438	691	0	correct_rejection	NA	0
20	Nonet	87	249	1221	8	0	0	1021146	692	0	correct_rejection	NA	0
20	Nonet	88	250	1222	7	0	0	1021855	691	0	correct_rejection	NA	0
20	Nonet	89	251	1223	9	0	0	1022563	692	0	correct_rejection	NA	0
20	Nonet	90	252	1224	8	0	0	1023272	692	0	correct_rejection	NA	0
20	Nonet	91	253	1225	7	0	0	1023980	692	0	correct_rejection	NA	0
20	Nonet	92	254	1226	4	0	0	1024689	692	0	correct_rejection	NA	0
20	Nonet	93	255	1227	5	0	0	1025398	691	0	correct_rejection	NA	0
20	Nonet	94	256	1228	6	0	0	1026106	692	0	correct_rejection	NA	0
20	Nonet	95	257	1229	0	1	2	1026815	691	1	hit	449	0
20	Nonet	96	258	1230	4	0	0	1027523	692	0	correct_rejection	NA	0
20	Nonet	97	259	1231	5	0	0	1028232	692	0	correct_rejection	NA	0
20	Nonet	98	260	1232	6	0	0	1028940	692	0	correct_rejection	NA	0
20	Nonet	99	261	1233	4	0	0	1029649	692	0	correct_rejection	NA	0
20	Nonet	100	262	1234	0	1	1	1030358	691	1	hit	489	0
20	Nonet	101	263	1235	5	0	0	1031066	692	0	correct_rejection	NA	0
20	Nonet	102	264	1236	6	0	0	1031775	691	0	correct_rejection	NA	0
20	Nonet	103	265	1237	9	0	0	1032483	692	0	correct_rejection	NA	0
20	Nonet	104	266	1238	0	1	1	1033192	692	1	hit	499	0
20	Nonet	105	267	1239	8	0	0	1033900	692	0	correct_rejection	NA	0
20	Nonet	106	268	1240	7	0	0	1034609	692	0	correct_rejection	NA	0
20	Nonet	107	269	1241	9	0	0	1035318	691	0	correct_rejection	NA	0
20	Nonet	108	270	1242	0	1	1	1036026	692	1	hit	370	0
20	Nonet	109	271	1243	8	0	0	1036735	691	0	correct_rejection	NA	0
20	Nonet	110	272	1244	7	0	0	1037443	692	0	correct_rejection	NA	0
20	Nonet	111	273	1245	9	0	0	1038152	692	0	correct_rejection	NA	0
20	Nonet	112	274	1246	8	0	0	1038860	692	0	correct_rejection	NA	0
20	Nonet	113	275	1247	7	0	0	1039569	692	0	correct_rejection	NA	0
20	Nonet	114	276	1248	0	1	3	1040278	691	1	hit	348	0
20	Nonet	115	277	1249	7	0	0	1040986	692	0	correct_rejection	NA	0
20	Nonet	116	278	1250	8	0	0	1041695	691	0	correct_rejection	NA	0
20	Nonet	117	279	1251	9	0	0	1042403	692	0	correct_rejection	NA	0
20	Nonet	118	280	1252	7	0	0	1043112	691	0	correct_rejection	NA	0
20	Nonet	119	281	1253	8	0	0	1043820	692	0	correct_rejection	NA	0
20	Nonet	120	282	1254	9	0	0	1044529	692	0	correct_rejection	NA	0
20	Nonet	121	283	1255	7	0	0	1045238	691	0	correct_rejection	NA	0
20	Nonet	122	284	1256	8	0	0	1045946	692	0	correct_rejection	NA	0
20	Nonet	123	285	1257	9	0	0	1046655	691	0	correct_rejection	NA	0
20	Nonet	124	286	1258	9	0	0	1047363	692	0	correct_rejection	NA	0
20	Nonet	125	287	1259	8	0	0	1048072	691	0	correct_rejection	NA	0
20	Nonet	126	288	1260	7	0	0	1048780	692	0	correct_rejection	NA	0
20	Nonet	127	289	1261	9	0	0	1049489	692	0	correct_rejection	NA	0
20	Nonet	128	290	1262	8	0	0	1050197	692	0	correct_rejection	NA	0
20	Nonet	129	291	1263	7	0	0	1050906	692	0	correct_rejection	NA	0
20	Nonet	130	292	1264	9	0	0	1051615	691	0	correct_rejection	NA	0
20	Nonet	131	293	1265	8	0	0	1052323	692	0	correct_rejection	NA	0
20	Nonet	132	294	1266	7	0	0	1053032	691	0	correct_rejection	NA	0
20	Nonet	133	295	1267	0	1	3	1053740	692	1	hit	646	0
20	Nonet	134	296	1268	9	0	0	1054449	692	0	correct_rejection	NA	0
20	Nonet	135	297	1269	8	0	0	1055157	692	0	correct_rejection	NA	0
20	Nonet	136	298	1270	7	0	0	1055866	692	0	correct_rejection	NA	0
20	Nonet	137	299	1271	9	0	0	1056575	691	0	correct_rejection	NA	0
20	Nonet	138	300	1272	8	0	0	1057283	692	0	correct_rejection	NA	0
20	Nonet	139	301	1273	7	0	0	1057992	691	0	correct_rejection	NA	0
20	Nonet	140	302	1274	9	0	0	1058700	692	0	correct_rejection	NA	0
20	Nonet	141	303	1275	8	0	0	1059409	692	0	correct_rejection	NA	0
20	Nonet	142	304	1276	7	0	0	1060117	692	0	correct_rejection	NA	0
20	Nonet	143	305	1277	6	0	0	1060826	692	0	correct_rejection	NA	0
20	Nonet	144	306	1278	5	0	0	1061535	691	0	correct_rejection	NA	0
20	Nonet	145	307	1279	4	0	0	1062243	692	0	correct_rejection	NA	0
20	Nonet	146	308	1280	0	1	2	1062952	691	1	hit	390	0
20	Nonet	147	309	1281	6	0	0	1063660	692	0	correct_rejection	NA	0
20	Nonet	148	310	1282	5	0	0	1064369	692	0	correct_rejection	NA	0
20	Nonet	149	311	1283	4	0	0	1065077	692	0	correct_rejection	NA	0
20	Nonet	150	312	1284	6	0	0	1065786	692	0	correct_rejection	NA	0
20	Nonet	151	313	1285	5	0	0	1066495	691	0	correct_rejection	NA	0
20	Nonet	152	314	1286	4	0	0	1067203	692	0	correct_rejection	NA	0
20	Nonet	153	315	1287	7	0	0	1067912	691	0	correct_rejection	NA	0
20	Nonet	154	316	1288	8	0	0	1068620	692	0	correct_rejection	NA	0
20	Nonet	155	317	1289	0	1	1	1069329	692	1	hit	578	0
20	Nonet	156	318	1290	9	0	0	1070037	692	0	correct_rejection	NA	0
20	Nonet	157	319	1291	7	0	0	1070746	692	0	correct_rejection	NA	0
20	Nonet	158	320	1292	8	0	0	1071455	691	0	correct_rejection	NA	0
20	Nonet	159	321	1293	9	0	0	1072163	692	0	correct_rejection	NA	0
20	Nonet	160	322	1294	7	0	0	1072872	691	0	correct_rejection	NA	0
20	Nonet	161	323	1295	8	0	0	1073580	692	0	correct_rejection	NA	0
20	Nonet	162	324	1296	9	0	0	1074289	691	0	correct_rejection	NA	0
20	Correct	1	325	1297	4	0	0	1084342	692	0	correct_rejection	NA	7799
20	Correct	2	326	1298	5	0	0	1085051	691	0	correct_rejection	NA	0
20	Correct	3	327	1299	6	0	0	1085759	692	0	correct_rejection	NA	0
20	Correct	4	328	1300	4	0	0	1086468	692	0	correct_rejection	NA	0
20	Correct	5	329	1301	5	0	0	1087176	692	0	correct_rejection	NA	0
20	Correct	6	330	1302	6	0	0	1087885	692	0	correct_rejection	NA	0
20	Correct	7	331	1303	4	0	0	1088594	691	0	correct_rejection	NA	0
20	Correct	8	332	1304	5	0	0	1089302	692	0	correct_rejection	NA	0
20	Correct	9	333	1305	6	0	0	1090011	691	0	correct_rejection	NA	0
20	Correct	10	334	1306	0	1	3	1090719	692	1	hit	474	0
20	Correct	11	335	1307	6	0	0	1091428	692	0	correct_rejection	NA	0
20	Correct	12	336	1308	5	0	0	1092136	692	0	correct_rejection	NA	0
20	Correct	13	337	1309	4	0	0	1092845	692	0	correct_rejection	NA	0
20	Correct	14	338	1310	6	0	0	1093554	691	0	correct_rejection	NA	0
20	Correct	15	339	1311	5	0	0	1094262	692	0	correct_rejection	NA	0
20	Correct	16	340	1312	4	0	0	1094971	691	0	correct_rejection	NA	0
20	Correct	17	341	1313	6	0	0	1095679	692	0	correct_rejection	NA	0
20	Correct	18	342	1314	0	1	1	1096388	691	1	hit	558	0
20	Correct	19	343	1315	5	0	0	1097096	692	0	correct_rejection	NA	0
20	Correct	20	344	1316	4	0	0	1097805	692	0	correct_rejection	NA	0
20	Correct	21	345	1317	9	0	0	1098513	692	0	correct_rejection	NA	0
20	Correct	22	346	1318	8	0	0	1099222	692	0	correct_rejection	NA	0
20	Correct	23	347	1319	7	0	0	1099931	691	0	correct_rejection	NA	0
20	Correct	24	348	1320	0	1	2	1100639	692	1	hit	574	0
20	Correct	25	349	1321	9	0	0	1101348	691	0	correct_rejection	NA	0
20	Correct	26	350	1322	8	0	0	1102056	692	0	correct_rejection	NA	0
20	Correct	27	351	1323	7	0	0	1102765	692	0	correct_rejection	NA	0
20	Correct	28	352	1324	9	0	0	1103473	692	0	correct_rejection	NA	0
20	Correct	29	353	1325	8	0	0	1104182	692	0	correct_rejection	NA	0
20	Correct	30	354	1326	7	0	0	1104891	691	0	correct_rejection	NA	0
20	Correct	31	355	1327	7	0	0	1105599	692	0	correct_rejection	NA	0
20	Correct	32	356	1328	8	0	0	1106308	691	0	correct_rejection	NA	0
20	Correct	33	357	1329	9	0	0	1107016	692	0	correct_rejection	NA	0
20	Correct	34	358	1330	7	0	0	1107725	692	0	correct_rejection	NA	0
20	Correct	35	359	1331	8	0	0	1108433	692	0	correct_rejection	NA	0
20	Correct	36	360	1332	9	0	0	1109142	692	0	correct_rejection	NA	0
20	Correct	37	361	1333	7	0	0	1109851	691	0	correct_rejection	NA	0
20	Correct	38	362	1334	0	1	1	1110559	692	1	hit	422	0
20	Correct	39	363	1335	8	0	0	1111268	691	0	correct_rejection	NA	0
20	Correct	40	364	1336	9	0	0	1111976	692	0	correct_rejection	NA	0
20	Correct	41	365	1337	4	0	0	1112685	692	0	correct_rejection	NA	0
20	Correct	42	366	1338	5	0	0	1113393	692	0	correct_rejection	NA	0
20	Correct	43	367	1339	6	0	0	1114102	692	0	correct_rejection	NA	0
20	Correct	44	368	1340	4	0	0	1114811	691	0	correct_rejection	NA	0
20	Correct	45	369	1341	5	0	0	1115519	692	0	correct_rejection	NA	0
20	Correct	46	370	1342	6	0	0	1116228	691	0	correct_rejection	NA	0
20	Correct	47	371	1343	4	0	0	1116936	692	0	correct_rejection	NA	0
20	Correct	48	372	1344	0	1	1	1117645	692	1	hit	438	0
20	Correct	49	373	1345	5	0	0	1118353	692	0	correct_rejection	NA	0
20	Correct	50	374	1346	6	0	0	1119062	692	0	correct_rejection	NA	0
20	Correct	51	375	1347	6	0	0	1119771	691	0	correct_rejection	NA	0
20	Correct	52	376	1348	5	0	0	1120479	692	0	correct_rejection	NA	0
20	Correct	53	377	1349	4	0	0	1121188	691	0	correct_rejection	NA	0
20	Correct	54	378	1350	6	0	0	1121896	692	0	correct_rejection	NA	0
20	Correct	55	379	1351	5	0	0	1122605	692	0	correct_rejection	NA	0
20	Correct	56	380	1352	4	0	0	1123313	692	0	correct_rejection	NA	0
20	Correct	57	381	1353	6	0	0	1124022	692	0	correct_rejection	NA	0
20	Correct	58	382	1354	5	0	0	1124731	691	0	correct_rejection	NA	0
20	Correct	59	383	1355	4	0	0	1125439	692	0	correct_rejection	NA	0
20	Correct	60	384	1356	9	0	0	1126148	691	0	correct_rejection	NA	0
20	Correct	61	385	1357	8	0	0	1126856	692	0	correct_rejection	NA	0
20	Correct	62	386	1358	7	0	0	1127565	691	0	correct_rejection	NA	0
20	Correct	63	387	1359	9	0	0	1128273	692	0	correct_rejection	NA	0
20	Correct	64	388	1360	8	0	0	1128982	692	0	correct_rejection	NA	0
20	Correct	65	389	1361	0	1	1	1129690	692	1	hit	413	0
20	Correct	66	390	1362	7	0	0	1130399	692	0	correct_rejection	NA	0
20	Correct	67	391	1363	9	0	0	1131108	691	0	correct_rejection	NA	0
20	Correct	68	392	1364	8	0	0	1131816	692	0	correct_rejection	NA	0
20	Correct	69	393	1365	7	0	0	1132525	691	0	correct_rejection	NA	0
20	Correct	70	394	1366	7	0	0	1133233	692	0	correct_rejection	NA	0
20	Correct	71	395	1367	8	0	0	1133942	692	0	correct_rejection	NA	0
20	Correct	72	396	1368	9	0	0	1134650	692	0	correct_rejection	NA	0
20	Correct	73	397	1369	0	1	2	1135359	692	1	hit	500	0
20	Correct	74	398	1370	7	0	0	1136068	691	0	correct_rejection	NA	0
20	Correct	75	399	1371	8	0	0	1136776	692	0	correct_rejection	NA	0
20	Correct	76	400	1372	0	1	1	1137485	691	1	hit	358	0
20	Correct	77	401	1373	9	0	0	1138193	692	0	correct_rejection	NA	0
20	Correct	78	402	1374	7	0	0	1138902	692	0	correct_rejection	NA	0
20	Correct	79	403	1375	8	0	0	1139610	692	0	correct_rejection	NA	0
20	Correct	80	404	1376	0	1	1	1140319	692	1	hit	409	0
20	Correct	81	405	1377	9	0	0	1141028	691	0	correct_rejection	NA	0
20	Correct	82	406	1378	4	0	0	1141736	692	0	correct_rejection	NA	0
20	Correct	83	407	1379	5	0	0	1142445	691	0	correct_rejection	NA	0
20	Correct	84	408	1380	0	1	1	1143153	692	1	hit	416	0
20	Correct	85	409	1381	6	0	0	1143862	692	0	correct_rejection	NA	0
20	Correct	86	410	1382	4	0	0	1144570	692	0	correct_rejection	NA	0
20	Correct	87	411	1383	5	0	0	1145279	692	0	correct_rejection	NA	0
20	Correct	88	412	1384	6	0	0	1145988	691	0	correct_rejection	NA	0
20	Correct	89	413	1385	4	0	0	1146696	692	0	correct_rejection	NA	0
20	Correct	90	414	1386	5	0	0	1147405	691	0	correct_rejection	NA	0
20	Correct	91	415	1387	6	0	0	1148113	692	0	correct_rejection	NA	0
20	Correct	92	416	1388	6	0	0	1148822	692	0	correct_rejection	NA	0
20	Correct	93	417	1389	5	0	0	1149530	692	0	correct_rejection	NA	0
20	Correct	94	418	1390	4	0	0	1150239	692	0	correct_rejection	NA	0
20	Correct	95	419	1391	6	0	0	1150948	691	0	correct_rejection	NA	0
20	Correct	96	420	1392	5	0	0	1151656	692	0	correct_rejection	NA	0
20	Correct	97	421	1393	4	0	0	1152365	691	0	correct_rejection	NA	0
20	Correct	98	422	1394	6	0	0	1153073	692	0	correct_rejection	NA	0
20	Correct	99	423	1395	5	0	0	1153782	691	0	correct_rejection	NA	0
20	Correct	100	424	1396	4	0	0	1154490	692	0	correct_rejection	NA	0
20	Correct	101	425	1397	9	0	0	1155199	692	0	correct_rejection	NA	0
20	Correct	102	426	1398	8	0	0	1155908	691	0	correct_rejection	NA	0
20	Correct	103	427	1399	7	0	0	1156616	692	0	correct_rejection	NA	0
20	Correct	104	428	1400	0	1	2	1157325	691	1	hit	477	0
20	Correct	105	429	1401	9	0	0	1158033	692	0	correct_rejection	NA	0
20	Correct	106	430	1402	8	0	0	1158742	691	0	correct_rejection	NA	0
20	Correct	107	431	1403	7	0	0	1159450	692	0	correct_rejection	NA	0
20	Correct	108	432	1404	9	0	0	1160159	692	0	correct_rejection	NA	0
20	Correct	109	433	1405	8	0	0	1160867	692	0	correct_rejection	NA	0
20	Correct	110	434	1406	7	0	0	1161576	692	0	correct_rejection	NA	0
20	Correct	111	435	1407	0	1	3	1162285	691	1	hit	468	0
20	Correct	112	436	1408	7	0	0	1162993	692	0	correct_rejection	NA	0
20	Correct	113	437	1409	8	0	0	1163702	691	0	correct_rejection	NA	0
20	Correct	114	438	1410	9	0	0	1164410	692	0	correct_rejection	NA	0
20	Correct	115	439	1411	7	0	0	1165119	692	0	correct_rejection	NA	0
20	Correct	116	440	1412	0	1	1	1165827	692	1	hit	503	0
20	Correct	117	441	1413	8	0	0	1166536	692	0	correct_rejection	NA	0
20	Correct	118	442	1414	9	0	0	1167245	691	0	correct_rejection	NA	0
20	Correct	119	443	1415	7	0	0	1167953	692	0	correct_rejection	NA	0
20	Correct	120	444	1416	0	1	1	1168662	691	1	hit	491	0
20	Correct	121	445	1417	8	0	0	1169370	692	0	correct_rejection	NA	0
20	Correct	122	446	1418	9	0	0	1170079	692	0	correct_rejection	NA	0
20	Correct	123	447	1419	4	0	0	1170787	692	0	correct_rejection	NA	0
20	Correct	124	448	1420	5	0	0	1171496	692	0	correct_rejection	NA	0
20	Correct	125	449	1421	6	0	0	1172205	691	0	correct_rejection	NA	0
20	Correct	126	450	1422	4	0	0	1172913	692	0	correct_rejection	NA	0
20	Correct	127	451	1423	0	1	1	1173622	691	1	hit	438	0
20	Correct	128	452	1424	5	0	0	1174330	692	0	correct_rejection	NA	0
20	Correct	129	453	1425	6	0	0	1175039	692	0	correct_rejection	NA	0
20	Correct	130	454	1426	4	0	0	1175747	692	0	correct_rejection	NA	0
20	Correct	131	455	1427	5	0	0	1176456	692	0	correct_rejection	NA	0
20	Correct	132	456	1428	6	0	0	1177165	691	0	correct_rejection	NA	0
20	Correct	133	457	1429	6	0	0	1177873	692	0	correct_rejection	NA	0
20	Correct	134	458	1430	5	0	0	1178582	691	0	correct_rejection	NA	0
20	Correct	135	459	1431	0	1	1	1179290	692	0	miss	NA	0
20	Correct	136	460	1432	4	0	0	1179999	692	1	false_alarm	10	0
20	Correct	137	461	1433	6	0	0	1180707	692	0	correct_rejection	NA	0
20	Correct	138	462	1434	5	0	0	1181416	692	0	correct_rejection	NA	0
20	Correct	139	463	1435	4	0	0	1182125	691	0	correct_rejection	NA	0
20	Correct	140	464	1436	6	0	0	1182833	692	0	correct_rejection	NA	0
20	Correct	141	465	1437	5	0	0	1183542	691	0	correct_rejection	NA	0
20	Correct	142	466	1438	4	0	0	1184250	692	0	correct_rejection	NA	0
20	Correct	143	467	1439	9	0	0	1184959	691	0	correct_rejection	NA	0
20	Correct	144	468	1440	8	0	0	1185667	692	0	correct_rejection	NA	0
20	Correct	145	469	1441	7	0	0	1186376	692	0	correct_rejection	NA	0
20	Correct	146	470	1442	9	0	0	1187085	691	0	correct_rejection	NA	0
20	Correct	147	471	1443	0	1	1	1187793	692	1	hit	412	0
20	Correct	148	472	1444	8	0	0	1188502	691	0	correct_rejection	NA	0
20	Correct	149	473	1445	7	0	0	1189210	692	0	correct_rejection	NA	0
20	Correct	150	474	1446	9	0	0	1189919	691	0	correct_rejection	NA	0
20	Correct	151	475	1447	8	0	0	1190627	692	0	correct_rejection	NA	0
20	Correct	152	476	1448	7	0	0	1191336	692	0	correct_rejection	NA	0
20	Correct	153	477	1449	7	0	0	1192044	692	0	correct_rejection	NA	0
20	Correct	154	478	1450	8	0	0	1192753	692	0	correct_rejection	NA	0
20	Correct	155	479	1451	9	0	0	1193462	691	0	correct_rejection	NA	0
20	Correct	156	480	1452	0	1	2	1194170	692	1	hit	388	0
20	Correct	157	481	1453	7	0	0	1194879	691	0	correct_rejection	NA	0
20	Correct	158	482	1454	8	0	0	1195587	692	0	correct_rejection	NA	0
20	Correct	159	483	1455	9	0	0	1196296	692	0	correct_rejection	NA	0
20	Correct	160	484	1456	7	0	0	1197004	692	0	correct_rejection	NA	0
20	Correct	161	485	1457	8	0	0	1197713	692	0	correct_rejection	NA	0
20	Correct	162	486	1458	9	0	0	1198422	691	0	correct_rejection	NA	0
20	Nonet	1	1	1459	9	0	0	1206974	692	0	correct_rejection	NA	6429
20	Nonet	2	2	1460	8	0	0	1207683	692	0	correct_rejection	NA	0
20	Nonet	3	3	1461	7	0	0	1208392	691	0	correct_rejection	NA	0
20	Nonet	4	4	1462	9	0	0	1209100	692	0	correct_rejection	NA	0
20	Nonet	5	5	1463	8	0	0	1209809	691	0	correct_rejection	NA	0
20	Nonet	6	6	1464	7	0	0	1210517	692	0	correct_rejection	NA	0
20	Nonet	7	7	1465	9	0	0	1211226	692	0	correct_rejection	NA	0
20	Nonet	8	8	1466	8	0	0	1211934	692	0	correct_rejection	NA	0
20	Nonet	9	9	1467	7	0	0	1212643	692	0	correct_rejection	NA	0
20	Nonet	10	10	1468	6	0	0	1213352	691	0	correct_rejection	NA	0
20	Nonet	11	11	1469	5	0	0	1214060	692	0	correct_rejection	NA	0
20	Nonet	12	12	1470	4	0	0	1214769	691	0	correct_rejection	NA	0
20	Nonet	13	13	1471	6	0	0	1215477	692	0	correct_rejection	NA	0
20	Nonet	14	14	1472	5	0	0	1216186	692	0	correct_rejection	NA	0
20	Nonet	15	15	1473	4	0	0	1216894	692	0	correct_rejection	NA	0
20	Nonet	16	16	1474	6	0	0	1217603	692	0	correct_rejection	NA	0
20	Nonet	17	17	1475	0	1	1	1218312	691	1	hit	652	0
20	Nonet	18	18	1476	5	0	0	1219020	692	0	correct_rejection	NA	0
20	Nonet	19	19	1477	4	0	0	1219729	691	0	correct_rejection	NA	0
20	Nonet	20	20	1478	6	0	0	1220437	692	0	correct_rejection	NA	0
20	Nonet	21	21	1479	5	0	0	1221146	691	0	correct_rejection	NA	0
20	Nonet	22	22	1480	0	1	1	1221854	692	1	hit	507	0
20	Nonet	23	23	1481	4	0	0	1222563	692	0	correct_rejection	NA	0
20	Nonet	24	24	1482	6	0	0	1223271	692	0	correct_rejection	NA	0
20	Nonet	25	25	1483	5	0	0	1223980	692	0	correct_rejection	NA	0
20	Nonet	26	26	1484	4	0	0	1224689	691	0	correct_rejection	NA	0
20	Nonet	27	27	1485	6	0	0	1225397	692	0	correct_rejection	NA	0
20	Nonet	28	28	1486	5	0	0	1226106	691	0	correct_rejection	NA	0
20	Nonet	29	29	1487	4	0	0	1226814	692	0	correct_rejection	NA	0
20	Nonet	30	30	1488	9	0	0	1227523	692	0	correct_rejection	NA	0
20	Nonet	31	31	1489	8	0	0	1228231	692	0	correct_rejection	NA	0
20	Nonet	32	32	1490	0	1	1	1228940	692	1	hit	406	0
20	Nonet	33	33	1491	7	0	0	1229649	691	0	correct_rejection	NA	0
20	Nonet	34	34	1492	9	0	0	1230357	692	0	correct_rejection	NA	0
20	Nonet	35	35	1493	8	0	0	1231066	691	0	correct_rejection	NA	0
20	Nonet	36	36	1494	7	0	0	1231774	692	0	correct_rejection	NA	0
20	Nonet	37	37	1495	9	0	0	1232483	692	0	correct_rejection	NA	0
20	Nonet	38	38	1496	8	0	0	1233191	692	0	correct_rejection	NA	0
20	Nonet	39	39	1497	7	0	0	1233900	692	0	correct_rejection	NA	0
20	Nonet	40	40	1498	4	0	0	1234609	691	0	correct_rejection	NA	0
20	Nonet	41	41	1499	5	0	0	1235317	692	0	correct_rejection	NA	0
20	Nonet	42	42	1500	6	0	0	1236026	691	0	correct_rejection	NA	0
20	Nonet	43	43	1501	0	1	2	1236734	692	1	hit	552	0
20	Nonet	44	44	1502	4	0	0	1237443	692	0	correct_rejection	NA	0
20	Nonet	45	45	1503	5	0	0	1238151	692	0	correct_rejection	NA	0
20	Nonet	46	46	1504	6	0	0	1238860	692	0	correct_rejection	NA	0
20	Nonet	47	47	1505	0	1	2	1239569	691	0	miss	NA	0
20	Nonet	48	48	1506	4	0	0	1240277	692	1	false_alarm	92	0
20	Nonet	49	49	1507	5	0	0	1240986	691	0	correct_rejection	NA	0
20	Nonet	50	50	1508	6	0	0	1241694	692	0	correct_rejection	NA	0
20	Nonet	51	51	1509	4	0	0	1242403	692	0	correct_rejection	NA	0
20	Nonet	52	52	1510	5	0	0	1243111	692	0	correct_rejection	NA	0
20	Nonet	53	53	1511	0	1	1	1243820	692	1	hit	447	0
20	Nonet	54	54	1512	6	0	0	1244529	691	0	correct_rejection	NA	0
20	Nonet	55	55	1513	4	0	0	1245237	692	0	correct_rejection	NA	0
20	Nonet	56	56	1514	5	0	0	1245946	691	0	correct_rejection	NA	0
20	Nonet	57	57	1515	6	0	0	1246654	692	0	correct_rejection	NA	0
20	Nonet	58	58	1516	4	0	0	1247363	692	0	correct_rejection	NA	0
20	Nonet	59	59	1517	5	0	0	1248071	692	0	correct_rejection	NA	0
20	Nonet	60	60	1518	6	0	0	1248780	692	0	correct_rejection	NA	0
20	Nonet	61	61	1519	7	0	0	1249489	691	0	correct_rejection	NA	0
20	Nonet	62	62	1520	8	0	0	1250197	692	0	correct_rejection	NA	0
20	Nonet	63	63	1521	9	0	0	1250906	691	0	correct_rejection	NA	0
20	Nonet	64	64	1522	7	0	0	1251614	692	0	correct_rejection	NA	0
20	Nonet	65	65	1523	8	0	0	1252323	691	0	correct_rejection	NA	0
20	Nonet	66	66	1524	0	1	1	1253031	692	1	hit	542	0
20	Nonet	67	67	1525	9	0	0	1253740	692	0	correct_rejection	NA	0
20	Nonet	68	68	1526	7	0	0	1254448	692	0	correct_rejection	NA	0
20	Nonet	69	69	1527	8	0	0	1255157	692	0	correct_rejection	NA	0
20	Nonet	70	70	1528	9	0	0	1255866	691	0	correct_rejection	NA	0
20	Nonet	71	71	1529	4	0	0	1256574	692	0	correct_rejection	NA	0
20	Nonet	72	72	1530	5	0	0	1257283	691	0	correct_rejection	NA	0
20	Nonet	73	73	1531	6	0	0	1257991	692	0	correct_rejection	NA	0
20	Nonet	74	74	1532	4	0	0	1258700	692	0	correct_rejection	NA	0
20	Nonet	75	75	1533	5	0	0	1259408	692	0	correct_rejection	NA	0
20	Nonet	76	76	1534	6	0	0	1260117	692	0	correct_rejection	NA	0
20	Nonet	77	77	1535	4	0	0	1260826	691	0	correct_rejection	NA	0
20	Nonet	78	78	1536	5	0	0	1261534	692	0	correct_rejection	NA	0
20	Nonet	79	79	1537	6	0	0	1262243	691	0	correct_rejection	NA	0
20	Nonet	80	80	1538	9	0	0	1262951	692	0	correct_rejection	NA	0
20	Nonet	81	81	1539	8	0	0	1263660	692	0	correct_rejection	NA	0
20	Nonet	82	82	1540	0	1	1	1264368	692	1	hit	548	0
20	Nonet	83	83	1541	7	0	0	1265077	692	0	correct_rejection	NA	0
20	Nonet	84	84	1542	9	0	0	1265786	691	0	correct_rejection	NA	0
20	Nonet	85	85	1543	8	0	0	1266494	692	0	correct_rejection	NA	0
20	Nonet	86	86	1544	0	1	1	1267203	691	1	hit	512	0
20	Nonet	87	87	1545	7	0	0	1267911	692	0	correct_rejection	NA	0
20	Nonet	88	88	1546	9	0	0	1268620	692	0	correct_rejection	NA	0
20	Nonet	89	89	1547	8	0	0	1269328	692	0	correct_rejection	NA	0
20	Nonet	90	90	1548	7	0	0	1270037	692	0	correct_rejection	NA	0
20	Nonet	91	91	1549	0	1	3	1270746	691	0	miss	NA	0
20	Nonet	92	92	1550	9	0	0	1271454	692	1	false_alarm	40	0
20	Nonet	93	93	1551	8	0	0	1272163	691	0	correct_rejection	NA	0
20	Nonet	94	94	1552	7	0	0	1272871	692	0	correct_rejection	NA	0
20	Nonet	95	95	1553	9	0	0	1273580	692	0	correct_rejection	NA	0
20	Nonet	96	96	1554	8	0	0	1274288	692	0	correct_rejection	NA	0
20	Nonet	97	97	1555	7	0	0	1274997	692	0	correct_rejection	NA	0
20	Nonet	98	98	1556	9	0	0	1275706	691	0	correct_rejection	NA	0
20	Nonet	99	99	1557	8	0	0	1276414	692	0	correct_rejection	NA	0
20	Nonet	100	100	1558	7	0	0	1277123	691	0	correct_rejection	NA	0
20	Nonet	101	101	1559	7	0	0	1277831	692	0	correct_rejection	NA	0
20	Nonet	102	102	1560	0	1	1	1278540	692	1	hit	393	0
20	Nonet	103	103	1561	8	0	0	1279248	692	0	correct_rejection	NA	0
20	Nonet	104	104	1562	9	0	0	1279957	692	0	correct_rejection	NA	0
20	Nonet	105	105	1563	7	0	0	1280666	691	0	correct_rejection	NA	0
20	Nonet	106	106	1564	8	0	0	1281374	692	0	correct_rejection	NA	0
20	Nonet	107	107	1565	9	0	0	1282083	691	0	correct_rejection	NA	0
20	Nonet	108	108	1566	7	0	0	1282791	692	0	correct_rejection	NA	0
20	Nonet	109	109	1567	8	0	0	1283500	691	0	correct_rejection	NA	0
20	Nonet	110	110	1568	9	0	0	1284208	692	0	correct_rejection	NA	0
20	Nonet	111	111	1569	6	0	0	1284917	692	0	correct_rejection	NA	0
20	Nonet	112	112	1570	5	0	0	1285625	692	0	correct_rejection	NA	0
20	Nonet	113	113	1571	0	1	1	1286334	692	1	hit	459	0
20	Nonet	114	114	1572	4	0	0	1287043	691	0	correct_rejection	NA	0
20	Nonet	115	115	1573	6	0	0	1287751	692	0	correct_rejection	NA	0
20	Nonet	116	116	1574	5	0	0	1288460	691	0	correct_rejection	NA	0
20	Nonet	117	117	1575	4	0	0	1289168	692	0	correct_rejection	NA	0
20	Nonet	118	118	1576	0	1	2	1289877	692	1	hit	522	0
20	Nonet	119	119	1577	6	0	0	1290585	692	0	correct_rejection	NA	0
20	Nonet	120	120	1578	5	0	0	1291294	692	0	correct_rejection	NA	0
20	Nonet	121	121	1579	4	0	0	1292003	691	0	correct_rejection	NA	0
20	Nonet	122	122	1580	4	0	0	1292711	692	0	correct_rejection	NA	0
20	Nonet	123	123	1581	5	0	0	1293420	691	0	correct_rejection	NA	0
20	Nonet	124	124	1582	6	0	0	1294128	692	0	correct_rejection	NA	0
20	Nonet	125	125	1583	4	0	0	1294837	692	0	correct_rejection	NA	0
20	Nonet	126	126	1584	5	0	0	1295545	692	0	correct_rejection	NA	0
20	Nonet	127	127	1585	0	1	1	1296254	692	1	hit	520	0
20	Nonet	128	128	1586	6	0	0	1296963	691	0	correct_rejection	NA	0
20	Nonet	129	129	1587	4	0	0	1297671	692	0	correct_rejection	NA	0
20	Nonet	130	130	1588	0	1	1	1298380	691	1	hit	561	0
20	Nonet	131	131	1589	5	0	0	1299088	692	0	correct_rejection	NA	0
20	Nonet	132	132	1590	6	0	0	1299797	692	0	correct_rejection	NA	0
20	Nonet	133	133	1591	6	0	0	1300505	692	0	correct_rejection	NA	0
20	Nonet	134	134	1592	5	0	0	1301214	692	0	correct_rejection	NA	0
20	Nonet	135	135	1593	4	0	0	1301923	691	0	correct_rejection	NA	0
20	Nonet	136	136	1594	6	0	0	1302631	692	0	correct_rejection	NA	0
20	Nonet	137	137	1595	5	0	0	1303340	691	0	correct_rejection	NA	0
20	Nonet	138	138	1596	4	0	0	1304048	692	0	correct_rejection	NA	0
20	Nonet	139	139	1597	6	0	0	1304757	692	0	correct_rejection	NA	0
