ID	block	trial_block	trial_cat	trial_total	number	violation	level_violation	onset	duration	Response	Hit_Miss	RT	pre_trial_fixcross_ISI
first_trigger_at: 11269
trigger nr 3 at 13269
21	Single	1	487	1	7	0	0	20456	692	0	correct_rejection	NA	7148
21	Single	2	488	2	4	0	0	21165	692	0	correct_rejection	NA	0
21	Single	3	489	3	5	0	0	21873	692	0	correct_rejection	NA	0
21	Single	4	490	4	0	1	1	22582	692	1	hit	373	0
21	Single	5	491	5	5	0	0	23291	691	0	correct_rejection	NA	0
21	Single	6	492	6	7	0	0	23999	692	0	correct_rejection	NA	0
21	Single	7	493	7	6	0	0	24708	691	0	correct_rejection	NA	0
21	Single	8	494	8	4	0	0	25416	692	0	correct_rejection	NA	0
21	Single	9	495	9	9	0	0	26125	691	0	correct_rejection	NA	0
21	Single	10	496	10	0	1	1	26833	692	1	hit	351	0
21	Single	11	497	11	5	0	0	27542	692	0	correct_rejection	NA	0
21	Single	12	498	12	9	0	0	28251	691	0	correct_rejection	NA	0
21	Single	13	499	13	0	1	1	28959	692	1	hit	372	0
21	Single	14	500	14	4	0	0	29668	691	0	correct_rejection	NA	0
21	Single	15	501	15	8	0	0	30376	692	0	correct_rejection	NA	0
21	Single	16	502	16	5	0	0	31085	691	0	correct_rejection	NA	0
21	Single	17	503	17	8	0	0	31793	692	0	correct_rejection	NA	0
21	Single	18	504	18	4	0	0	32502	692	0	correct_rejection	NA	0
21	Single	19	505	19	7	0	0	33210	692	0	correct_rejection	NA	0
21	Single	20	506	20	8	0	0	33919	692	0	correct_rejection	NA	0
21	Single	21	507	21	6	0	0	34628	691	0	correct_rejection	NA	0
21	Single	22	508	22	8	0	0	35336	692	0	correct_rejection	NA	0
21	Single	23	509	23	9	0	0	36045	691	0	correct_rejection	NA	0
21	Single	24	510	24	7	0	0	36753	692	0	correct_rejection	NA	0
21	Single	25	511	25	0	1	1	37462	692	1	hit	417	0
21	Single	26	512	26	5	0	0	38170	692	0	correct_rejection	NA	0
21	Single	27	513	27	6	0	0	38879	692	0	correct_rejection	NA	0
21	Single	28	514	28	9	0	0	39588	691	0	correct_rejection	NA	0
21	Single	29	515	29	6	0	0	40296	692	0	correct_rejection	NA	0
21	Single	30	516	30	6	0	0	41005	691	0	correct_rejection	NA	0
21	Single	31	517	31	5	0	0	41713	692	0	correct_rejection	NA	0
21	Single	32	518	32	4	0	0	42422	692	0	correct_rejection	NA	0
21	Single	33	519	33	4	0	0	43130	692	0	correct_rejection	NA	0
21	Single	34	520	34	0	1	1	43839	692	1	hit	362	0
21	Single	35	521	35	6	0	0	44548	691	0	correct_rejection	NA	0
21	Single	36	522	36	7	0	0	45256	692	0	correct_rejection	NA	0
21	Single	37	523	37	7	0	0	45965	691	0	correct_rejection	NA	0
21	Single	38	524	38	9	0	0	46673	692	0	correct_rejection	NA	0
21	Single	39	525	39	9	0	0	47382	692	0	correct_rejection	NA	0
21	Single	40	526	40	8	0	0	48090	692	0	correct_rejection	NA	0
21	Single	41	527	41	8	0	0	48799	692	0	correct_rejection	NA	0
21	Single	42	528	42	5	0	0	49508	691	0	correct_rejection	NA	0
21	Single	43	529	43	9	0	0	50216	692	0	correct_rejection	NA	0
21	Single	44	530	44	9	0	0	50925	691	0	correct_rejection	NA	0
21	Single	45	531	45	7	0	0	51633	692	0	correct_rejection	NA	0
21	Single	46	532	46	0	1	1	52342	692	1	hit	310	0
21	Single	47	533	47	9	0	0	53050	692	0	correct_rejection	NA	0
21	Single	48	534	48	5	0	0	53759	692	0	correct_rejection	NA	0
21	Single	49	535	49	5	0	0	54468	691	0	correct_rejection	NA	0
21	Single	50	536	50	0	1	1	55176	692	1	hit	444	0
21	Single	51	537	51	8	0	0	55885	691	0	correct_rejection	NA	0
21	Single	52	538	52	7	0	0	56593	692	0	correct_rejection	NA	0
21	Single	53	539	53	5	0	0	57302	691	0	correct_rejection	NA	0
21	Single	54	540	54	4	0	0	58010	692	0	correct_rejection	NA	0
21	Single	55	541	55	5	0	0	58719	692	0	correct_rejection	NA	0
21	Single	56	542	56	7	0	0	59428	691	0	correct_rejection	NA	0
21	Single	57	543	57	7	0	0	60136	692	0	correct_rejection	NA	0
21	Single	58	544	58	4	0	0	60845	691	0	correct_rejection	NA	0
21	Single	59	545	59	9	0	0	61553	692	0	correct_rejection	NA	0
21	Single	60	546	60	6	0	0	62262	691	0	correct_rejection	NA	0
21	Single	61	547	61	7	0	0	62970	692	0	correct_rejection	NA	0
21	Single	62	548	62	8	0	0	63679	692	0	correct_rejection	NA	0
21	Single	63	549	63	4	0	0	64387	692	0	correct_rejection	NA	0
21	Single	64	550	64	6	0	0	65096	692	0	correct_rejection	NA	0
21	Single	65	551	65	5	0	0	65805	691	0	correct_rejection	NA	0
21	Single	66	552	66	6	0	0	66513	692	0	correct_rejection	NA	0
21	Single	67	553	67	6	0	0	67222	691	0	correct_rejection	NA	0
21	Single	68	554	68	9	0	0	67930	692	0	correct_rejection	NA	0
21	Single	69	555	69	8	0	0	68639	692	0	correct_rejection	NA	0
21	Single	70	556	70	9	0	0	69347	692	0	correct_rejection	NA	0
21	Single	71	557	71	4	0	0	70056	692	0	correct_rejection	NA	0
21	Single	72	558	72	4	0	0	70765	691	0	correct_rejection	NA	0
21	Single	73	559	73	8	0	0	71473	692	0	correct_rejection	NA	0
21	Single	74	560	74	6	0	0	72182	691	0	correct_rejection	NA	0
21	Single	75	561	75	4	0	0	72890	692	0	correct_rejection	NA	0
21	Single	76	562	76	7	0	0	73599	692	0	correct_rejection	NA	0
21	Single	77	563	77	6	0	0	74307	692	0	correct_rejection	NA	0
21	Single	78	564	78	8	0	0	75016	692	0	correct_rejection	NA	0
21	Single	79	565	79	8	0	0	75725	691	0	correct_rejection	NA	0
21	Single	80	566	80	4	0	0	76433	692	0	correct_rejection	NA	0
21	Single	81	567	81	7	0	0	77142	691	0	correct_rejection	NA	0
21	Single	82	568	82	5	0	0	77850	692	0	correct_rejection	NA	0
21	Single	83	569	83	5	0	0	78559	692	0	correct_rejection	NA	0
21	Single	84	570	84	4	0	0	79267	692	0	correct_rejection	NA	0
21	Single	85	571	85	0	1	1	79976	692	1	hit	360	0
21	Single	86	572	86	8	0	0	80685	691	0	correct_rejection	NA	0
21	Single	87	573	87	9	0	0	81393	692	0	correct_rejection	NA	0
21	Single	88	574	88	0	1	1	82102	691	1	hit	381	0
21	Single	89	575	89	6	0	0	82810	692	0	correct_rejection	NA	0
21	Single	90	576	90	9	0	0	83519	692	0	correct_rejection	NA	0
21	Single	91	577	91	9	0	0	84227	692	0	correct_rejection	NA	0
21	Single	92	578	92	5	0	0	84936	692	0	correct_rejection	NA	0
21	Single	93	579	93	8	0	0	85645	691	0	correct_rejection	NA	0
21	Single	94	580	94	5	0	0	86353	692	0	correct_rejection	NA	0
21	Single	95	581	95	6	0	0	87062	691	0	correct_rejection	NA	0
21	Single	96	582	96	7	0	0	87770	692	0	correct_rejection	NA	0
21	Single	97	583	97	9	0	0	88479	691	0	correct_rejection	NA	0
21	Single	98	584	98	4	0	0	89187	692	0	correct_rejection	NA	0
21	Single	99	585	99	6	0	0	89896	692	0	correct_rejection	NA	0
21	Single	100	586	100	8	0	0	90605	691	0	correct_rejection	NA	0
21	Single	101	587	101	0	1	1	91313	692	1	hit	396	0
21	Single	102	588	102	4	0	0	92022	691	0	correct_rejection	NA	0
21	Single	103	589	103	5	0	0	92730	692	0	correct_rejection	NA	0
21	Single	104	590	104	9	0	0	93439	691	0	correct_rejection	NA	0
21	Single	105	591	105	8	0	0	94147	692	0	correct_rejection	NA	0
21	Single	106	592	106	7	0	0	94856	692	0	correct_rejection	NA	0
21	Single	107	593	107	0	1	1	95564	692	1	hit	554	0
21	Single	108	594	108	6	0	0	96273	692	0	correct_rejection	NA	0
21	Single	109	595	109	6	0	0	96982	691	0	correct_rejection	NA	0
21	Single	110	596	110	4	0	0	97690	692	0	correct_rejection	NA	0
21	Single	111	597	111	0	1	1	98399	691	1	hit	416	0
21	Single	112	598	112	4	0	0	99107	692	0	correct_rejection	NA	0
21	Single	113	599	113	9	0	0	99816	692	0	correct_rejection	NA	0
21	Single	114	600	114	7	0	0	100524	692	0	correct_rejection	NA	0
21	Single	115	601	115	7	0	0	101233	692	0	correct_rejection	NA	0
21	Single	116	602	116	0	1	1	101942	691	1	hit	446	0
21	Single	117	603	117	8	0	0	102650	692	0	correct_rejection	NA	0
21	Single	118	604	118	8	0	0	103359	691	0	correct_rejection	NA	0
21	Single	119	605	119	6	0	0	104067	692	0	correct_rejection	NA	0
21	Single	120	606	120	5	0	0	104776	692	0	correct_rejection	NA	0
21	Single	121	607	121	7	0	0	105484	692	0	correct_rejection	NA	0
21	Single	122	608	122	0	1	1	106193	692	1	hit	353	0
21	Single	123	609	123	7	0	0	106902	691	0	correct_rejection	NA	0
21	Single	124	610	124	8	0	0	107610	692	0	correct_rejection	NA	0
21	Single	125	611	125	5	0	0	108319	691	0	correct_rejection	NA	0
21	Single	126	612	126	0	1	1	109027	692	1	hit	333	0
21	Single	127	613	127	7	0	0	109736	692	0	correct_rejection	NA	0
21	Single	128	614	128	6	0	0	110444	692	0	correct_rejection	NA	0
21	Single	129	615	129	4	0	0	111153	692	0	correct_rejection	NA	0
21	Single	130	616	130	5	0	0	111862	691	0	correct_rejection	NA	0
21	Single	131	617	131	5	0	0	112570	692	0	correct_rejection	NA	0
21	Single	132	618	132	6	0	0	113279	691	0	correct_rejection	NA	0
21	Single	133	619	133	8	0	0	113987	692	0	correct_rejection	NA	0
21	Single	134	620	134	0	1	1	114696	692	1	hit	348	0
21	Single	135	621	135	6	0	0	115404	692	0	correct_rejection	NA	0
21	Single	136	622	136	9	0	0	116113	692	0	correct_rejection	NA	0
21	Single	137	623	137	4	0	0	116822	691	0	correct_rejection	NA	0
21	Single	138	624	138	8	0	0	117530	692	0	correct_rejection	NA	0
21	Single	139	625	139	7	0	0	118239	691	0	correct_rejection	NA	0
21	Single	140	626	140	0	1	1	118947	692	1	hit	404	0
21	Single	141	627	141	4	0	0	119656	691	0	correct_rejection	NA	0
21	Single	142	628	142	6	0	0	120364	692	0	correct_rejection	NA	0
21	Single	143	629	143	6	0	0	121073	692	0	correct_rejection	NA	0
21	Single	144	630	144	7	0	0	121781	692	0	correct_rejection	NA	0
21	Single	145	631	145	5	0	0	122490	692	0	correct_rejection	NA	0
21	Single	146	632	146	8	0	0	123199	691	0	correct_rejection	NA	0
21	Single	147	633	147	9	0	0	123907	692	0	correct_rejection	NA	0
21	Single	148	634	148	8	0	0	124616	691	0	correct_rejection	NA	0
21	Single	149	635	149	8	0	0	125324	692	0	correct_rejection	NA	0
21	Single	150	636	150	4	0	0	126033	692	0	correct_rejection	NA	0
21	Single	151	637	151	9	0	0	126741	692	0	correct_rejection	NA	0
21	Single	152	638	152	5	0	0	127450	692	0	correct_rejection	NA	0
21	Single	153	639	153	4	0	0	128159	691	0	correct_rejection	NA	0
21	Single	154	640	154	4	0	0	128867	692	0	correct_rejection	NA	0
21	Single	155	641	155	7	0	0	129576	691	0	correct_rejection	NA	0
21	Single	156	642	156	9	0	0	130284	692	0	correct_rejection	NA	0
21	Single	157	643	157	9	0	0	130993	692	0	correct_rejection	NA	0
21	Single	158	644	158	6	0	0	131701	692	0	correct_rejection	NA	0
21	Single	159	645	159	5	0	0	132410	692	0	correct_rejection	NA	0
21	Single	160	646	160	0	1	1	133119	691	1	hit	313	0
21	Single	161	647	161	9	0	0	133827	692	0	correct_rejection	NA	0
21	Single	162	648	162	7	0	0	134536	691	0	correct_rejection	NA	0
21	Nonet	1	487	163	7	0	0	143922	692	0	correct_rejection	NA	7619
21	Nonet	2	488	164	8	0	0	144631	691	0	correct_rejection	NA	0
21	Nonet	3	489	165	9	0	0	145339	692	0	correct_rejection	NA	0
21	Nonet	4	490	166	0	1	2	146048	692	1	hit	403	0
21	Nonet	5	491	167	7	0	0	146756	692	0	correct_rejection	NA	0
21	Nonet	6	492	168	8	0	0	147465	692	0	correct_rejection	NA	0
21	Nonet	7	493	169	9	0	0	148174	691	0	correct_rejection	NA	0
21	Nonet	8	494	170	7	0	0	148882	692	0	correct_rejection	NA	0
21	Nonet	9	495	171	8	0	0	149591	691	0	correct_rejection	NA	0
21	Nonet	10	496	172	9	0	0	150299	692	0	correct_rejection	NA	0
21	Nonet	11	497	173	7	0	0	151008	692	0	correct_rejection	NA	0
21	Nonet	12	498	174	8	0	0	151716	692	0	correct_rejection	NA	0
21	Nonet	13	499	175	0	1	1	152425	692	1	hit	438	0
21	Nonet	14	500	176	9	0	0	153134	691	0	correct_rejection	NA	0
21	Nonet	15	501	177	7	0	0	153842	692	0	correct_rejection	NA	0
21	Nonet	16	502	178	0	1	1	154551	691	1	hit	460	0
21	Nonet	17	503	179	8	0	0	155259	692	0	correct_rejection	NA	0
21	Nonet	18	504	180	9	0	0	155968	692	0	correct_rejection	NA	0
21	Nonet	19	505	181	7	0	0	156676	692	0	correct_rejection	NA	0
21	Nonet	20	506	182	8	0	0	157385	692	0	correct_rejection	NA	0
21	Nonet	21	507	183	9	0	0	158094	691	0	correct_rejection	NA	0
21	Nonet	22	508	184	9	0	0	158802	692	0	correct_rejection	NA	0
21	Nonet	23	509	185	8	0	0	159511	691	0	correct_rejection	NA	0
21	Nonet	24	510	186	7	0	0	160219	692	0	correct_rejection	NA	0
21	Nonet	25	511	187	9	0	0	160928	691	0	correct_rejection	NA	0
21	Nonet	26	512	188	8	0	0	161636	692	0	correct_rejection	NA	0
21	Nonet	27	513	189	7	0	0	162345	692	0	correct_rejection	NA	0
21	Nonet	28	514	190	9	0	0	163054	691	0	correct_rejection	NA	0
21	Nonet	29	515	191	0	1	1	163762	692	1	hit	362	0
21	Nonet	30	516	192	8	0	0	164471	691	0	correct_rejection	NA	0
21	Nonet	31	517	193	7	0	0	165179	692	0	correct_rejection	NA	0
21	Nonet	32	518	194	9	0	0	165888	691	0	correct_rejection	NA	0
21	Nonet	33	519	195	8	0	0	166596	692	0	correct_rejection	NA	0
21	Nonet	34	520	196	7	0	0	167305	692	0	correct_rejection	NA	0
21	Nonet	35	521	197	9	0	0	168013	692	0	correct_rejection	NA	0
21	Nonet	36	522	198	0	1	1	168722	692	1	hit	343	0
21	Nonet	37	523	199	8	0	0	169431	691	0	correct_rejection	NA	0
21	Nonet	38	524	200	7	0	0	170139	692	0	correct_rejection	NA	0
21	Nonet	39	525	201	9	0	0	170848	691	0	correct_rejection	NA	0
21	Nonet	40	526	202	8	0	0	171556	692	0	correct_rejection	NA	0
21	Nonet	41	527	203	7	0	0	172265	692	0	correct_rejection	NA	0
21	Nonet	42	528	204	4	0	0	172973	692	0	correct_rejection	NA	0
21	Nonet	43	529	205	5	0	0	173682	692	0	correct_rejection	NA	0
21	Nonet	44	530	206	6	0	0	174391	691	0	correct_rejection	NA	0
21	Nonet	45	531	207	4	0	0	175099	692	0	correct_rejection	NA	0
21	Nonet	46	532	208	5	0	0	175808	691	0	correct_rejection	NA	0
21	Nonet	47	533	209	0	1	1	176516	692	1	hit	377	0
21	Nonet	48	534	210	6	0	0	177225	692	0	correct_rejection	NA	0
21	Nonet	49	535	211	4	0	0	177933	692	0	correct_rejection	NA	0
21	Nonet	50	536	212	5	0	0	178642	692	0	correct_rejection	NA	0
21	Nonet	51	537	213	6	0	0	179351	691	0	correct_rejection	NA	0
21	Nonet	52	538	214	6	0	0	180059	692	0	correct_rejection	NA	0
21	Nonet	53	539	215	5	0	0	180768	691	0	correct_rejection	NA	0
21	Nonet	54	540	216	4	0	0	181476	692	0	correct_rejection	NA	0
21	Nonet	55	541	217	6	0	0	182185	692	0	correct_rejection	NA	0
21	Nonet	56	542	218	5	0	0	182893	692	0	correct_rejection	NA	0
21	Nonet	57	543	219	4	0	0	183602	692	0	correct_rejection	NA	0
21	Nonet	58	544	220	6	0	0	184311	691	0	correct_rejection	NA	0
21	Nonet	59	545	221	5	0	0	185019	692	0	correct_rejection	NA	0
21	Nonet	60	546	222	4	0	0	185728	691	0	correct_rejection	NA	0
21	Nonet	61	547	223	4	0	0	186436	692	0	correct_rejection	NA	0
21	Nonet	62	548	224	5	0	0	187145	692	0	correct_rejection	NA	0
21	Nonet	63	549	225	6	0	0	187853	692	0	correct_rejection	NA	0
21	Nonet	64	550	226	4	0	0	188562	692	0	correct_rejection	NA	0
21	Nonet	65	551	227	5	0	0	189271	691	0	correct_rejection	NA	0
21	Nonet	66	552	228	6	0	0	189979	692	0	correct_rejection	NA	0
21	Nonet	67	553	229	0	1	2	190688	691	1	hit	349	0
21	Nonet	68	554	230	4	0	0	191396	692	0	correct_rejection	NA	0
21	Nonet	69	555	231	5	0	0	192105	691	0	correct_rejection	NA	0
21	Nonet	70	556	232	6	0	0	192813	692	0	correct_rejection	NA	0
21	Nonet	71	557	233	7	0	0	193522	692	0	correct_rejection	NA	0
21	Nonet	72	558	234	8	0	0	194231	691	0	correct_rejection	NA	0
21	Nonet	73	559	235	9	0	0	194939	692	0	correct_rejection	NA	0
21	Nonet	74	560	236	7	0	0	195648	691	0	correct_rejection	NA	0
21	Nonet	75	561	237	8	0	0	196356	692	0	correct_rejection	NA	0
21	Nonet	76	562	238	9	0	0	197065	691	0	correct_rejection	NA	0
21	Nonet	77	563	239	7	0	0	197773	692	0	correct_rejection	NA	0
21	Nonet	78	564	240	8	0	0	198482	692	0	correct_rejection	NA	0
21	Nonet	79	565	241	9	0	0	199190	692	0	correct_rejection	NA	0
21	Nonet	80	566	242	6	0	0	199899	692	0	correct_rejection	NA	0
21	Nonet	81	567	243	5	0	0	200608	691	0	correct_rejection	NA	0
21	Nonet	82	568	244	0	1	1	201316	692	1	hit	335	0
21	Nonet	83	569	245	4	0	0	202025	691	0	correct_rejection	NA	0
21	Nonet	84	570	246	6	0	0	202733	692	0	correct_rejection	NA	0
21	Nonet	85	571	247	5	0	0	203442	692	0	correct_rejection	NA	0
21	Nonet	86	572	248	4	0	0	204150	692	0	correct_rejection	NA	0
21	Nonet	87	573	249	0	1	2	204859	692	1	hit	415	0
21	Nonet	88	574	250	6	0	0	205568	691	0	correct_rejection	NA	0
21	Nonet	89	575	251	5	0	0	206276	692	0	correct_rejection	NA	0
21	Nonet	90	576	252	4	0	0	206985	691	0	correct_rejection	NA	0
21	Nonet	91	577	253	9	0	0	207693	692	0	correct_rejection	NA	0
21	Nonet	92	578	254	8	0	0	208402	692	0	correct_rejection	NA	0
21	Nonet	93	579	255	7	0	0	209110	692	0	correct_rejection	NA	0
21	Nonet	94	580	256	9	0	0	209819	692	0	correct_rejection	NA	0
21	Nonet	95	581	257	8	0	0	210528	691	0	correct_rejection	NA	0
21	Nonet	96	582	258	7	0	0	211236	692	0	correct_rejection	NA	0
21	Nonet	97	583	259	0	1	2	211945	691	1	hit	410	0
21	Nonet	98	584	260	9	0	0	212653	692	0	correct_rejection	NA	0
21	Nonet	99	585	261	8	0	0	213362	692	0	correct_rejection	NA	0
21	Nonet	100	586	262	7	0	0	214070	692	0	correct_rejection	NA	0
21	Nonet	101	587	263	6	0	0	214779	692	0	correct_rejection	NA	0
21	Nonet	102	588	264	5	0	0	215488	691	0	correct_rejection	NA	0
21	Nonet	103	589	265	0	1	1	216196	692	1	hit	361	0
21	Nonet	104	590	266	4	0	0	216905	691	0	correct_rejection	NA	0
21	Nonet	105	591	267	6	0	0	217613	692	0	correct_rejection	NA	0
21	Nonet	106	592	268	5	0	0	218322	692	0	correct_rejection	NA	0
21	Nonet	107	593	269	4	0	0	219030	692	0	correct_rejection	NA	0
21	Nonet	108	594	270	6	0	0	219739	692	0	correct_rejection	NA	0
21	Nonet	109	595	271	5	0	0	220448	691	0	correct_rejection	NA	0
21	Nonet	110	596	272	4	0	0	221156	692	0	correct_rejection	NA	0
21	Nonet	111	597	273	6	0	0	221865	691	0	correct_rejection	NA	0
21	Nonet	112	598	274	5	0	0	222573	692	0	correct_rejection	NA	0
21	Nonet	113	599	275	4	0	0	223282	691	0	correct_rejection	NA	0
21	Nonet	114	600	276	6	0	0	223990	692	0	correct_rejection	NA	0
21	Nonet	115	601	277	5	0	0	224699	692	0	correct_rejection	NA	0
21	Nonet	116	602	278	4	0	0	225407	692	0	correct_rejection	NA	0
21	Nonet	117	603	279	6	0	0	226116	692	0	correct_rejection	NA	0
21	Nonet	118	604	280	0	1	1	226825	691	1	hit	365	0
21	Nonet	119	605	281	5	0	0	227533	692	0	correct_rejection	NA	0
21	Nonet	120	606	282	4	0	0	228242	691	0	correct_rejection	NA	0
21	Nonet	121	607	283	7	0	0	228950	692	0	correct_rejection	NA	0
21	Nonet	122	608	284	8	0	0	229659	692	0	correct_rejection	NA	0
21	Nonet	123	609	285	0	1	1	230367	692	0	miss	NA	0
21	Nonet	124	610	286	9	0	0	231076	692	1	false_alarm	152	0
21	Nonet	125	611	287	7	0	0	231785	691	0	correct_rejection	NA	0
21	Nonet	126	612	288	0	1	1	232493	692	1	hit	291	0
21	Nonet	127	613	289	8	0	0	233202	691	0	correct_rejection	NA	0
21	Nonet	128	614	290	9	0	0	233910	692	0	correct_rejection	NA	0
21	Nonet	129	615	291	0	1	2	234619	692	1	hit	354	0
21	Nonet	130	616	292	7	0	0	235327	692	0	correct_rejection	NA	0
21	Nonet	131	617	293	8	0	0	236036	692	0	correct_rejection	NA	0
21	Nonet	132	618	294	9	0	0	236745	691	0	correct_rejection	NA	0
21	Nonet	133	619	295	4	0	0	237453	692	0	correct_rejection	NA	0
21	Nonet	134	620	296	5	0	0	238162	691	0	correct_rejection	NA	0
21	Nonet	135	621	297	6	0	0	238870	692	0	correct_rejection	NA	0
21	Nonet	136	622	298	4	0	0	239579	692	0	correct_rejection	NA	0
21	Nonet	137	623	299	5	0	0	240287	692	0	correct_rejection	NA	0
21	Nonet	138	624	300	6	0	0	240996	692	0	correct_rejection	NA	0
21	Nonet	139	625	301	4	0	0	241705	691	0	correct_rejection	NA	0
21	Nonet	140	626	302	5	0	0	242413	692	0	correct_rejection	NA	0
21	Nonet	141	627	303	6	0	0	243122	691	0	correct_rejection	NA	0
21	Nonet	142	628	304	4	0	0	243830	692	0	correct_rejection	NA	0
21	Nonet	143	629	305	5	0	0	244539	692	0	correct_rejection	NA	0
21	Nonet	144	630	306	6	0	0	245247	692	0	correct_rejection	NA	0
21	Nonet	145	631	307	4	0	0	245956	692	0	correct_rejection	NA	0
21	Nonet	146	632	308	0	1	1	246665	691	1	hit	314	0
21	Nonet	147	633	309	5	0	0	247373	692	0	correct_rejection	NA	0
21	Nonet	148	634	310	6	0	0	248082	691	0	correct_rejection	NA	0
21	Nonet	149	635	311	0	1	2	248790	692	1	hit	401	0
21	Nonet	150	636	312	4	0	0	249499	692	0	correct_rejection	NA	0
21	Nonet	151	637	313	5	0	0	250207	692	0	correct_rejection	NA	0
21	Nonet	152	638	314	6	0	0	250916	692	0	correct_rejection	NA	0
21	Nonet	153	639	315	9	0	0	251625	691	0	correct_rejection	NA	0
21	Nonet	154	640	316	8	0	0	252333	692	0	correct_rejection	NA	0
21	Nonet	155	641	317	7	0	0	253042	691	0	correct_rejection	NA	0
21	Nonet	156	642	318	9	0	0	253750	692	0	correct_rejection	NA	0
21	Nonet	157	643	319	8	0	0	254459	691	0	correct_rejection	NA	0
21	Nonet	158	644	320	7	0	0	255167	692	0	correct_rejection	NA	0
21	Nonet	159	645	321	9	0	0	255876	692	0	correct_rejection	NA	0
21	Nonet	160	646	322	8	0	0	256584	692	0	correct_rejection	NA	0
21	Nonet	161	647	323	0	1	1	257293	692	1	hit	455	0
21	Nonet	162	648	324	7	0	0	258002	691	0	correct_rejection	NA	0
21	Correct	1	325	325	4	0	0	268097	691	0	correct_rejection	NA	7799
21	Correct	2	326	326	5	0	0	268805	692	0	correct_rejection	NA	0
21	Correct	3	327	327	6	0	0	269514	691	0	correct_rejection	NA	0
21	Correct	4	328	328	4	0	0	270222	692	0	correct_rejection	NA	0
21	Correct	5	329	329	5	0	0	270931	692	0	correct_rejection	NA	0
21	Correct	6	330	330	6	0	0	271639	692	0	correct_rejection	NA	0
21	Correct	7	331	331	4	0	0	272348	692	0	correct_rejection	NA	0
21	Correct	8	332	332	5	0	0	273057	691	0	correct_rejection	NA	0
21	Correct	9	333	333	6	0	0	273765	692	0	correct_rejection	NA	0
21	Correct	10	334	334	0	1	3	274474	691	1	hit	323	0
21	Correct	11	335	335	6	0	0	275182	692	0	correct_rejection	NA	0
21	Correct	12	336	336	5	0	0	275891	692	0	correct_rejection	NA	0
21	Correct	13	337	337	4	0	0	276599	692	0	correct_rejection	NA	0
21	Correct	14	338	338	6	0	0	277308	692	0	correct_rejection	NA	0
21	Correct	15	339	339	5	0	0	278017	691	0	correct_rejection	NA	0
21	Correct	16	340	340	4	0	0	278725	692	0	correct_rejection	NA	0
21	Correct	17	341	341	6	0	0	279434	691	0	correct_rejection	NA	0
21	Correct	18	342	342	0	1	1	280142	692	1	hit	330	0
21	Correct	19	343	343	5	0	0	280851	692	0	correct_rejection	NA	0
21	Correct	20	344	344	4	0	0	281559	692	0	correct_rejection	NA	0
21	Correct	21	345	345	9	0	0	282268	692	0	correct_rejection	NA	0
21	Correct	22	346	346	8	0	0	282977	691	0	correct_rejection	NA	0
21	Correct	23	347	347	7	0	0	283685	692	0	correct_rejection	NA	0
21	Correct	24	348	348	0	1	2	284394	691	1	hit	415	0
21	Correct	25	349	349	9	0	0	285102	692	0	correct_rejection	NA	0
21	Correct	26	350	350	8	0	0	285811	692	0	correct_rejection	NA	0
21	Correct	27	351	351	7	0	0	286519	692	0	correct_rejection	NA	0
21	Correct	28	352	352	9	0	0	287228	692	0	correct_rejection	NA	0
21	Correct	29	353	353	8	0	0	287937	691	0	correct_rejection	NA	0
21	Correct	30	354	354	7	0	0	288645	692	0	correct_rejection	NA	0
21	Correct	31	355	355	7	0	0	289354	691	0	correct_rejection	NA	0
21	Correct	32	356	356	8	0	0	290062	692	0	correct_rejection	NA	0
21	Correct	33	357	357	9	0	0	290771	692	0	correct_rejection	NA	0
21	Correct	34	358	358	7	0	0	291479	692	0	correct_rejection	NA	0
21	Correct	35	359	359	8	0	0	292188	692	0	correct_rejection	NA	0
21	Correct	36	360	360	9	0	0	292897	691	0	correct_rejection	NA	0
21	Correct	37	361	361	7	0	0	293605	692	0	correct_rejection	NA	0
21	Correct	38	362	362	0	1	1	294314	691	1	hit	374	0
21	Correct	39	363	363	8	0	0	295022	692	0	correct_rejection	NA	0
21	Correct	40	364	364	9	0	0	295731	691	0	correct_rejection	NA	0
21	Correct	41	365	365	4	0	0	296439	692	0	correct_rejection	NA	0
21	Correct	42	366	366	5	0	0	297148	692	0	correct_rejection	NA	0
21	Correct	43	367	367	6	0	0	297857	691	0	correct_rejection	NA	0
21	Correct	44	368	368	4	0	0	298565	692	0	correct_rejection	NA	0
21	Correct	45	369	369	5	0	0	299274	691	0	correct_rejection	NA	0
21	Correct	46	370	370	6	0	0	299982	692	0	correct_rejection	NA	0
21	Correct	47	371	371	4	0	0	300691	691	0	correct_rejection	NA	0
21	Correct	48	372	372	0	1	1	301399	692	1	hit	365	0
21	Correct	49	373	373	5	0	0	302108	692	0	correct_rejection	NA	0
21	Correct	50	374	374	6	0	0	302816	692	0	correct_rejection	NA	0
21	Correct	51	375	375	6	0	0	303525	692	0	correct_rejection	NA	0
21	Correct	52	376	376	5	0	0	304234	691	0	correct_rejection	NA	0
21	Correct	53	377	377	4	0	0	304942	692	0	correct_rejection	NA	0
21	Correct	54	378	378	6	0	0	305651	691	0	correct_rejection	NA	0
21	Correct	55	379	379	5	0	0	306359	692	0	correct_rejection	NA	0
21	Correct	56	380	380	4	0	0	307068	692	0	correct_rejection	NA	0
21	Correct	57	381	381	6	0	0	307776	692	0	correct_rejection	NA	0
21	Correct	58	382	382	5	0	0	308485	692	0	correct_rejection	NA	0
21	Correct	59	383	383	4	0	0	309194	691	0	correct_rejection	NA	0
21	Correct	60	384	384	9	0	0	309902	692	0	correct_rejection	NA	0
21	Correct	61	385	385	8	0	0	310611	691	0	correct_rejection	NA	0
21	Correct	62	386	386	7	0	0	311319	692	0	correct_rejection	NA	0
21	Correct	63	387	387	9	0	0	312028	692	0	correct_rejection	NA	0
21	Correct	64	388	388	8	0	0	312736	692	0	correct_rejection	NA	0
21	Correct	65	389	389	0	1	1	313445	692	1	hit	374	0
21	Correct	66	390	390	7	0	0	314154	691	0	correct_rejection	NA	0
21	Correct	67	391	391	9	0	0	314862	692	0	correct_rejection	NA	0
21	Correct	68	392	392	8	0	0	315571	691	0	correct_rejection	NA	0
21	Correct	69	393	393	7	0	0	316279	692	0	correct_rejection	NA	0
21	Correct	70	394	394	7	0	0	316988	692	0	correct_rejection	NA	0
21	Correct	71	395	395	8	0	0	317696	692	0	correct_rejection	NA	0
21	Correct	72	396	396	9	0	0	318405	692	0	correct_rejection	NA	0
21	Correct	73	397	397	0	1	2	319114	691	1	hit	376	0
21	Correct	74	398	398	7	0	0	319822	692	0	correct_rejection	NA	0
21	Correct	75	399	399	8	0	0	320531	691	0	correct_rejection	NA	0
21	Correct	76	400	400	0	1	1	321239	692	1	hit	383	0
21	Correct	77	401	401	9	0	0	321948	692	0	correct_rejection	NA	0
21	Correct	78	402	402	7	0	0	322656	692	0	correct_rejection	NA	0
21	Correct	79	403	403	8	0	0	323365	692	0	correct_rejection	NA	0
21	Correct	80	404	404	0	1	1	324074	691	1	hit	323	0
21	Correct	81	405	405	9	0	0	324782	692	0	correct_rejection	NA	0
21	Correct	82	406	406	4	0	0	325491	691	0	correct_rejection	NA	0
21	Correct	83	407	407	5	0	0	326199	692	0	correct_rejection	NA	0
21	Correct	84	408	408	0	1	1	326908	691	1	hit	303	0
21	Correct	85	409	409	6	0	0	327616	692	0	correct_rejection	NA	0
21	Correct	86	410	410	4	0	0	328325	692	0	correct_rejection	NA	0
21	Correct	87	411	411	5	0	0	329034	691	0	correct_rejection	NA	0
21	Correct	88	412	412	6	0	0	329742	692	0	correct_rejection	NA	0
21	Correct	89	413	413	4	0	0	330451	691	0	correct_rejection	NA	0
21	Correct	90	414	414	5	0	0	331159	692	0	correct_rejection	NA	0
21	Correct	91	415	415	6	0	0	331868	691	0	correct_rejection	NA	0
21	Correct	92	416	416	6	0	0	332576	692	0	correct_rejection	NA	0
21	Correct	93	417	417	5	0	0	333285	692	0	correct_rejection	NA	0
21	Correct	94	418	418	4	0	0	333993	692	0	correct_rejection	NA	0
21	Correct	95	419	419	6	0	0	334702	692	0	correct_rejection	NA	0
21	Correct	96	420	420	5	0	0	335411	691	0	correct_rejection	NA	0
21	Correct	97	421	421	4	0	0	336119	692	0	correct_rejection	NA	0
21	Correct	98	422	422	6	0	0	336828	691	0	correct_rejection	NA	0
21	Correct	99	423	423	5	0	0	337536	692	0	correct_rejection	NA	0
21	Correct	100	424	424	4	0	0	338245	692	0	correct_rejection	NA	0
21	Correct	101	425	425	9	0	0	338953	692	0	correct_rejection	NA	0
21	Correct	102	426	426	8	0	0	339662	692	0	correct_rejection	NA	0
21	Correct	103	427	427	7	0	0	340371	691	0	correct_rejection	NA	0
21	Correct	104	428	428	0	1	2	341079	692	1	hit	443	0
21	Correct	105	429	429	9	0	0	341788	691	0	correct_rejection	NA	0
21	Correct	106	430	430	8	0	0	342496	692	0	correct_rejection	NA	0
21	Correct	107	431	431	7	0	0	343205	692	0	correct_rejection	NA	0
21	Correct	108	432	432	9	0	0	343913	692	0	correct_rejection	NA	0
21	Correct	109	433	433	8	0	0	344622	692	0	correct_rejection	NA	0
21	Correct	110	434	434	7	0	0	345331	691	0	correct_rejection	NA	0
21	Correct	111	435	435	0	1	3	346039	692	1	hit	374	0
21	Correct	112	436	436	7	0	0	346748	691	0	correct_rejection	NA	0
21	Correct	113	437	437	8	0	0	347456	692	0	correct_rejection	NA	0
21	Correct	114	438	438	9	0	0	348165	692	0	correct_rejection	NA	0
21	Correct	115	439	439	7	0	0	348873	692	0	correct_rejection	NA	0
21	Correct	116	440	440	0	1	1	349582	692	1	hit	408	0
21	Correct	117	441	441	8	0	0	350291	691	0	correct_rejection	NA	0
21	Correct	118	442	442	9	0	0	350999	692	0	correct_rejection	NA	0
21	Correct	119	443	443	7	0	0	351708	691	0	correct_rejection	NA	0
21	Correct	120	444	444	0	1	1	352416	692	1	hit	537	0
21	Correct	121	445	445	8	0	0	353125	692	0	correct_rejection	NA	0
21	Correct	122	446	446	9	0	0	353833	692	0	correct_rejection	NA	0
21	Correct	123	447	447	4	0	0	354542	692	0	correct_rejection	NA	0
21	Correct	124	448	448	5	0	0	355251	691	0	correct_rejection	NA	0
21	Correct	125	449	449	6	0	0	355959	692	0	correct_rejection	NA	0
21	Correct	126	450	450	4	0	0	356668	691	0	correct_rejection	NA	0
21	Correct	127	451	451	0	1	1	357376	692	1	hit	424	0
21	Correct	128	452	452	5	0	0	358085	691	0	correct_rejection	NA	0
21	Correct	129	453	453	6	0	0	358793	692	0	correct_rejection	NA	0
21	Correct	130	454	454	4	0	0	359502	692	0	correct_rejection	NA	0
21	Correct	131	455	455	5	0	0	360210	692	0	correct_rejection	NA	0
21	Correct	132	456	456	6	0	0	360919	692	0	correct_rejection	NA	0
21	Correct	133	457	457	6	0	0	361628	691	0	correct_rejection	NA	0
21	Correct	134	458	458	5	0	0	362336	692	0	correct_rejection	NA	0
21	Correct	135	459	459	0	1	1	363045	691	1	hit	400	0
21	Correct	136	460	460	4	0	0	363753	692	0	correct_rejection	NA	0
21	Correct	137	461	461	6	0	0	364462	692	0	correct_rejection	NA	0
21	Correct	138	462	462	5	0	0	365170	692	0	correct_rejection	NA	0
21	Correct	139	463	463	4	0	0	365879	692	0	correct_rejection	NA	0
21	Correct	140	464	464	6	0	0	366588	691	0	correct_rejection	NA	0
21	Correct	141	465	465	5	0	0	367296	692	0	correct_rejection	NA	0
21	Correct	142	466	466	4	0	0	368005	691	0	correct_rejection	NA	0
21	Correct	143	467	467	9	0	0	368713	692	0	correct_rejection	NA	0
21	Correct	144	468	468	8	0	0	369422	692	0	correct_rejection	NA	0
21	Correct	145	469	469	7	0	0	370130	692	0	correct_rejection	NA	0
21	Correct	146	470	470	9	0	0	370839	692	0	correct_rejection	NA	0
21	Correct	147	471	471	0	1	1	371548	691	1	hit	518	0
21	Correct	148	472	472	8	0	0	372256	692	0	correct_rejection	NA	0
21	Correct	149	473	473	7	0	0	372965	691	0	correct_rejection	NA	0
21	Correct	150	474	474	9	0	0	373673	692	0	correct_rejection	NA	0
21	Correct	151	475	475	8	0	0	374382	692	0	correct_rejection	NA	0
21	Correct	152	476	476	7	0	0	375090	692	0	correct_rejection	NA	0
21	Correct	153	477	477	7	0	0	375799	692	0	correct_rejection	NA	0
21	Correct	154	478	478	8	0	0	376508	691	0	correct_rejection	NA	0
21	Correct	155	479	479	9	0	0	377216	692	0	correct_rejection	NA	0
21	Correct	156	480	480	0	1	2	377925	691	1	hit	320	0
21	Correct	157	481	481	7	0	0	378633	692	0	correct_rejection	NA	0
21	Correct	158	482	482	8	0	0	379342	692	0	correct_rejection	NA	0
21	Correct	159	483	483	9	0	0	380050	692	0	correct_rejection	NA	0
21	Correct	160	484	484	7	0	0	380759	692	0	correct_rejection	NA	0
21	Correct	161	485	485	8	0	0	381468	691	0	correct_rejection	NA	0
21	Correct	162	486	486	9	0	0	382176	692	0	correct_rejection	NA	0
21	Triplet	1	487	487	6	0	0	391521	692	0	correct_rejection	NA	7219
21	Triplet	2	488	488	5	0	0	392229	692	0	correct_rejection	NA	0
21	Triplet	3	489	489	4	0	0	392938	692	0	correct_rejection	NA	0
21	Triplet	4	490	490	4	0	0	393647	691	0	correct_rejection	NA	0
21	Triplet	5	491	491	5	0	0	394355	692	0	correct_rejection	NA	0
21	Triplet	6	492	492	6	0	0	395064	691	0	correct_rejection	NA	0
21	Triplet	7	493	493	9	0	0	395772	692	0	correct_rejection	NA	0
21	Triplet	8	494	494	8	0	0	396481	692	0	correct_rejection	NA	0
21	Triplet	9	495	495	7	0	0	397189	692	0	correct_rejection	NA	0
21	Triplet	10	496	496	0	1	2	397898	692	1	hit	422	0
21	Triplet	11	497	497	4	0	0	398607	691	0	correct_rejection	NA	0
21	Triplet	12	498	498	5	0	0	399315	692	0	correct_rejection	NA	0
21	Triplet	13	499	499	0	1	1	400024	691	1	hit	436	0
21	Triplet	14	500	500	6	0	0	400732	692	0	correct_rejection	NA	0
21	Triplet	15	501	501	6	0	0	401441	692	0	correct_rejection	NA	0
21	Triplet	16	502	502	5	0	0	402149	692	0	correct_rejection	NA	0
21	Triplet	17	503	503	0	1	1	402858	692	1	hit	389	0
21	Triplet	18	504	504	4	0	0	403567	691	0	correct_rejection	NA	0
21	Triplet	19	505	505	6	0	0	404275	692	0	correct_rejection	NA	0
21	Triplet	20	506	506	5	0	0	404984	691	0	correct_rejection	NA	0
21	Triplet	21	507	507	4	0	0	405692	692	0	correct_rejection	NA	0
21	Triplet	22	508	508	7	0	0	406401	691	0	correct_rejection	NA	0
21	Triplet	23	509	509	0	1	1	407109	692	1	hit	476	0
21	Triplet	24	510	510	8	0	0	407818	692	0	correct_rejection	NA	0
21	Triplet	25	511	511	9	0	0	408527	691	0	correct_rejection	NA	0
21	Triplet	26	512	512	6	0	0	409235	692	0	correct_rejection	NA	0
21	Triplet	27	513	513	0	1	1	409944	691	1	hit	417	0
21	Triplet	28	514	514	5	0	0	410652	692	0	correct_rejection	NA	0
21	Triplet	29	515	515	4	0	0	411361	691	0	correct_rejection	NA	0
21	Triplet	30	516	516	9	0	0	412069	692	0	correct_rejection	NA	0
21	Triplet	31	517	517	0	1	1	412778	692	1	hit	370	0
21	Triplet	32	518	518	8	0	0	413486	692	0	correct_rejection	NA	0
21	Triplet	33	519	519	7	0	0	414195	692	0	correct_rejection	NA	0
21	Triplet	34	520	520	9	0	0	414904	691	0	correct_rejection	NA	0
21	Triplet	35	521	521	8	0	0	415612	692	0	correct_rejection	NA	0
21	Triplet	36	522	522	0	1	1	416321	691	1	hit	395	0
21	Triplet	37	523	523	7	0	0	417029	692	0	correct_rejection	NA	0
21	Triplet	38	524	524	7	0	0	417738	692	0	correct_rejection	NA	0
21	Triplet	39	525	525	8	0	0	418446	692	0	correct_rejection	NA	0
21	Triplet	40	526	526	9	0	0	419155	692	0	correct_rejection	NA	0
21	Triplet	41	527	527	0	1	2	419864	691	1	hit	462	0
21	Triplet	42	528	528	4	0	0	420572	692	0	correct_rejection	NA	0
21	Triplet	43	529	529	5	0	0	421281	691	0	correct_rejection	NA	0
21	Triplet	44	530	530	6	0	0	421989	692	0	correct_rejection	NA	0
21	Triplet	45	531	531	4	0	0	422698	692	0	correct_rejection	NA	0
21	Triplet	46	532	532	5	0	0	423406	692	0	correct_rejection	NA	0
21	Triplet	47	533	533	6	0	0	424115	692	0	correct_rejection	NA	0
21	Triplet	48	534	534	7	0	0	424824	691	0	correct_rejection	NA	0
21	Triplet	49	535	535	8	0	0	425532	692	0	correct_rejection	NA	0
21	Triplet	50	536	536	9	0	0	426241	691	0	correct_rejection	NA	0
21	Triplet	51	537	537	7	0	0	426949	692	0	correct_rejection	NA	0
21	Triplet	52	538	538	8	0	0	427658	692	0	correct_rejection	NA	0
21	Triplet	53	539	539	0	1	1	428366	692	1	hit	421	0
21	Triplet	54	540	540	9	0	0	429075	692	0	correct_rejection	NA	0
21	Triplet	55	541	541	9	0	0	429784	691	0	correct_rejection	NA	0
21	Triplet	56	542	542	8	0	0	430492	692	0	correct_rejection	NA	0
21	Triplet	57	543	543	7	0	0	431201	691	0	correct_rejection	NA	0
21	Triplet	58	544	544	4	0	0	431909	692	0	correct_rejection	NA	0
21	Triplet	59	545	545	5	0	0	432618	692	0	correct_rejection	NA	0
21	Triplet	60	546	546	0	1	1	433326	692	1	hit	460	0
21	Triplet	61	547	547	6	0	0	434035	692	0	correct_rejection	NA	0
21	Triplet	62	548	548	7	0	0	434744	691	0	correct_rejection	NA	0
21	Triplet	63	549	549	8	0	0	435452	692	0	correct_rejection	NA	0
21	Triplet	64	550	550	9	0	0	436161	691	0	correct_rejection	NA	0
21	Triplet	65	551	551	6	0	0	436869	692	0	correct_rejection	NA	0
21	Triplet	66	552	552	0	1	1	437578	691	1	hit	446	0
21	Triplet	67	553	553	5	0	0	438286	692	0	correct_rejection	NA	0
21	Triplet	68	554	554	4	0	0	438995	692	0	correct_rejection	NA	0
21	Triplet	69	555	555	6	0	0	439704	691	0	correct_rejection	NA	0
21	Triplet	70	556	556	5	0	0	440412	692	0	correct_rejection	NA	0
21	Triplet	71	557	557	4	0	0	441121	691	0	correct_rejection	NA	0
21	Triplet	72	558	558	4	0	0	441829	692	0	correct_rejection	NA	0
21	Triplet	73	559	559	5	0	0	442538	691	0	correct_rejection	NA	0
21	Triplet	74	560	560	6	0	0	443246	692	0	correct_rejection	NA	0
21	Triplet	75	561	561	4	0	0	443955	692	0	correct_rejection	NA	0
21	Triplet	76	562	562	5	0	0	444663	692	0	correct_rejection	NA	0
21	Triplet	77	563	563	6	0	0	445372	692	0	correct_rejection	NA	0
21	Triplet	78	564	564	0	1	2	446081	691	1	hit	339	0
21	Triplet	79	565	565	6	0	0	446789	692	0	correct_rejection	NA	0
21	Triplet	80	566	566	5	0	0	447498	691	0	correct_rejection	NA	0
21	Triplet	81	567	567	4	0	0	448206	692	0	correct_rejection	NA	0
21	Triplet	82	568	568	7	0	0	448915	692	0	correct_rejection	NA	0
21	Triplet	83	569	569	0	1	1	449623	692	1	hit	370	0
21	Triplet	84	570	570	8	0	0	450332	692	0	correct_rejection	NA	0
21	Triplet	85	571	571	9	0	0	451041	691	0	correct_rejection	NA	0
21	Triplet	86	572	572	0	1	2	451749	692	1	hit	476	0
21	Triplet	87	573	573	9	0	0	452458	691	0	correct_rejection	NA	0
21	Triplet	88	574	574	8	0	0	453166	692	0	correct_rejection	NA	0
21	Triplet	89	575	575	0	1	1	453875	692	1	hit	321	0
21	Triplet	90	576	576	7	0	0	454583	692	0	correct_rejection	NA	0
21	Triplet	91	577	577	4	0	0	455292	692	0	correct_rejection	NA	0
21	Triplet	92	578	578	5	0	0	456001	691	0	correct_rejection	NA	0
21	Triplet	93	579	579	6	0	0	456709	692	0	correct_rejection	NA	0
21	Triplet	94	580	580	9	0	0	457418	691	0	correct_rejection	NA	0
21	Triplet	95	581	581	8	0	0	458126	692	0	correct_rejection	NA	0
21	Triplet	96	582	582	7	0	0	458835	692	0	correct_rejection	NA	0
21	Triplet	97	583	583	9	0	0	459543	692	0	correct_rejection	NA	0
21	Triplet	98	584	584	8	0	0	460252	692	0	correct_rejection	NA	0
21	Triplet	99	585	585	0	1	1	460961	691	1	hit	416	0
21	Triplet	100	586	586	7	0	0	461669	692	0	correct_rejection	NA	0
21	Triplet	101	587	587	6	0	0	462378	691	0	correct_rejection	NA	0
21	Triplet	102	588	588	5	0	0	463086	692	0	correct_rejection	NA	0
21	Triplet	103	589	589	4	0	0	463795	692	0	correct_rejection	NA	0
21	Triplet	104	590	590	9	0	0	464503	692	0	correct_rejection	NA	0
21	Triplet	105	591	591	8	0	0	465212	692	0	correct_rejection	NA	0
21	Triplet	106	592	592	7	0	0	465921	691	0	correct_rejection	NA	0
21	Triplet	107	593	593	7	0	0	466629	692	0	correct_rejection	NA	0
21	Triplet	108	594	594	8	0	0	467338	691	0	correct_rejection	NA	0
21	Triplet	109	595	595	9	0	0	468046	692	0	correct_rejection	NA	0
21	Triplet	110	596	596	7	0	0	468755	691	0	correct_rejection	NA	0
21	Triplet	111	597	597	8	0	0	469463	692	0	correct_rejection	NA	0
21	Triplet	112	598	598	9	0	0	470172	692	0	correct_rejection	NA	0
21	Triplet	113	599	599	6	0	0	470881	691	0	correct_rejection	NA	0
21	Triplet	114	600	600	5	0	0	471589	692	0	correct_rejection	NA	0
21	Triplet	115	601	601	4	0	0	472298	691	0	correct_rejection	NA	0
21	Triplet	116	602	602	0	1	2	473006	692	1	hit	346	0
21	Triplet	117	603	603	9	0	0	473715	691	0	correct_rejection	NA	0
21	Triplet	118	604	604	8	0	0	474423	692	0	correct_rejection	NA	0
21	Triplet	119	605	605	7	0	0	475132	692	0	correct_rejection	NA	0
21	Triplet	120	606	606	6	0	0	475840	692	0	correct_rejection	NA	0
21	Triplet	121	607	607	5	0	0	476549	692	0	correct_rejection	NA	0
21	Triplet	122	608	608	4	0	0	477258	691	0	correct_rejection	NA	0
21	Triplet	123	609	609	7	0	0	477966	692	0	correct_rejection	NA	0
21	Triplet	124	610	610	8	0	0	478675	691	0	correct_rejection	NA	0
21	Triplet	125	611	611	9	0	0	479383	692	0	correct_rejection	NA	0
21	Triplet	126	612	612	7	0	0	480092	692	0	correct_rejection	NA	0
21	Triplet	127	613	613	8	0	0	480800	692	0	correct_rejection	NA	0
21	Triplet	128	614	614	9	0	0	481509	692	0	correct_rejection	NA	0
21	Triplet	129	615	615	4	0	0	482218	691	0	correct_rejection	NA	0
21	Triplet	130	616	616	5	0	0	482926	692	0	correct_rejection	NA	0
21	Triplet	131	617	617	6	0	0	483635	691	0	correct_rejection	NA	0
21	Triplet	132	618	618	6	0	0	484343	692	0	correct_rejection	NA	0
21	Triplet	133	619	619	5	0	0	485052	692	0	correct_rejection	NA	0
21	Triplet	134	620	620	4	0	0	485760	692	0	correct_rejection	NA	0
21	Triplet	135	621	621	4	0	0	486469	692	0	correct_rejection	NA	0
21	Triplet	136	622	622	5	0	0	487178	691	0	correct_rejection	NA	0
21	Triplet	137	623	623	6	0	0	487886	692	0	correct_rejection	NA	0
21	Triplet	138	624	624	7	0	0	488595	691	0	correct_rejection	NA	0
21	Triplet	139	625	625	8	0	0	489303	692	0	correct_rejection	NA	0
21	Triplet	140	626	626	9	0	0	490012	692	0	correct_rejection	NA	0
21	Triplet	141	627	627	9	0	0	490720	692	0	correct_rejection	NA	0
21	Triplet	142	628	628	8	0	0	491429	692	0	correct_rejection	NA	0
21	Triplet	143	629	629	7	0	0	492138	691	0	correct_rejection	NA	0
21	Triplet	144	630	630	0	1	2	492846	692	1	hit	486	0
21	Triplet	145	631	631	9	0	0	493555	691	0	correct_rejection	NA	0
21	Triplet	146	632	632	8	0	0	494263	692	0	correct_rejection	NA	0
21	Triplet	147	633	633	7	0	0	494972	692	0	correct_rejection	NA	0
21	Triplet	148	634	634	4	0	0	495680	692	0	correct_rejection	NA	0
21	Triplet	149	635	635	5	0	0	496389	692	0	correct_rejection	NA	0
21	Triplet	150	636	636	6	0	0	497098	691	0	correct_rejection	NA	0
21	Triplet	151	637	637	4	0	0	497806	692	0	correct_rejection	NA	0
21	Triplet	152	638	638	5	0	0	498515	691	0	correct_rejection	NA	0
21	Triplet	153	639	639	6	0	0	499223	692	0	correct_rejection	NA	0
21	Triplet	154	640	640	9	0	0	499932	691	0	correct_rejection	NA	0
21	Triplet	155	641	641	8	0	0	500640	692	0	correct_rejection	NA	0
21	Triplet	156	642	642	7	0	0	501349	692	0	correct_rejection	NA	0
21	Triplet	157	643	643	7	0	0	502058	691	0	correct_rejection	NA	0
21	Triplet	158	644	644	8	0	0	502766	692	0	correct_rejection	NA	0
21	Triplet	159	645	645	9	0	0	503475	691	0	correct_rejection	NA	0
21	Triplet	160	646	646	6	0	0	504183	692	0	correct_rejection	NA	0
21	Triplet	161	647	647	5	0	0	504892	691	0	correct_rejection	NA	0
21	Triplet	162	648	648	4	0	0	505600	692	0	correct_rejection	NA	0
21	Nonet	1	163	649	4	0	0	515962	692	0	correct_rejection	NA	7659
21	Nonet	2	164	650	5	0	0	516671	691	0	correct_rejection	NA	0
21	Nonet	3	165	651	6	0	0	517379	692	0	correct_rejection	NA	0
21	Nonet	4	166	652	4	0	0	518088	692	0	correct_rejection	NA	0
21	Nonet	5	167	653	5	0	0	518796	692	0	correct_rejection	NA	0
21	Nonet	6	168	654	6	0	0	519505	692	0	correct_rejection	NA	0
21	Nonet	7	169	655	4	0	0	520214	691	0	correct_rejection	NA	0
21	Nonet	8	170	656	5	0	0	520922	692	0	correct_rejection	NA	0
21	Nonet	9	171	657	0	1	1	521631	691	1	hit	434	0
21	Nonet	10	172	658	6	0	0	522339	692	0	correct_rejection	NA	0
21	Nonet	11	173	659	4	0	0	523048	691	0	correct_rejection	NA	0
21	Nonet	12	174	660	5	0	0	523756	692	0	correct_rejection	NA	0
21	Nonet	13	175	661	6	0	0	524465	692	0	correct_rejection	NA	0
21	Nonet	14	176	662	4	0	0	525173	692	0	correct_rejection	NA	0
21	Nonet	15	177	663	5	0	0	525882	692	0	correct_rejection	NA	0
21	Nonet	16	178	664	6	0	0	526591	691	0	correct_rejection	NA	0
21	Nonet	17	179	665	4	0	0	527299	692	0	correct_rejection	NA	0
21	Nonet	18	180	666	5	0	0	528008	691	0	correct_rejection	NA	0
21	Nonet	19	181	667	6	0	0	528716	692	0	correct_rejection	NA	0
21	Nonet	20	182	668	7	0	0	529425	692	0	correct_rejection	NA	0
21	Nonet	21	183	669	8	0	0	530133	692	0	correct_rejection	NA	0
21	Nonet	22	184	670	9	0	0	530842	692	0	correct_rejection	NA	0
21	Nonet	23	185	671	7	0	0	531551	691	0	correct_rejection	NA	0
21	Nonet	24	186	672	8	0	0	532259	692	0	correct_rejection	NA	0
21	Nonet	25	187	673	9	0	0	532968	691	0	correct_rejection	NA	0
21	Nonet	26	188	674	7	0	0	533676	692	0	correct_rejection	NA	0
21	Nonet	27	189	675	0	1	1	534385	692	1	hit	634	0
21	Nonet	28	190	676	8	0	0	535093	692	0	correct_rejection	NA	0
21	Nonet	29	191	677	9	0	0	535802	692	0	correct_rejection	NA	0
21	Nonet	30	192	678	0	1	3	536511	691	1	hit	446	0
21	Nonet	31	193	679	7	0	0	537219	692	0	correct_rejection	NA	0
21	Nonet	32	194	680	8	0	0	537928	691	0	correct_rejection	NA	0
21	Nonet	33	195	681	9	0	0	538636	692	0	correct_rejection	NA	0
21	Nonet	34	196	682	7	0	0	539345	692	0	correct_rejection	NA	0
21	Nonet	35	197	683	0	1	1	540053	692	1	hit	350	0
21	Nonet	36	198	684	8	0	0	540762	692	0	correct_rejection	NA	0
21	Nonet	37	199	685	9	0	0	541471	691	0	correct_rejection	NA	0
21	Nonet	38	200	686	7	0	0	542179	692	0	correct_rejection	NA	0
21	Nonet	39	201	687	8	0	0	542888	691	0	correct_rejection	NA	0
21	Nonet	40	202	688	9	0	0	543596	692	0	correct_rejection	NA	0
21	Nonet	41	203	689	6	0	0	544305	692	0	correct_rejection	NA	0
21	Nonet	42	204	690	5	0	0	545013	692	0	correct_rejection	NA	0
21	Nonet	43	205	691	4	0	0	545722	692	0	correct_rejection	NA	0
21	Nonet	44	206	692	6	0	0	546431	691	0	correct_rejection	NA	0
21	Nonet	45	207	693	5	0	0	547139	692	0	correct_rejection	NA	0
21	Nonet	46	208	694	4	0	0	547848	691	0	correct_rejection	NA	0
21	Nonet	47	209	695	6	0	0	548556	692	0	correct_rejection	NA	0
21	Nonet	48	210	696	5	0	0	549265	692	0	correct_rejection	NA	0
21	Nonet	49	211	697	0	1	1	549973	692	1	hit	355	0
21	Nonet	50	212	698	4	0	0	550682	692	0	correct_rejection	NA	0
21	Nonet	51	213	699	6	0	0	551391	691	0	correct_rejection	NA	0
21	Nonet	52	214	700	5	0	0	552099	692	0	correct_rejection	NA	0
21	Nonet	53	215	701	4	0	0	552808	691	0	correct_rejection	NA	0
21	Nonet	54	216	702	6	0	0	553516	692	0	correct_rejection	NA	0
21	Nonet	55	217	703	0	1	1	554225	691	1	hit	430	0
21	Nonet	56	218	704	5	0	0	554933	692	0	correct_rejection	NA	0
21	Nonet	57	219	705	4	0	0	555642	692	0	correct_rejection	NA	0
21	Nonet	58	220	706	6	0	0	556350	692	0	correct_rejection	NA	0
21	Nonet	59	221	707	5	0	0	557059	692	0	correct_rejection	NA	0
21	Nonet	60	222	708	4	0	0	557768	691	0	correct_rejection	NA	0
21	Nonet	61	223	709	4	0	0	558476	692	0	correct_rejection	NA	0
21	Nonet	62	224	710	0	1	1	559185	691	1	hit	581	0
21	Nonet	63	225	711	5	0	0	559893	692	0	correct_rejection	NA	0
21	Nonet	64	226	712	6	0	0	560602	692	0	correct_rejection	NA	0
21	Nonet	65	227	713	4	0	0	561310	692	0	correct_rejection	NA	0
21	Nonet	66	228	714	5	0	0	562019	692	0	correct_rejection	NA	0
21	Nonet	67	229	715	6	0	0	562728	691	0	correct_rejection	NA	0
21	Nonet	68	230	716	4	0	0	563436	692	0	correct_rejection	NA	0
21	Nonet	69	231	717	5	0	0	564145	691	0	correct_rejection	NA	0
21	Nonet	70	232	718	6	0	0	564853	692	0	correct_rejection	NA	0
21	Nonet	71	233	719	6	0	0	565562	692	0	correct_rejection	NA	0
21	Nonet	72	234	720	5	0	0	566270	692	0	correct_rejection	NA	0
21	Nonet	73	235	721	4	0	0	566979	692	0	correct_rejection	NA	0
21	Nonet	74	236	722	6	0	0	567688	691	0	correct_rejection	NA	0
21	Nonet	75	237	723	0	1	1	568396	692	1	hit	442	0
21	Nonet	76	238	724	5	0	0	569105	691	0	correct_rejection	NA	0
21	Nonet	77	239	725	4	0	0	569813	692	0	correct_rejection	NA	0
21	Nonet	78	240	726	0	1	2	570522	692	1	hit	376	0
21	Nonet	79	241	727	6	0	0	571230	692	0	correct_rejection	NA	0
21	Nonet	80	242	728	5	0	0	571939	692	0	correct_rejection	NA	0
21	Nonet	81	243	729	4	0	0	572648	691	0	correct_rejection	NA	0
21	Nonet	82	244	730	9	0	0	573356	692	0	correct_rejection	NA	0
21	Nonet	83	245	731	0	1	1	574065	691	1	hit	473	0
21	Nonet	84	246	732	8	0	0	574773	692	0	correct_rejection	NA	0
21	Nonet	85	247	733	7	0	0	575482	692	0	correct_rejection	NA	0
21	Nonet	86	248	734	9	0	0	576190	692	0	correct_rejection	NA	0
21	Nonet	87	249	735	8	0	0	576899	692	0	correct_rejection	NA	0
21	Nonet	88	250	736	7	0	0	577608	691	0	correct_rejection	NA	0
21	Nonet	89	251	737	9	0	0	578316	692	0	correct_rejection	NA	0
21	Nonet	90	252	738	8	0	0	579025	691	0	correct_rejection	NA	0
21	Nonet	91	253	739	7	0	0	579733	692	0	correct_rejection	NA	0
21	Nonet	92	254	740	4	0	0	580442	691	0	correct_rejection	NA	0
21	Nonet	93	255	741	5	0	0	581150	692	0	correct_rejection	NA	0
21	Nonet	94	256	742	6	0	0	581859	692	0	correct_rejection	NA	0
21	Nonet	95	257	743	0	1	2	582568	691	1	hit	324	0
21	Nonet	96	258	744	4	0	0	583276	692	0	correct_rejection	NA	0
21	Nonet	97	259	745	5	0	0	583985	691	0	correct_rejection	NA	0
21	Nonet	98	260	746	6	0	0	584693	692	0	correct_rejection	NA	0
21	Nonet	99	261	747	4	0	0	585402	691	0	correct_rejection	NA	0
21	Nonet	100	262	748	0	1	1	586110	692	1	hit	381	0
21	Nonet	101	263	749	5	0	0	586819	692	0	correct_rejection	NA	0
21	Nonet	102	264	750	6	0	0	587527	692	0	correct_rejection	NA	0
21	Nonet	103	265	751	9	0	0	588236	692	0	correct_rejection	NA	0
21	Nonet	104	266	752	0	1	1	588945	691	1	hit	448	0
21	Nonet	105	267	753	8	0	0	589653	692	0	correct_rejection	NA	0
21	Nonet	106	268	754	7	0	0	590362	691	0	correct_rejection	NA	0
21	Nonet	107	269	755	9	0	0	591070	692	0	correct_rejection	NA	0
21	Nonet	108	270	756	0	1	1	591779	692	1	hit	389	0
21	Nonet	109	271	757	8	0	0	592487	692	0	correct_rejection	NA	0
21	Nonet	110	272	758	7	0	0	593196	692	0	correct_rejection	NA	0
21	Nonet	111	273	759	9	0	0	593905	691	0	correct_rejection	NA	0
21	Nonet	112	274	760	8	0	0	594613	692	0	correct_rejection	NA	0
21	Nonet	113	275	761	7	0	0	595322	691	0	correct_rejection	NA	0
21	Nonet	114	276	762	0	1	3	596030	692	1	hit	380	0
21	Nonet	115	277	763	7	0	0	596739	692	0	correct_rejection	NA	0
21	Nonet	116	278	764	8	0	0	597447	692	0	correct_rejection	NA	0
21	Nonet	117	279	765	9	0	0	598156	692	0	correct_rejection	NA	0
21	Nonet	118	280	766	7	0	0	598865	691	0	correct_rejection	NA	0
21	Nonet	119	281	767	8	0	0	599573	692	0	correct_rejection	NA	0
21	Nonet	120	282	768	9	0	0	600282	691	0	correct_rejection	NA	0
21	Nonet	121	283	769	7	0	0	600990	692	0	correct_rejection	NA	0
21	Nonet	122	284	770	8	0	0	601699	692	0	correct_rejection	NA	0
21	Nonet	123	285	771	9	0	0	602407	692	0	correct_rejection	NA	0
21	Nonet	124	286	772	9	0	0	603116	692	0	correct_rejection	NA	0
21	Nonet	125	287	773	8	0	0	603825	691	0	correct_rejection	NA	0
21	Nonet	126	288	774	7	0	0	604533	692	0	correct_rejection	NA	0
21	Nonet	127	289	775	9	0	0	605242	691	0	correct_rejection	NA	0
21	Nonet	128	290	776	8	0	0	605950	692	0	correct_rejection	NA	0
21	Nonet	129	291	777	7	0	0	606659	692	0	correct_rejection	NA	0
21	Nonet	130	292	778	9	0	0	607367	692	0	correct_rejection	NA	0
21	Nonet	131	293	779	8	0	0	608076	692	0	correct_rejection	NA	0
21	Nonet	132	294	780	7	0	0	608785	691	0	correct_rejection	NA	0
21	Nonet	133	295	781	0	1	3	609493	692	1	hit	473	0
21	Nonet	134	296	782	9	0	0	610202	691	0	correct_rejection	NA	0
21	Nonet	135	297	783	8	0	0	610910	692	0	correct_rejection	NA	0
21	Nonet	136	298	784	7	0	0	611619	691	0	correct_rejection	NA	0
21	Nonet	137	299	785	9	0	0	612327	692	0	correct_rejection	NA	0
21	Nonet	138	300	786	8	0	0	613036	692	0	correct_rejection	NA	0
21	Nonet	139	301	787	7	0	0	613745	691	0	correct_rejection	NA	0
21	Nonet	140	302	788	9	0	0	614453	692	0	correct_rejection	NA	0
21	Nonet	141	303	789	8	0	0	615162	691	0	correct_rejection	NA	0
21	Nonet	142	304	790	7	0	0	615870	692	0	correct_rejection	NA	0
21	Nonet	143	305	791	6	0	0	616579	691	0	correct_rejection	NA	0
21	Nonet	144	306	792	5	0	0	617287	692	0	correct_rejection	NA	0
21	Nonet	145	307	793	4	0	0	617996	692	0	correct_rejection	NA	0
21	Nonet	146	308	794	0	1	2	618704	692	1	hit	354	0
21	Nonet	147	309	795	6	0	0	619413	692	0	correct_rejection	NA	0
21	Nonet	148	310	796	5	0	0	620122	691	0	correct_rejection	NA	0
21	Nonet	149	311	797	4	0	0	620830	692	0	correct_rejection	NA	0
21	Nonet	150	312	798	6	0	0	621539	691	0	correct_rejection	NA	0
21	Nonet	151	313	799	5	0	0	622247	692	0	correct_rejection	NA	0
21	Nonet	152	314	800	4	0	0	622956	692	0	correct_rejection	NA	0
21	Nonet	153	315	801	7	0	0	623664	692	0	correct_rejection	NA	0
21	Nonet	154	316	802	8	0	0	624373	692	0	correct_rejection	NA	0
21	Nonet	155	317	803	0	1	1	625082	691	1	hit	387	0
21	Nonet	156	318	804	9	0	0	625790	692	0	correct_rejection	NA	0
21	Nonet	157	319	805	7	0	0	626499	691	0	correct_rejection	NA	0
21	Nonet	158	320	806	8	0	0	627207	692	0	correct_rejection	NA	0
21	Nonet	159	321	807	9	0	0	627916	692	0	correct_rejection	NA	0
21	Nonet	160	322	808	7	0	0	628624	692	0	correct_rejection	NA	0
21	Nonet	161	323	809	8	0	0	629333	692	0	correct_rejection	NA	0
21	Nonet	162	324	810	9	0	0	630042	691	0	correct_rejection	NA	0
trigger nr 622 at 632255
trigger nr 629 at 709798
21	Triplet	1	649	811	4	0	0	717554	692	0	correct_rejection	NA	7719
21	Triplet	2	650	812	5	0	0	718262	692	0	correct_rejection	NA	0
21	Triplet	3	651	813	6	0	0	718971	692	0	correct_rejection	NA	0
21	Triplet	4	652	814	6	0	0	719680	691	0	correct_rejection	NA	0
21	Triplet	5	653	815	5	0	0	720388	692	0	correct_rejection	NA	0
21	Triplet	6	654	816	4	0	0	721097	691	0	correct_rejection	NA	0
21	Triplet	7	655	817	4	0	0	721805	692	0	correct_rejection	NA	0
21	Triplet	8	656	818	5	0	0	722514	692	0	correct_rejection	NA	0
21	Triplet	9	657	819	6	0	0	723222	692	0	correct_rejection	NA	0
21	Triplet	10	658	820	9	0	0	723931	692	0	correct_rejection	NA	0
21	Triplet	11	659	821	0	1	1	724640	691	1	hit	365	0
21	Triplet	12	660	822	8	0	0	725348	692	0	correct_rejection	NA	0
21	Triplet	13	661	823	7	0	0	726057	691	0	correct_rejection	NA	0
21	Triplet	14	662	824	6	0	0	726765	692	0	correct_rejection	NA	0
21	Triplet	15	663	825	0	1	1	727474	692	1	hit	354	0
21	Triplet	16	664	826	5	0	0	728182	692	0	correct_rejection	NA	0
21	Triplet	17	665	827	4	0	0	728891	692	0	correct_rejection	NA	0
21	Triplet	18	666	828	6	0	0	729600	691	0	correct_rejection	NA	0
21	Triplet	19	667	829	5	0	0	730308	692	0	correct_rejection	NA	0
21	Triplet	20	668	830	4	0	0	731017	691	0	correct_rejection	NA	0
21	Triplet	21	669	831	7	0	0	731725	692	0	correct_rejection	NA	0
21	Triplet	22	670	832	8	0	0	732434	692	0	correct_rejection	NA	0
21	Triplet	23	671	833	9	0	0	733142	692	0	correct_rejection	NA	0
21	Triplet	24	672	834	6	0	0	733851	692	0	correct_rejection	NA	0
21	Triplet	25	673	835	0	1	1	734560	691	1	hit	376	0
21	Triplet	26	674	836	5	0	0	735268	692	0	correct_rejection	NA	0
21	Triplet	27	675	837	4	0	0	735977	691	0	correct_rejection	NA	0
21	Triplet	28	676	838	9	0	0	736685	692	0	correct_rejection	NA	0
21	Triplet	29	677	839	8	0	0	737394	692	0	correct_rejection	NA	0
21	Triplet	30	678	840	7	0	0	738102	692	0	correct_rejection	NA	0
21	Triplet	31	679	841	7	0	0	738811	692	0	correct_rejection	NA	0
21	Triplet	32	680	842	8	0	0	739520	691	0	correct_rejection	NA	0
21	Triplet	33	681	843	9	0	0	740228	692	0	correct_rejection	NA	0
21	Triplet	34	682	844	4	0	0	740937	691	0	correct_rejection	NA	0
21	Triplet	35	683	845	5	0	0	741645	692	0	correct_rejection	NA	0
21	Triplet	36	684	846	6	0	0	742354	691	0	correct_rejection	NA	0
21	Triplet	37	685	847	4	0	0	743062	692	0	correct_rejection	NA	0
21	Triplet	38	686	848	5	0	0	743771	692	0	correct_rejection	NA	0
21	Triplet	39	687	849	0	1	1	744479	692	1	hit	347	0
21	Triplet	40	688	850	6	0	0	745188	692	0	correct_rejection	NA	0
21	Triplet	41	689	851	7	0	0	745897	691	0	correct_rejection	NA	0
21	Triplet	42	690	852	8	0	0	746605	692	0	correct_rejection	NA	0
21	Triplet	43	691	853	9	0	0	747314	691	0	correct_rejection	NA	0
21	Triplet	44	692	854	7	0	0	748022	692	0	correct_rejection	NA	0
21	Triplet	45	693	855	8	0	0	748731	692	0	correct_rejection	NA	0
21	Triplet	46	694	856	9	0	0	749439	692	0	correct_rejection	NA	0
21	Triplet	47	695	857	9	0	0	750148	692	0	correct_rejection	NA	0
21	Triplet	48	696	858	8	0	0	750857	691	0	correct_rejection	NA	0
21	Triplet	49	697	859	0	1	1	751565	692	1	hit	519	0
21	Triplet	50	698	860	7	0	0	752274	691	0	correct_rejection	NA	0
21	Triplet	51	699	861	9	0	0	752982	692	0	correct_rejection	NA	0
21	Triplet	52	700	862	8	0	0	753691	692	0	correct_rejection	NA	0
21	Triplet	53	701	863	7	0	0	754399	692	0	correct_rejection	NA	0
21	Triplet	54	702	864	7	0	0	755108	692	0	correct_rejection	NA	0
21	Triplet	55	703	865	0	1	1	755817	691	1	hit	512	0
21	Triplet	56	704	866	8	0	0	756525	692	0	correct_rejection	NA	0
21	Triplet	57	705	867	9	0	0	757234	691	0	correct_rejection	NA	0
21	Triplet	58	706	868	7	0	0	757942	692	0	correct_rejection	NA	0
21	Triplet	59	707	869	8	0	0	758651	692	0	correct_rejection	NA	0
21	Triplet	60	708	870	0	1	1	759359	692	1	hit	501	0
21	Triplet	61	709	871	9	0	0	760068	692	0	correct_rejection	NA	0
21	Triplet	62	710	872	6	0	0	760777	691	0	correct_rejection	NA	0
21	Triplet	63	711	873	5	0	0	761485	692	0	correct_rejection	NA	0
21	Triplet	64	712	874	4	0	0	762194	691	0	correct_rejection	NA	0
21	Triplet	65	713	875	6	0	0	762902	692	0	correct_rejection	NA	0
21	Triplet	66	714	876	5	0	0	763611	692	0	correct_rejection	NA	0
21	Triplet	67	715	877	4	0	0	764319	692	0	correct_rejection	NA	0
21	Triplet	68	716	878	0	1	2	765028	692	1	hit	359	0
21	Triplet	69	717	879	4	0	0	765737	691	0	correct_rejection	NA	0
21	Triplet	70	718	880	5	0	0	766445	692	0	correct_rejection	NA	0
21	Triplet	71	719	881	6	0	0	767154	691	0	correct_rejection	NA	0
21	Triplet	72	720	882	4	0	0	767862	692	0	correct_rejection	NA	0
21	Triplet	73	721	883	5	0	0	768571	692	0	correct_rejection	NA	0
21	Triplet	74	722	884	6	0	0	769279	692	0	correct_rejection	NA	0
21	Triplet	75	723	885	6	0	0	769988	692	0	correct_rejection	NA	0
21	Triplet	76	724	886	5	0	0	770697	691	0	correct_rejection	NA	0
21	Triplet	77	725	887	0	1	1	771405	692	1	hit	331	0
21	Triplet	78	726	888	4	0	0	772114	691	0	correct_rejection	NA	0
21	Triplet	79	727	889	7	0	0	772822	692	0	correct_rejection	NA	0
21	Triplet	80	728	890	8	0	0	773531	691	0	correct_rejection	NA	0
21	Triplet	81	729	891	9	0	0	774239	692	0	correct_rejection	NA	0
21	Triplet	82	730	892	4	0	0	774948	692	0	correct_rejection	NA	0
21	Triplet	83	731	893	5	0	0	775656	692	0	correct_rejection	NA	0
21	Triplet	84	732	894	6	0	0	776365	692	0	correct_rejection	NA	0
21	Triplet	85	733	895	9	0	0	777074	691	0	correct_rejection	NA	0
21	Triplet	86	734	896	8	0	0	777782	692	0	correct_rejection	NA	0
21	Triplet	87	735	897	7	0	0	778491	691	0	correct_rejection	NA	0
21	Triplet	88	736	898	9	0	0	779199	692	0	correct_rejection	NA	0
21	Triplet	89	737	899	8	0	0	779908	692	0	correct_rejection	NA	0
21	Triplet	90	738	900	7	0	0	780616	692	0	correct_rejection	NA	0
21	Triplet	91	739	901	7	0	0	781325	692	0	correct_rejection	NA	0
21	Triplet	92	740	902	8	0	0	782034	691	0	correct_rejection	NA	0
21	Triplet	93	741	903	9	0	0	782742	692	0	correct_rejection	NA	0
21	Triplet	94	742	904	9	0	0	783451	691	0	correct_rejection	NA	0
21	Triplet	95	743	905	8	0	0	784159	692	0	correct_rejection	NA	0
21	Triplet	96	744	906	7	0	0	784868	692	0	correct_rejection	NA	0
21	Triplet	97	745	907	6	0	0	785576	692	0	correct_rejection	NA	0
21	Triplet	98	746	908	5	0	0	786285	692	0	correct_rejection	NA	0
21	Triplet	99	747	909	4	0	0	786994	691	0	correct_rejection	NA	0
21	Triplet	100	748	910	9	0	0	787702	692	0	correct_rejection	NA	0
21	Triplet	101	749	911	8	0	0	788411	691	0	correct_rejection	NA	0
21	Triplet	102	750	912	0	1	1	789119	692	1	hit	331	0
21	Triplet	103	751	913	7	0	0	789828	692	0	correct_rejection	NA	0
21	Triplet	104	752	914	4	0	0	790536	692	0	correct_rejection	NA	0
21	Triplet	105	753	915	5	0	0	791245	692	0	correct_rejection	NA	0
21	Triplet	106	754	916	6	0	0	791954	691	0	correct_rejection	NA	0
21	Triplet	107	755	917	7	0	0	792662	692	0	correct_rejection	NA	0
21	Triplet	108	756	918	8	0	0	793371	691	0	correct_rejection	NA	0
21	Triplet	109	757	919	9	0	0	794079	692	0	correct_rejection	NA	0
21	Triplet	110	758	920	0	1	2	794788	692	1	hit	329	0
21	Triplet	111	759	921	9	0	0	795496	692	0	correct_rejection	NA	0
21	Triplet	112	760	922	8	0	0	796205	692	0	correct_rejection	NA	0
21	Triplet	113	761	923	7	0	0	796914	691	0	correct_rejection	NA	0
21	Triplet	114	762	924	4	0	0	797622	692	0	correct_rejection	NA	0
21	Triplet	115	763	925	5	0	0	798331	691	0	correct_rejection	NA	0
21	Triplet	116	764	926	6	0	0	799039	692	0	correct_rejection	NA	0
21	Triplet	117	765	927	0	1	2	799748	691	1	hit	480	0
21	Triplet	118	766	928	4	0	0	800456	692	0	correct_rejection	NA	0
21	Triplet	119	767	929	5	0	0	801165	692	0	correct_rejection	NA	0
21	Triplet	120	768	930	6	0	0	801874	691	0	correct_rejection	NA	0
21	Triplet	121	769	931	9	0	0	802582	692	0	correct_rejection	NA	0
21	Triplet	122	770	932	8	0	0	803291	691	0	correct_rejection	NA	0
21	Triplet	123	771	933	0	1	1	803999	692	1	hit	427	0
21	Triplet	124	772	934	7	0	0	804708	691	0	correct_rejection	NA	0
21	Triplet	125	773	935	7	0	0	805416	692	0	correct_rejection	NA	0
21	Triplet	126	774	936	8	0	0	806125	692	0	correct_rejection	NA	0
21	Triplet	127	775	937	9	0	0	806833	692	0	correct_rejection	NA	0
21	Triplet	128	776	938	0	1	2	807542	692	1	hit	351	0
21	Triplet	129	777	939	6	0	0	808251	691	0	correct_rejection	NA	0
21	Triplet	130	778	940	5	0	0	808959	692	0	correct_rejection	NA	0
21	Triplet	131	779	941	4	0	0	809668	691	0	correct_rejection	NA	0
21	Triplet	132	780	942	7	0	0	810376	692	0	correct_rejection	NA	0
21	Triplet	133	781	943	8	0	0	811085	692	0	correct_rejection	NA	0
21	Triplet	134	782	944	9	0	0	811793	692	0	correct_rejection	NA	0
21	Triplet	135	783	945	7	0	0	812502	692	0	correct_rejection	NA	0
21	Triplet	136	784	946	8	0	0	813211	691	0	correct_rejection	NA	0
21	Triplet	137	785	947	9	0	0	813919	692	0	correct_rejection	NA	0
21	Triplet	138	786	948	4	0	0	814628	691	0	correct_rejection	NA	0
21	Triplet	139	787	949	0	1	1	815336	692	1	hit	402	0
21	Triplet	140	788	950	5	0	0	816045	692	0	correct_rejection	NA	0
21	Triplet	141	789	951	6	0	0	816753	692	0	correct_rejection	NA	0
21	Triplet	142	790	952	0	1	2	817462	692	1	hit	409	0
21	Triplet	143	791	953	6	0	0	818171	691	0	correct_rejection	NA	0
21	Triplet	144	792	954	5	0	0	818879	692	0	correct_rejection	NA	0
21	Triplet	145	793	955	4	0	0	819588	691	0	correct_rejection	NA	0
21	Triplet	146	794	956	6	0	0	820296	692	0	correct_rejection	NA	0
21	Triplet	147	795	957	5	0	0	821005	692	0	correct_rejection	NA	0
21	Triplet	148	796	958	4	0	0	821713	692	0	correct_rejection	NA	0
21	Triplet	149	797	959	0	1	2	822422	692	1	hit	334	0
21	Triplet	150	798	960	9	0	0	823131	691	0	correct_rejection	NA	0
21	Triplet	151	799	961	8	0	0	823839	692	0	correct_rejection	NA	0
21	Triplet	152	800	962	7	0	0	824548	691	0	correct_rejection	NA	0
21	Triplet	153	801	963	0	1	2	825256	692	1	hit	491	0
21	Triplet	154	802	964	9	0	0	825965	692	0	correct_rejection	NA	0
21	Triplet	155	803	965	8	0	0	826673	692	0	correct_rejection	NA	0
21	Triplet	156	804	966	7	0	0	827382	692	0	correct_rejection	NA	0
21	Triplet	157	805	967	6	0	0	828091	691	0	correct_rejection	NA	0
21	Triplet	158	806	968	5	0	0	828799	692	0	correct_rejection	NA	0
21	Triplet	159	807	969	4	0	0	829508	691	0	correct_rejection	NA	0
21	Triplet	160	808	970	4	0	0	830216	692	0	correct_rejection	NA	0
21	Triplet	161	809	971	5	0	0	830925	691	0	correct_rejection	NA	0
21	Triplet	162	810	972	6	0	0	831633	692	0	correct_rejection	NA	0
21	Single	1	1	973	9	0	0	841795	692	0	correct_rejection	NA	7959
21	Single	2	2	974	5	0	0	842504	691	0	correct_rejection	NA	0
21	Single	3	3	975	4	0	0	843212	692	0	correct_rejection	NA	0
21	Single	4	4	976	7	0	0	843921	691	0	correct_rejection	NA	0
21	Single	5	5	977	9	0	0	844629	692	0	correct_rejection	NA	0
21	Single	6	6	978	4	0	0	845338	692	0	correct_rejection	NA	0
21	Single	7	7	979	4	0	0	846046	692	0	correct_rejection	NA	0
21	Single	8	8	980	5	0	0	846755	692	0	correct_rejection	NA	0
21	Single	9	9	981	0	1	1	847464	691	1	hit	365	0
21	Single	10	10	982	8	0	0	848172	692	0	correct_rejection	NA	0
21	Single	11	11	983	7	0	0	848881	691	0	correct_rejection	NA	0
21	Single	12	12	984	5	0	0	849589	692	0	correct_rejection	NA	0
21	Single	13	13	985	7	0	0	850298	692	0	correct_rejection	NA	0
21	Single	14	14	986	0	1	1	851006	692	1	hit	338	0
21	Single	15	15	987	7	0	0	851715	692	0	correct_rejection	NA	0
21	Single	16	16	988	8	0	0	852424	691	0	correct_rejection	NA	0
21	Single	17	17	989	9	0	0	853132	692	0	correct_rejection	NA	0
21	Single	18	18	990	8	0	0	853841	691	0	correct_rejection	NA	0
21	Single	19	19	991	6	0	0	854549	692	0	correct_rejection	NA	0
21	Single	20	20	992	4	0	0	855258	692	0	correct_rejection	NA	0
21	Single	21	21	993	0	1	1	855966	692	1	hit	463	0
21	Single	22	22	994	9	0	0	856675	692	0	correct_rejection	NA	0
21	Single	23	23	995	9	0	0	857384	691	0	correct_rejection	NA	0
21	Single	24	24	996	7	0	0	858092	692	0	correct_rejection	NA	0
21	Single	25	25	997	0	1	1	858801	691	1	hit	421	0
21	Single	26	26	998	6	0	0	859509	692	0	correct_rejection	NA	0
21	Single	27	27	999	6	0	0	860218	692	0	correct_rejection	NA	0
21	Single	28	28	1000	8	0	0	860926	692	0	correct_rejection	NA	0
21	Single	29	29	1001	5	0	0	861635	692	0	correct_rejection	NA	0
21	Single	30	30	1002	6	0	0	862344	691	0	correct_rejection	NA	0
21	Single	31	31	1003	0	1	1	863052	692	1	hit	452	0
21	Single	32	32	1004	7	0	0	863761	691	0	correct_rejection	NA	0
21	Single	33	33	1005	4	0	0	864469	692	0	correct_rejection	NA	0
21	Single	34	34	1006	8	0	0	865178	692	0	correct_rejection	NA	0
21	Single	35	35	1007	8	0	0	865886	692	0	correct_rejection	NA	0
21	Single	36	36	1008	4	0	0	866595	692	0	correct_rejection	NA	0
21	Single	37	37	1009	6	0	0	867304	691	0	correct_rejection	NA	0
21	Single	38	38	1010	5	0	0	868012	692	0	correct_rejection	NA	0
21	Single	39	39	1011	5	0	0	868721	691	0	correct_rejection	NA	0
21	Single	40	40	1012	9	0	0	869429	692	0	correct_rejection	NA	0
21	Single	41	41	1013	6	0	0	870138	691	0	correct_rejection	NA	0
21	Single	42	42	1014	4	0	0	870846	692	0	correct_rejection	NA	0
21	Single	43	43	1015	9	0	0	871555	692	0	correct_rejection	NA	0
21	Single	44	44	1016	8	0	0	872264	691	0	correct_rejection	NA	0
21	Single	45	45	1017	8	0	0	872972	692	0	correct_rejection	NA	0
21	Single	46	46	1018	6	0	0	873681	691	0	correct_rejection	NA	0
21	Single	47	47	1019	9	0	0	874389	692	0	correct_rejection	NA	0
21	Single	48	48	1020	6	0	0	875098	691	0	correct_rejection	NA	0
21	Single	49	49	1021	6	0	0	875806	692	0	correct_rejection	NA	0
21	Single	50	50	1022	7	0	0	876515	692	0	correct_rejection	NA	0
21	Single	51	51	1023	5	0	0	877223	692	0	correct_rejection	NA	0
21	Single	52	52	1024	6	0	0	877932	692	0	correct_rejection	NA	0
21	Single	53	53	1025	5	0	0	878641	691	0	correct_rejection	NA	0
21	Single	54	54	1026	8	0	0	879349	692	0	correct_rejection	NA	0
21	Single	55	55	1027	4	0	0	880058	691	0	correct_rejection	NA	0
21	Single	56	56	1028	5	0	0	880766	692	0	correct_rejection	NA	0
21	Single	57	57	1029	4	0	0	881475	692	0	correct_rejection	NA	0
21	Single	58	58	1030	8	0	0	882183	692	0	correct_rejection	NA	0
21	Single	59	59	1031	7	0	0	882892	692	0	correct_rejection	NA	0
21	Single	60	60	1032	7	0	0	883601	691	0	correct_rejection	NA	0
21	Single	61	61	1033	6	0	0	884309	692	0	correct_rejection	NA	0
21	Single	62	62	1034	8	0	0	885018	691	0	correct_rejection	NA	0
21	Single	63	63	1035	9	0	0	885726	692	0	correct_rejection	NA	0
21	Single	64	64	1036	7	0	0	886435	692	0	correct_rejection	NA	0
21	Single	65	65	1037	9	0	0	887143	692	0	correct_rejection	NA	0
21	Single	66	66	1038	5	0	0	887852	692	0	correct_rejection	NA	0
21	Single	67	67	1039	5	0	0	888561	691	0	correct_rejection	NA	0
21	Single	68	68	1040	7	0	0	889269	692	0	correct_rejection	NA	0
21	Single	69	69	1041	4	0	0	889978	691	0	correct_rejection	NA	0
21	Single	70	70	1042	6	0	0	890686	692	0	correct_rejection	NA	0
21	Single	71	71	1043	4	0	0	891395	692	0	correct_rejection	NA	0
21	Single	72	72	1044	0	1	1	892103	692	1	hit	320	0
21	Single	73	73	1045	4	0	0	892812	692	0	correct_rejection	NA	0
21	Single	74	74	1046	7	0	0	893521	691	0	correct_rejection	NA	0
21	Single	75	75	1047	0	1	1	894229	692	1	hit	431	0
21	Single	76	76	1048	8	0	0	894938	691	0	correct_rejection	NA	0
21	Single	77	77	1049	5	0	0	895646	692	0	correct_rejection	NA	0
21	Single	78	78	1050	9	0	0	896355	692	0	correct_rejection	NA	0
21	Single	79	79	1051	9	0	0	897063	692	0	correct_rejection	NA	0
21	Single	80	80	1052	4	0	0	897772	692	0	correct_rejection	NA	0
21	Single	81	81	1053	9	0	0	898481	691	0	correct_rejection	NA	0
21	Single	82	82	1054	0	1	1	899189	692	1	hit	380	0
21	Single	83	83	1055	6	0	0	899898	691	0	correct_rejection	NA	0
21	Single	84	84	1056	4	0	0	900606	692	0	correct_rejection	NA	0
21	Single	85	85	1057	6	0	0	901315	691	0	correct_rejection	NA	0
21	Single	86	86	1058	8	0	0	902023	692	0	correct_rejection	NA	0
21	Single	87	87	1059	0	1	1	902732	692	1	hit	410	0
21	Single	88	88	1060	8	0	0	903440	692	0	correct_rejection	NA	0
21	Single	89	89	1061	5	0	0	904149	692	0	correct_rejection	NA	0
21	Single	90	90	1062	7	0	0	904858	691	0	correct_rejection	NA	0
21	Single	91	91	1063	8	0	0	905566	692	0	correct_rejection	NA	0
21	Single	92	92	1064	6	0	0	906275	691	0	correct_rejection	NA	0
21	Single	93	93	1065	7	0	0	906983	692	0	correct_rejection	NA	0
21	Single	94	94	1066	9	0	0	907692	692	0	correct_rejection	NA	0
21	Single	95	95	1067	8	0	0	908400	692	0	correct_rejection	NA	0
21	Single	96	96	1068	7	0	0	909109	692	0	correct_rejection	NA	0
21	Single	97	97	1069	6	0	0	909818	691	0	correct_rejection	NA	0
21	Single	98	98	1070	9	0	0	910526	692	0	correct_rejection	NA	0
21	Single	99	99	1071	0	1	1	911235	691	1	hit	425	0
21	Single	100	100	1072	7	0	0	911943	692	0	correct_rejection	NA	0
21	Single	101	101	1073	7	0	0	912652	692	0	correct_rejection	NA	0
21	Single	102	102	1074	4	0	0	913360	692	0	correct_rejection	NA	0
21	Single	103	103	1075	5	0	0	914069	692	0	correct_rejection	NA	0
21	Single	104	104	1076	5	0	0	914778	691	0	correct_rejection	NA	0
21	Single	105	105	1077	8	0	0	915486	692	0	correct_rejection	NA	0
21	Single	106	106	1078	9	0	0	916195	691	0	correct_rejection	NA	0
21	Single	107	107	1079	0	1	1	916903	692	0	miss	NA	0
21	Single	108	108	1080	9	0	0	917612	692	1	false_alarm	224	0
21	Single	109	109	1081	4	0	0	918320	692	0	correct_rejection	NA	0
21	Single	110	110	1082	0	1	1	919029	692	1	hit	298	0
21	Single	111	111	1083	8	0	0	919738	691	0	correct_rejection	NA	0
21	Single	112	112	1084	4	0	0	920446	692	0	correct_rejection	NA	0
21	Single	113	113	1085	0	1	1	921155	691	1	hit	294	0
21	Single	114	114	1086	7	0	0	921863	692	0	correct_rejection	NA	0
21	Single	115	115	1087	5	0	0	922572	692	0	correct_rejection	NA	0
21	Single	116	116	1088	9	0	0	923280	692	0	correct_rejection	NA	0
21	Single	117	117	1089	5	0	0	923989	692	0	correct_rejection	NA	0
21	Single	118	118	1090	6	0	0	924698	691	0	correct_rejection	NA	0
21	Single	119	119	1091	6	0	0	925406	692	0	correct_rejection	NA	0
21	Single	120	120	1092	5	0	0	926115	691	0	correct_rejection	NA	0
21	Single	121	121	1093	0	1	1	926823	692	1	hit	368	0
21	Single	122	122	1094	4	0	0	927532	692	0	correct_rejection	NA	0
21	Single	123	123	1095	9	0	0	928240	692	0	correct_rejection	NA	0
21	Single	124	124	1096	7	0	0	928949	692	0	correct_rejection	NA	0
21	Single	125	125	1097	6	0	0	929658	691	0	correct_rejection	NA	0
21	Single	126	126	1098	4	0	0	930366	692	0	correct_rejection	NA	0
21	Single	127	127	1099	9	0	0	931075	691	0	correct_rejection	NA	0
21	Single	128	128	1100	4	0	0	931783	692	0	correct_rejection	NA	0
21	Single	129	129	1101	4	0	0	932492	691	0	correct_rejection	NA	0
21	Single	130	130	1102	8	0	0	933200	692	0	correct_rejection	NA	0
21	Single	131	131	1103	5	0	0	933909	692	0	correct_rejection	NA	0
21	Single	132	132	1104	8	0	0	934617	692	0	correct_rejection	NA	0
21	Single	133	133	1105	6	0	0	935326	692	0	correct_rejection	NA	0
21	Single	134	134	1106	8	0	0	936035	691	0	correct_rejection	NA	0
21	Single	135	135	1107	4	0	0	936743	692	0	correct_rejection	NA	0
21	Single	136	136	1108	6	0	0	937452	691	0	correct_rejection	NA	0
21	Single	137	137	1109	0	1	1	938160	692	1	hit	352	0
21	Single	138	138	1110	6	0	0	938869	692	0	correct_rejection	NA	0
21	Single	139	139	1111	9	0	0	939577	692	0	correct_rejection	NA	0
21	Single	140	140	1112	5	0	0	940286	692	0	correct_rejection	NA	0
21	Single	141	141	1113	4	0	0	940995	691	0	correct_rejection	NA	0
21	Single	142	142	1114	5	0	0	941703	692	0	correct_rejection	NA	0
21	Single	143	143	1115	0	1	1	942412	691	1	hit	347	0
21	Single	144	144	1116	6	0	0	943120	692	0	correct_rejection	NA	0
21	Single	145	145	1117	7	0	0	943829	692	0	correct_rejection	NA	0
21	Single	146	146	1118	8	0	0	944537	692	0	correct_rejection	NA	0
21	Single	147	147	1119	8	0	0	945246	692	0	correct_rejection	NA	0
21	Single	148	148	1120	7	0	0	945955	691	0	correct_rejection	NA	0
21	Single	149	149	1121	4	0	0	946663	692	0	correct_rejection	NA	0
21	Single	150	150	1122	7	0	0	947372	691	0	correct_rejection	NA	0
21	Single	151	151	1123	9	0	0	948080	692	0	correct_rejection	NA	0
21	Single	152	152	1124	6	0	0	948789	692	0	correct_rejection	NA	0
21	Single	153	153	1125	5	0	0	949497	692	0	correct_rejection	NA	0
21	Single	154	154	1126	0	1	1	950206	692	1	hit	372	0
21	Single	155	155	1127	7	0	0	950915	691	0	correct_rejection	NA	0
21	Single	156	156	1128	7	0	0	951623	692	0	correct_rejection	NA	0
21	Single	157	157	1129	0	1	1	952332	691	1	hit	496	0
21	Single	158	158	1130	5	0	0	953040	692	0	correct_rejection	NA	0
21	Single	159	159	1131	5	0	0	953749	692	0	correct_rejection	NA	0
21	Single	160	160	1132	9	0	0	954457	692	0	correct_rejection	NA	0
21	Single	161	161	1133	8	0	0	955166	692	0	correct_rejection	NA	0
21	Single	162	162	1134	9	0	0	955875	691	0	correct_rejection	NA	0
21	Correct	1	487	1135	4	0	0	965544	692	0	correct_rejection	NA	7709
21	Correct	2	488	1136	5	0	0	966253	692	0	correct_rejection	NA	0
21	Correct	3	489	1137	6	0	0	966962	691	0	correct_rejection	NA	0
21	Correct	4	490	1138	4	0	0	967670	692	0	correct_rejection	NA	0
21	Correct	5	491	1139	0	1	1	968379	691	1	hit	319	0
21	Correct	6	492	1140	5	0	0	969087	692	0	correct_rejection	NA	0
21	Correct	7	493	1141	6	0	0	969796	692	0	correct_rejection	NA	0
21	Correct	8	494	1142	0	1	2	970504	692	1	hit	335	0
21	Correct	9	495	1143	4	0	0	971213	692	0	correct_rejection	NA	0
21	Correct	10	496	1144	5	0	0	971922	691	0	correct_rejection	NA	0
21	Correct	11	497	1145	6	0	0	972630	692	0	correct_rejection	NA	0
21	Correct	12	498	1146	6	0	0	973339	691	0	correct_rejection	NA	0
21	Correct	13	499	1147	5	0	0	974047	692	0	correct_rejection	NA	0
21	Correct	14	500	1148	4	0	0	974756	691	0	correct_rejection	NA	0
21	Correct	15	501	1149	0	1	2	975464	692	1	hit	369	0
21	Correct	16	502	1150	6	0	0	976173	692	0	correct_rejection	NA	0
21	Correct	17	503	1151	5	0	0	976882	691	0	correct_rejection	NA	0
21	Correct	18	504	1152	4	0	0	977590	692	0	correct_rejection	NA	0
21	Correct	19	505	1153	6	0	0	978299	691	0	correct_rejection	NA	0
21	Correct	20	506	1154	0	1	1	979007	692	1	hit	354	0
21	Correct	21	507	1155	5	0	0	979716	691	0	correct_rejection	NA	0
21	Correct	22	508	1156	4	0	0	980424	692	0	correct_rejection	NA	0
21	Correct	23	509	1157	9	0	0	981133	692	0	correct_rejection	NA	0
21	Correct	24	510	1158	8	0	0	981841	692	0	correct_rejection	NA	0
21	Correct	25	511	1159	7	0	0	982550	692	0	correct_rejection	NA	0
21	Correct	26	512	1160	9	0	0	983259	691	0	correct_rejection	NA	0
21	Correct	27	513	1161	0	1	1	983967	692	1	hit	329	0
21	Correct	28	514	1162	8	0	0	984676	691	0	correct_rejection	NA	0
21	Correct	29	515	1163	7	0	0	985384	692	0	correct_rejection	NA	0
21	Correct	30	516	1164	9	0	0	986093	692	0	correct_rejection	NA	0
21	Correct	31	517	1165	8	0	0	986801	692	0	correct_rejection	NA	0
21	Correct	32	518	1166	0	1	1	987510	692	0	miss	NA	0
21	Correct	33	519	1167	7	0	0	988219	691	1	false_alarm	245	0
21	Correct	34	520	1168	7	0	0	988927	692	0	correct_rejection	NA	0
21	Correct	35	521	1169	8	0	0	989636	691	0	correct_rejection	NA	0
21	Correct	36	522	1170	9	0	0	990344	692	0	correct_rejection	NA	0
21	Correct	37	523	1171	7	0	0	991053	692	0	correct_rejection	NA	0
21	Correct	38	524	1172	8	0	0	991761	692	0	correct_rejection	NA	0
21	Correct	39	525	1173	9	0	0	992470	692	0	correct_rejection	NA	0
21	Correct	40	526	1174	7	0	0	993179	691	0	correct_rejection	NA	0
21	Correct	41	527	1175	8	0	0	993887	692	0	correct_rejection	NA	0
21	Correct	42	528	1176	9	0	0	994596	691	0	correct_rejection	NA	0
21	Correct	43	529	1177	4	0	0	995304	692	0	correct_rejection	NA	0
21	Correct	44	530	1178	5	0	0	996013	692	0	correct_rejection	NA	0
21	Correct	45	531	1179	6	0	0	996721	692	0	correct_rejection	NA	0
21	Correct	46	532	1180	4	0	0	997430	692	0	correct_rejection	NA	0
21	Correct	47	533	1181	5	0	0	998139	691	0	correct_rejection	NA	0
21	Correct	48	534	1182	6	0	0	998847	692	0	correct_rejection	NA	0
21	Correct	49	535	1183	4	0	0	999556	691	0	correct_rejection	NA	0
21	Correct	50	536	1184	5	0	0	1000264	692	0	correct_rejection	NA	0
21	Correct	51	537	1185	0	1	1	1000973	692	1	hit	355	0
21	Correct	52	538	1186	6	0	0	1001681	692	0	correct_rejection	NA	0
21	Correct	53	539	1187	6	0	0	1002390	692	0	correct_rejection	NA	0
21	Correct	54	540	1188	5	0	0	1003099	691	0	correct_rejection	NA	0
21	Correct	55	541	1189	4	0	0	1003807	692	0	correct_rejection	NA	0
21	Correct	56	542	1190	6	0	0	1004516	691	0	correct_rejection	NA	0
21	Correct	57	543	1191	5	0	0	1005224	692	0	correct_rejection	NA	0
21	Correct	58	544	1192	4	0	0	1005933	691	0	correct_rejection	NA	0
21	Correct	59	545	1193	0	1	2	1006641	692	1	hit	401	0
21	Correct	60	546	1194	6	0	0	1007350	692	0	correct_rejection	NA	0
21	Correct	61	547	1195	5	0	0	1008058	692	0	correct_rejection	NA	0
21	Correct	62	548	1196	0	1	1	1008767	692	1	hit	426	0
21	Correct	63	549	1197	4	0	0	1009476	691	0	correct_rejection	NA	0
21	Correct	64	550	1198	9	0	0	1010184	692	0	correct_rejection	NA	0
21	Correct	65	551	1199	0	1	1	1010893	691	1	hit	397	0
21	Correct	66	552	1200	8	0	0	1011601	692	0	correct_rejection	NA	0
21	Correct	67	553	1201	7	0	0	1012310	692	0	correct_rejection	NA	0
21	Correct	68	554	1202	9	0	0	1013018	692	0	correct_rejection	NA	0
21	Correct	69	555	1203	8	0	0	1013727	692	0	correct_rejection	NA	0
21	Correct	70	556	1204	0	1	1	1014436	691	1	hit	409	0
21	Correct	71	557	1205	7	0	0	1015144	692	0	correct_rejection	NA	0
21	Correct	72	558	1206	9	0	0	1015853	691	0	correct_rejection	NA	0
21	Correct	73	559	1207	8	0	0	1016561	692	0	correct_rejection	NA	0
21	Correct	74	560	1208	7	0	0	1017270	692	0	correct_rejection	NA	0
21	Correct	75	561	1209	7	0	0	1017978	692	0	correct_rejection	NA	0
21	Correct	76	562	1210	8	0	0	1018687	692	0	correct_rejection	NA	0
21	Correct	77	563	1211	9	0	0	1019396	691	0	correct_rejection	NA	0
21	Correct	78	564	1212	7	0	0	1020104	692	0	correct_rejection	NA	0
21	Correct	79	565	1213	8	0	0	1020813	691	0	correct_rejection	NA	0
21	Correct	80	566	1214	9	0	0	1021521	692	0	correct_rejection	NA	0
21	Correct	81	567	1215	7	0	0	1022230	692	0	correct_rejection	NA	0
21	Correct	82	568	1216	8	0	0	1022938	692	0	correct_rejection	NA	0
21	Correct	83	569	1217	9	0	0	1023647	692	0	correct_rejection	NA	0
21	Correct	84	570	1218	4	0	0	1024356	691	0	correct_rejection	NA	0
21	Correct	85	571	1219	5	0	0	1025064	692	0	correct_rejection	NA	0
21	Correct	86	572	1220	6	0	0	1025773	691	0	correct_rejection	NA	0
21	Correct	87	573	1221	4	0	0	1026481	692	0	correct_rejection	NA	0
21	Correct	88	574	1222	5	0	0	1027190	692	0	correct_rejection	NA	0
21	Correct	89	575	1223	0	1	1	1027898	692	1	hit	358	0
21	Correct	90	576	1224	6	0	0	1028607	692	0	correct_rejection	NA	0
21	Correct	91	577	1225	4	0	0	1029316	691	0	correct_rejection	NA	0
21	Correct	92	578	1226	5	0	0	1030024	692	0	correct_rejection	NA	0
21	Correct	93	579	1227	6	0	0	1030733	691	0	correct_rejection	NA	0
21	Correct	94	580	1228	6	0	0	1031441	692	0	correct_rejection	NA	0
21	Correct	95	581	1229	0	1	1	1032150	692	1	hit	453	0
21	Correct	96	582	1230	5	0	0	1032858	692	0	correct_rejection	NA	0
21	Correct	97	583	1231	4	0	0	1033567	692	0	correct_rejection	NA	0
21	Correct	98	584	1232	6	0	0	1034276	691	0	correct_rejection	NA	0
21	Correct	99	585	1233	5	0	0	1034984	692	0	correct_rejection	NA	0
21	Correct	100	586	1234	4	0	0	1035693	691	0	correct_rejection	NA	0
21	Correct	101	587	1235	6	0	0	1036401	692	0	correct_rejection	NA	0
21	Correct	102	588	1236	5	0	0	1037110	691	0	correct_rejection	NA	0
21	Correct	103	589	1237	4	0	0	1037818	692	0	correct_rejection	NA	0
21	Correct	104	590	1238	9	0	0	1038527	692	0	correct_rejection	NA	0
21	Correct	105	591	1239	8	0	0	1039235	692	0	correct_rejection	NA	0
21	Correct	106	592	1240	7	0	0	1039944	692	0	correct_rejection	NA	0
21	Correct	107	593	1241	9	0	0	1040653	691	0	correct_rejection	NA	0
21	Correct	108	594	1242	8	0	0	1041361	692	0	correct_rejection	NA	0
21	Correct	109	595	1243	7	0	0	1042070	691	0	correct_rejection	NA	0
21	Correct	110	596	1244	9	0	0	1042778	692	0	correct_rejection	NA	0
21	Correct	111	597	1245	8	0	0	1043487	692	0	correct_rejection	NA	0
21	Correct	112	598	1246	7	0	0	1044195	692	0	correct_rejection	NA	0
21	Correct	113	599	1247	7	0	0	1044904	692	0	correct_rejection	NA	0
21	Correct	114	600	1248	8	0	0	1045613	691	0	correct_rejection	NA	0
21	Correct	115	601	1249	0	1	1	1046321	692	1	hit	408	0
21	Correct	116	602	1250	9	0	0	1047030	691	0	correct_rejection	NA	0
21	Correct	117	603	1251	7	0	0	1047738	692	0	correct_rejection	NA	0
21	Correct	118	604	1252	8	0	0	1048447	692	0	correct_rejection	NA	0
21	Correct	119	605	1253	9	0	0	1049155	692	0	correct_rejection	NA	0
21	Correct	120	606	1254	7	0	0	1049864	692	0	correct_rejection	NA	0
21	Correct	121	607	1255	8	0	0	1050573	691	0	correct_rejection	NA	0
21	Correct	122	608	1256	9	0	0	1051281	692	0	correct_rejection	NA	0
21	Correct	123	609	1257	0	1	4	1051990	691	0	miss	NA	0
21	Correct	124	610	1258	4	0	0	1052698	692	1	false_alarm	59	0
21	Correct	125	611	1259	5	0	0	1053407	692	0	correct_rejection	NA	0
21	Correct	126	612	1260	6	0	0	1054115	692	0	correct_rejection	NA	0
21	Correct	127	613	1261	4	0	0	1054824	692	0	correct_rejection	NA	0
21	Correct	128	614	1262	5	0	0	1055533	691	0	correct_rejection	NA	0
21	Correct	129	615	1263	6	0	0	1056241	692	0	correct_rejection	NA	0
21	Correct	130	616	1264	0	1	2	1056950	691	1	hit	620	0
21	Correct	131	617	1265	4	0	0	1057658	692	0	correct_rejection	NA	0
21	Correct	132	618	1266	5	0	0	1058367	692	0	correct_rejection	NA	0
21	Correct	133	619	1267	6	0	0	1059075	692	0	correct_rejection	NA	0
21	Correct	134	620	1268	6	0	0	1059784	692	0	correct_rejection	NA	0
21	Correct	135	621	1269	5	0	0	1060493	691	0	correct_rejection	NA	0
21	Correct	136	622	1270	4	0	0	1061201	692	0	correct_rejection	NA	0
21	Correct	137	623	1271	6	0	0	1061910	691	0	correct_rejection	NA	0
21	Correct	138	624	1272	5	0	0	1062618	692	0	correct_rejection	NA	0
21	Correct	139	625	1273	0	1	1	1063327	691	1	hit	406	0
21	Correct	140	626	1274	4	0	0	1064035	692	0	correct_rejection	NA	0
21	Correct	141	627	1275	6	0	0	1064744	692	0	correct_rejection	NA	0
21	Correct	142	628	1276	5	0	0	1065453	691	0	correct_rejection	NA	0
21	Correct	143	629	1277	4	0	0	1066161	692	0	correct_rejection	NA	0
21	Correct	144	630	1278	0	1	3	1066870	691	1	hit	407	0
21	Correct	145	631	1279	9	0	0	1067578	692	0	correct_rejection	NA	0
21	Correct	146	632	1280	8	0	0	1068287	691	0	correct_rejection	NA	0
21	Correct	147	633	1281	7	0	0	1068995	692	0	correct_rejection	NA	0
21	Correct	148	634	1282	9	0	0	1069704	692	0	correct_rejection	NA	0
21	Correct	149	635	1283	8	0	0	1070412	692	0	correct_rejection	NA	0
21	Correct	150	636	1284	7	0	0	1071121	692	0	correct_rejection	NA	0
21	Correct	151	637	1285	9	0	0	1071830	691	0	correct_rejection	NA	0
21	Correct	152	638	1286	8	0	0	1072538	692	0	correct_rejection	NA	0
21	Correct	153	639	1287	7	0	0	1073247	691	0	correct_rejection	NA	0
21	Correct	154	640	1288	7	0	0	1073955	692	0	correct_rejection	NA	0
21	Correct	155	641	1289	8	0	0	1074664	692	0	correct_rejection	NA	0
21	Correct	156	642	1290	9	0	0	1075372	692	0	correct_rejection	NA	0
21	Correct	157	643	1291	7	0	0	1076081	692	0	correct_rejection	NA	0
21	Correct	158	644	1292	8	0	0	1076790	691	0	correct_rejection	NA	0
21	Correct	159	645	1293	9	0	0	1077498	692	0	correct_rejection	NA	0
21	Correct	160	646	1294	7	0	0	1078207	691	0	correct_rejection	NA	0
21	Correct	161	647	1295	8	0	0	1078915	692	0	correct_rejection	NA	0
21	Correct	162	648	1296	9	0	0	1079624	692	0	correct_rejection	NA	0
21	Single	1	325	1297	9	0	0	1089444	691	0	correct_rejection	NA	7609
21	Single	2	326	1298	5	0	0	1090152	692	0	correct_rejection	NA	0
21	Single	3	327	1299	7	0	0	1090861	692	0	correct_rejection	NA	0
21	Single	4	328	1300	6	0	0	1091569	692	0	correct_rejection	NA	0
21	Single	5	329	1301	0	1	1	1092278	692	1	hit	325	0
21	Single	6	330	1302	9	0	0	1092987	691	0	correct_rejection	NA	0
21	Single	7	331	1303	4	0	0	1093695	692	0	correct_rejection	NA	0
21	Single	8	332	1304	4	0	0	1094404	691	0	correct_rejection	NA	0
21	Single	9	333	1305	7	0	0	1095112	692	0	correct_rejection	NA	0
21	Single	10	334	1306	8	0	0	1095821	692	0	correct_rejection	NA	0
21	Single	11	335	1307	5	0	0	1096529	692	0	correct_rejection	NA	0
21	Single	12	336	1308	9	0	0	1097238	692	0	correct_rejection	NA	0
21	Single	13	337	1309	0	1	1	1097947	691	1	hit	481	0
21	Single	14	338	1310	8	0	0	1098655	692	0	correct_rejection	NA	0
21	Single	15	339	1311	6	0	0	1099364	691	0	correct_rejection	NA	0
21	Single	16	340	1312	7	0	0	1100072	692	0	correct_rejection	NA	0
21	Single	17	341	1313	4	0	0	1100781	692	0	correct_rejection	NA	0
21	Single	18	342	1314	0	1	1	1101489	692	1	hit	351	0
21	Single	19	343	1315	5	0	0	1102198	692	0	correct_rejection	NA	0
21	Single	20	344	1316	8	0	0	1102907	691	0	correct_rejection	NA	0
21	Single	21	345	1317	8	0	0	1103615	692	0	correct_rejection	NA	0
21	Single	22	346	1318	9	0	0	1104324	691	0	correct_rejection	NA	0
21	Single	23	347	1319	7	0	0	1105032	692	0	correct_rejection	NA	0
21	Single	24	348	1320	5	0	0	1105741	692	0	correct_rejection	NA	0
21	Single	25	349	1321	5	0	0	1106449	692	0	correct_rejection	NA	0
21	Single	26	350	1322	4	0	0	1107158	692	0	correct_rejection	NA	0
21	Single	27	351	1323	9	0	0	1107867	691	0	correct_rejection	NA	0
21	Single	28	352	1324	9	0	0	1108575	692	0	correct_rejection	NA	0
21	Single	29	353	1325	6	0	0	1109284	691	0	correct_rejection	NA	0
21	Single	30	354	1326	8	0	0	1109992	692	0	correct_rejection	NA	0
21	Single	31	355	1327	4	0	0	1110701	692	0	correct_rejection	NA	0
21	Single	32	356	1328	6	0	0	1111409	692	0	correct_rejection	NA	0
21	Single	33	357	1329	0	1	1	1112118	692	1	hit	562	0
21	Single	34	358	1330	6	0	0	1112827	691	0	correct_rejection	NA	0
21	Single	35	359	1331	5	0	0	1113535	692	0	correct_rejection	NA	0
21	Single	36	360	1332	6	0	0	1114244	691	0	correct_rejection	NA	0
21	Single	37	361	1333	4	0	0	1114952	692	0	correct_rejection	NA	0
21	Single	38	362	1334	8	0	0	1115661	692	0	correct_rejection	NA	0
21	Single	39	363	1335	7	0	0	1116369	692	0	correct_rejection	NA	0
21	Single	40	364	1336	7	0	0	1117078	692	0	correct_rejection	NA	0
21	Single	41	365	1337	5	0	0	1117787	691	0	correct_rejection	NA	0
21	Single	42	366	1338	8	0	0	1118495	692	0	correct_rejection	NA	0
21	Single	43	367	1339	4	0	0	1119204	691	0	correct_rejection	NA	0
21	Single	44	368	1340	5	0	0	1119912	692	0	correct_rejection	NA	0
21	Single	45	369	1341	6	0	0	1120621	691	0	correct_rejection	NA	0
21	Single	46	370	1342	8	0	0	1121329	692	0	correct_rejection	NA	0
21	Single	47	371	1343	6	0	0	1122038	692	0	correct_rejection	NA	0
21	Single	48	372	1344	6	0	0	1122746	692	0	correct_rejection	NA	0
21	Single	49	373	1345	0	1	1	1123455	692	1	hit	377	0
21	Single	50	374	1346	4	0	0	1124164	691	0	correct_rejection	NA	0
21	Single	51	375	1347	7	0	0	1124872	692	0	correct_rejection	NA	0
21	Single	52	376	1348	9	0	0	1125581	691	0	correct_rejection	NA	0
21	Single	53	377	1349	0	1	1	1126289	692	1	hit	542	0
21	Single	54	378	1350	7	0	0	1126998	692	0	correct_rejection	NA	0
21	Single	55	379	1351	7	0	0	1127706	692	0	correct_rejection	NA	0
21	Single	56	380	1352	8	0	0	1128415	692	0	correct_rejection	NA	0
21	Single	57	381	1353	0	1	1	1129124	691	1	hit	409	0
21	Single	58	382	1354	7	0	0	1129832	692	0	correct_rejection	NA	0
21	Single	59	383	1355	4	0	0	1130541	691	0	correct_rejection	NA	0
21	Single	60	384	1356	0	1	1	1131249	692	0	miss	NA	0
21	Single	61	385	1357	9	0	0	1131958	692	1	false_alarm	13	0
21	Single	62	386	1358	8	0	0	1132666	692	0	correct_rejection	NA	0
21	Single	63	387	1359	9	0	0	1133375	692	0	correct_rejection	NA	0
21	Single	64	388	1360	5	0	0	1134084	691	0	correct_rejection	NA	0
21	Single	65	389	1361	5	0	0	1134792	692	0	correct_rejection	NA	0
21	Single	66	390	1362	7	0	0	1135501	691	0	correct_rejection	NA	0
21	Single	67	391	1363	5	0	0	1136209	692	0	correct_rejection	NA	0
21	Single	68	392	1364	9	0	0	1136918	692	0	correct_rejection	NA	0
21	Single	69	393	1365	6	0	0	1137626	692	0	correct_rejection	NA	0
21	Single	70	394	1366	9	0	0	1138335	692	0	correct_rejection	NA	0
21	Single	71	395	1367	9	0	0	1139044	691	0	correct_rejection	NA	0
21	Single	72	396	1368	4	0	0	1139752	692	0	correct_rejection	NA	0
21	Single	73	397	1369	6	0	0	1140461	691	0	correct_rejection	NA	0
21	Single	74	398	1370	7	0	0	1141169	692	0	correct_rejection	NA	0
21	Single	75	399	1371	6	0	0	1141878	692	0	correct_rejection	NA	0
21	Single	76	400	1372	5	0	0	1142586	692	0	correct_rejection	NA	0
21	Single	77	401	1373	0	1	1	1143295	692	1	hit	456	0
21	Single	78	402	1374	4	0	0	1144004	691	0	correct_rejection	NA	0
21	Single	79	403	1375	4	0	0	1144712	692	0	correct_rejection	NA	0
21	Single	80	404	1376	8	0	0	1145421	691	0	correct_rejection	NA	0
21	Single	81	405	1377	8	0	0	1146129	692	0	correct_rejection	NA	0
21	Single	82	406	1378	0	1	1	1146838	692	1	hit	354	0
21	Single	83	407	1379	8	0	0	1147546	692	0	correct_rejection	NA	0
21	Single	84	408	1380	4	0	0	1148255	692	0	correct_rejection	NA	0
21	Single	85	409	1381	9	0	0	1148964	691	0	correct_rejection	NA	0
21	Single	86	410	1382	7	0	0	1149672	692	0	correct_rejection	NA	0
21	Single	87	411	1383	4	0	0	1150381	691	0	correct_rejection	NA	0
21	Single	88	412	1384	8	0	0	1151089	692	0	correct_rejection	NA	0
21	Single	89	413	1385	9	0	0	1151798	691	0	correct_rejection	NA	0
21	Single	90	414	1386	4	0	0	1152506	692	0	correct_rejection	NA	0
21	Single	91	415	1387	7	0	0	1153215	692	0	correct_rejection	NA	0
21	Single	92	416	1388	6	0	0	1153923	692	0	correct_rejection	NA	0
21	Single	93	417	1389	6	0	0	1154632	692	0	correct_rejection	NA	0
21	Single	94	418	1390	0	1	1	1155341	691	1	hit	342	0
21	Single	95	419	1391	8	0	0	1156049	692	0	correct_rejection	NA	0
21	Single	96	420	1392	8	0	0	1156758	691	0	correct_rejection	NA	0
21	Single	97	421	1393	5	0	0	1157466	692	0	correct_rejection	NA	0
21	Single	98	422	1394	5	0	0	1158175	692	0	correct_rejection	NA	0
21	Single	99	423	1395	6	0	0	1158883	692	0	correct_rejection	NA	0
21	Single	100	424	1396	0	1	1	1159592	692	1	hit	390	0
21	Single	101	425	1397	7	0	0	1160301	691	0	correct_rejection	NA	0
21	Single	102	426	1398	9	0	0	1161009	692	0	correct_rejection	NA	0
21	Single	103	427	1399	6	0	0	1161718	691	0	correct_rejection	NA	0
21	Single	104	428	1400	4	0	0	1162426	692	0	correct_rejection	NA	0
21	Single	105	429	1401	4	0	0	1163135	692	0	correct_rejection	NA	0
21	Single	106	430	1402	6	0	0	1163843	692	0	correct_rejection	NA	0
21	Single	107	431	1403	9	0	0	1164552	692	0	correct_rejection	NA	0
21	Single	108	432	1404	5	0	0	1165261	691	0	correct_rejection	NA	0
21	Single	109	433	1405	4	0	0	1165969	692	0	correct_rejection	NA	0
21	Single	110	434	1406	5	0	0	1166678	691	0	correct_rejection	NA	0
21	Single	111	435	1407	9	0	0	1167386	692	0	correct_rejection	NA	0
21	Single	112	436	1408	9	0	0	1168095	692	0	correct_rejection	NA	0
21	Single	113	437	1409	8	0	0	1168803	692	0	correct_rejection	NA	0
21	Single	114	438	1410	7	0	0	1169512	692	0	correct_rejection	NA	0
21	Single	115	439	1411	8	0	0	1170221	691	0	correct_rejection	NA	0
21	Single	116	440	1412	6	0	0	1170929	692	0	correct_rejection	NA	0
21	Single	117	441	1413	5	0	0	1171638	691	0	correct_rejection	NA	0
21	Single	118	442	1414	7	0	0	1172346	692	0	correct_rejection	NA	0
21	Single	119	443	1415	7	0	0	1173055	692	0	correct_rejection	NA	0
21	Single	120	444	1416	5	0	0	1173763	692	0	correct_rejection	NA	0
21	Single	121	445	1417	8	0	0	1174472	692	0	correct_rejection	NA	0
21	Single	122	446	1418	7	0	0	1175181	691	0	correct_rejection	NA	0
21	Single	123	447	1419	9	0	0	1175889	692	0	correct_rejection	NA	0
21	Single	124	448	1420	0	1	1	1176598	691	1	hit	553	0
21	Single	125	449	1421	9	0	0	1177306	692	0	correct_rejection	NA	0
21	Single	126	450	1422	6	0	0	1178015	691	0	correct_rejection	NA	0
21	Single	127	451	1423	0	1	1	1178723	692	1	hit	364	0
21	Single	128	452	1424	5	0	0	1179432	692	0	correct_rejection	NA	0
21	Single	129	453	1425	5	0	0	1180141	691	0	correct_rejection	NA	0
21	Single	130	454	1426	9	0	0	1180849	692	0	correct_rejection	NA	0
21	Single	131	455	1427	4	0	0	1181558	691	0	correct_rejection	NA	0
21	Single	132	456	1428	9	0	0	1182266	692	0	correct_rejection	NA	0
21	Single	133	457	1429	5	0	0	1182975	691	0	correct_rejection	NA	0
21	Single	134	458	1430	7	0	0	1183683	692	0	correct_rejection	NA	0
21	Single	135	459	1431	4	0	0	1184392	692	0	correct_rejection	NA	0
21	Single	136	460	1432	4	0	0	1185100	692	0	correct_rejection	NA	0
21	Single	137	461	1433	5	0	0	1185809	692	0	correct_rejection	NA	0
21	Single	138	462	1434	8	0	0	1186518	691	0	correct_rejection	NA	0
21	Single	139	463	1435	8	0	0	1187226	692	0	correct_rejection	NA	0
21	Single	140	464	1436	0	1	1	1187935	691	1	hit	372	0
21	Single	141	465	1437	9	0	0	1188643	692	0	correct_rejection	NA	0
21	Single	142	466	1438	7	0	0	1189352	692	0	correct_rejection	NA	0
21	Single	143	467	1439	8	0	0	1190060	692	0	correct_rejection	NA	0
21	Single	144	468	1440	4	0	0	1190769	692	0	correct_rejection	NA	0
21	Single	145	469	1441	8	0	0	1191478	691	0	correct_rejection	NA	0
21	Single	146	470	1442	6	0	0	1192186	692	0	correct_rejection	NA	0
21	Single	147	471	1443	9	0	0	1192895	691	0	correct_rejection	NA	0
21	Single	148	472	1444	8	0	0	1193603	692	0	correct_rejection	NA	0
21	Single	149	473	1445	0	1	1	1194312	692	1	hit	374	0
21	Single	150	474	1446	5	0	0	1195020	692	0	correct_rejection	NA	0
21	Single	151	475	1447	4	0	0	1195729	692	0	correct_rejection	NA	0
21	Single	152	476	1448	0	1	1	1196438	691	1	hit	381	0
21	Single	153	477	1449	7	0	0	1197146	692	0	correct_rejection	NA	0
21	Single	154	478	1450	5	0	0	1197855	691	0	correct_rejection	NA	0
21	Single	155	479	1451	0	1	1	1198563	692	1	hit	335	0
21	Single	156	480	1452	6	0	0	1199272	692	0	correct_rejection	NA	0
21	Single	157	481	1453	6	0	0	1199980	692	0	correct_rejection	NA	0
21	Single	158	482	1454	7	0	0	1200689	692	0	correct_rejection	NA	0
21	Single	159	483	1455	7	0	0	1201398	691	0	correct_rejection	NA	0
21	Single	160	484	1456	6	0	0	1202106	692	0	correct_rejection	NA	0
21	Single	161	485	1457	4	0	0	1202815	691	0	correct_rejection	NA	0
21	Single	162	486	1458	6	0	0	1203523	692	0	correct_rejection	NA	0
21	Nonet	1	649	1459	6	0	0	1213635	692	0	correct_rejection	NA	7809
21	Nonet	2	650	1460	5	0	0	1214344	691	0	correct_rejection	NA	0
21	Nonet	3	651	1461	4	0	0	1215052	692	0	correct_rejection	NA	0
21	Nonet	4	652	1462	6	0	0	1215761	691	0	correct_rejection	NA	0
21	Nonet	5	653	1463	5	0	0	1216469	692	0	correct_rejection	NA	0
21	Nonet	6	654	1464	4	0	0	1217178	691	0	correct_rejection	NA	0
21	Nonet	7	655	1465	6	0	0	1217886	692	0	correct_rejection	NA	0
21	Nonet	8	656	1466	5	0	0	1218595	692	0	correct_rejection	NA	0
21	Nonet	9	657	1467	4	0	0	1219303	692	0	correct_rejection	NA	0
21	Nonet	10	658	1468	9	0	0	1220012	692	0	correct_rejection	NA	0
21	Nonet	11	659	1469	8	0	0	1220721	691	0	correct_rejection	NA	0
21	Nonet	12	660	1470	7	0	0	1221429	692	0	correct_rejection	NA	0
21	Nonet	13	661	1471	9	0	0	1222138	691	0	correct_rejection	NA	0
21	Nonet	14	662	1472	8	0	0	1222846	692	0	correct_rejection	NA	0
21	Nonet	15	663	1473	7	0	0	1223555	692	0	correct_rejection	NA	0
21	Nonet	16	664	1474	0	1	2	1224263	692	1	hit	387	0
21	Nonet	17	665	1475	9	0	0	1224972	692	0	correct_rejection	NA	0
21	Nonet	18	666	1476	8	0	0	1225681	691	0	correct_rejection	NA	0
21	Nonet	19	667	1477	7	0	0	1226389	692	0	correct_rejection	NA	0
21	Nonet	20	668	1478	0	1	3	1227098	691	1	hit	369	0
21	Nonet	21	669	1479	4	0	0	1227806	692	0	correct_rejection	NA	0
21	Nonet	22	670	1480	5	0	0	1228515	692	0	correct_rejection	NA	0
21	Nonet	23	671	1481	0	1	1	1229223	692	1	hit	367	0
21	Nonet	24	672	1482	6	0	0	1229932	692	0	correct_rejection	NA	0
21	Nonet	25	673	1483	4	0	0	1230641	691	0	correct_rejection	NA	0
21	Nonet	26	674	1484	5	0	0	1231349	692	0	correct_rejection	NA	0
21	Nonet	27	675	1485	6	0	0	1232058	691	0	correct_rejection	NA	0
21	Nonet	28	676	1486	4	0	0	1232766	692	0	correct_rejection	NA	0
21	Nonet	29	677	1487	5	0	0	1233475	692	0	correct_rejection	NA	0
21	Nonet	30	678	1488	0	1	1	1234183	692	1	hit	334	0
21	Nonet	31	679	1489	6	0	0	1234892	692	0	correct_rejection	NA	0
21	Nonet	32	680	1490	4	0	0	1235601	691	0	correct_rejection	NA	0
21	Nonet	33	681	1491	5	0	0	1236309	692	0	correct_rejection	NA	0
21	Nonet	34	682	1492	6	0	0	1237018	691	0	correct_rejection	NA	0
21	Nonet	35	683	1493	4	0	0	1237726	692	0	correct_rejection	NA	0
21	Nonet	36	684	1494	5	0	0	1238435	692	0	correct_rejection	NA	0
21	Nonet	37	685	1495	6	0	0	1239143	692	0	correct_rejection	NA	0
21	Nonet	38	686	1496	4	0	0	1239852	692	0	correct_rejection	NA	0
21	Nonet	39	687	1497	5	0	0	1240561	691	0	correct_rejection	NA	0
21	Nonet	40	688	1498	6	0	0	1241269	692	0	correct_rejection	NA	0
21	Nonet	41	689	1499	6	0	0	1241978	691	0	correct_rejection	NA	0
21	Nonet	42	690	1500	5	0	0	1242686	692	0	correct_rejection	NA	0
21	Nonet	43	691	1501	4	0	0	1243395	691	0	correct_rejection	NA	0
21	Nonet	44	692	1502	6	0	0	1244103	692	0	correct_rejection	NA	0
21	Nonet	45	693	1503	5	0	0	1244812	692	0	correct_rejection	NA	0
21	Nonet	46	694	1504	4	0	0	1245521	691	0	correct_rejection	NA	0
21	Nonet	47	695	1505	6	0	0	1246229	692	0	correct_rejection	NA	0
21	Nonet	48	696	1506	5	0	0	1246938	691	0	correct_rejection	NA	0
21	Nonet	49	697	1507	0	1	1	1247646	692	1	hit	344	0
21	Nonet	50	698	1508	4	0	0	1248355	691	0	correct_rejection	NA	0
21	Nonet	51	699	1509	6	0	0	1249063	692	0	correct_rejection	NA	0
21	Nonet	52	700	1510	5	0	0	1249772	692	0	correct_rejection	NA	0
21	Nonet	53	701	1511	4	0	0	1250480	692	0	correct_rejection	NA	0
21	Nonet	54	702	1512	6	0	0	1251189	692	0	correct_rejection	NA	0
21	Nonet	55	703	1513	0	1	1	1251898	691	1	hit	453	0
21	Nonet	56	704	1514	5	0	0	1252606	692	0	correct_rejection	NA	0
21	Nonet	57	705	1515	4	0	0	1253315	691	0	correct_rejection	NA	0
21	Nonet	58	706	1516	0	1	2	1254023	692	1	hit	494	0
21	Nonet	59	707	1517	6	0	0	1254732	692	0	correct_rejection	NA	0
21	Nonet	60	708	1518	5	0	0	1255440	692	0	correct_rejection	NA	0
21	Nonet	61	709	1519	4	0	0	1256149	692	0	correct_rejection	NA	0
21	Nonet	62	710	1520	4	0	0	1256858	691	0	correct_rejection	NA	0
21	Nonet	63	711	1521	5	0	0	1257566	692	0	correct_rejection	NA	0
21	Nonet	64	712	1522	6	0	0	1258275	691	0	correct_rejection	NA	0
21	Nonet	65	713	1523	4	0	0	1258983	692	0	correct_rejection	NA	0
21	Nonet	66	714	1524	5	0	0	1259692	692	0	correct_rejection	NA	0
21	Nonet	67	715	1525	6	0	0	1260400	692	0	correct_rejection	NA	0
21	Nonet	68	716	1526	4	0	0	1261109	692	0	correct_rejection	NA	0
21	Nonet	69	717	1527	5	0	0	1261818	691	0	correct_rejection	NA	0
21	Nonet	70	718	1528	6	0	0	1262526	692	0	correct_rejection	NA	0
21	Nonet	71	719	1529	7	0	0	1263235	691	0	correct_rejection	NA	0
21	Nonet	72	720	1530	8	0	0	1263943	692	0	correct_rejection	NA	0
21	Nonet	73	721	1531	9	0	0	1264652	692	0	correct_rejection	NA	0
21	Nonet	74	722	1532	0	1	2	1265360	692	1	hit	372	0
21	Nonet	75	723	1533	7	0	0	1266069	692	0	correct_rejection	NA	0
21	Nonet	76	724	1534	8	0	0	1266778	691	0	correct_rejection	NA	0
21	Nonet	77	725	1535	0	1	1	1267486	692	1	hit	406	0
21	Nonet	78	726	1536	9	0	0	1268195	691	0	correct_rejection	NA	0
21	Nonet	79	727	1537	7	0	0	1268903	692	0	correct_rejection	NA	0
21	Nonet	80	728	1538	8	0	0	1269612	692	0	correct_rejection	NA	0
21	Nonet	81	729	1539	9	0	0	1270320	692	0	correct_rejection	NA	0
21	Nonet	82	730	1540	6	0	0	1271029	692	0	correct_rejection	NA	0
21	Nonet	83	731	1541	5	0	0	1271738	691	0	correct_rejection	NA	0
21	Nonet	84	732	1542	4	0	0	1272446	692	0	correct_rejection	NA	0
21	Nonet	85	733	1543	6	0	0	1273155	691	0	correct_rejection	NA	0
21	Nonet	86	734	1544	5	0	0	1273863	692	0	correct_rejection	NA	0
21	Nonet	87	735	1545	4	0	0	1274572	691	0	correct_rejection	NA	0
21	Nonet	88	736	1546	0	1	2	1275280	692	1	hit	403	0
21	Nonet	89	737	1547	6	0	0	1275989	692	0	correct_rejection	NA	0
21	Nonet	90	738	1548	5	0	0	1276698	691	0	correct_rejection	NA	0
21	Nonet	91	739	1549	4	0	0	1277406	692	0	correct_rejection	NA	0
21	Nonet	92	740	1550	7	0	0	1278115	691	0	correct_rejection	NA	0
21	Nonet	93	741	1551	8	0	0	1278823	692	0	correct_rejection	NA	0
21	Nonet	94	742	1552	9	0	0	1279532	691	0	correct_rejection	NA	0
21	Nonet	95	743	1553	7	0	0	1280240	692	0	correct_rejection	NA	0
21	Nonet	96	744	1554	8	0	0	1280949	692	0	correct_rejection	NA	0
21	Nonet	97	745	1555	9	0	0	1281657	692	0	correct_rejection	NA	0
21	Nonet	98	746	1556	7	0	0	1282366	692	0	correct_rejection	NA	0
21	Nonet	99	747	1557	0	1	1	1283075	691	1	hit	406	0
21	Nonet	100	748	1558	8	0	0	1283783	692	0	correct_rejection	NA	0
21	Nonet	101	749	1559	9	0	0	1284492	691	0	correct_rejection	NA	0
21	Nonet	102	750	1560	4	0	0	1285200	692	0	correct_rejection	NA	0
21	Nonet	103	751	1561	0	1	1	1285909	692	1	hit	487	0
21	Nonet	104	752	1562	5	0	0	1286617	692	0	correct_rejection	NA	0
21	Nonet	105	753	1563	6	0	0	1287326	692	0	correct_rejection	NA	0
21	Nonet	106	754	1564	0	1	2	1288035	691	1	hit	397	0
21	Nonet	107	755	1565	4	0	0	1288743	692	0	correct_rejection	NA	0
21	Nonet	108	756	1566	5	0	0	1289452	691	0	correct_rejection	NA	0
21	Nonet	109	757	1567	6	0	0	1290160	692	0	correct_rejection	NA	0
21	Nonet	110	758	1568	4	0	0	1290869	692	0	correct_rejection	NA	0
21	Nonet	111	759	1569	5	0	0	1291577	692	0	correct_rejection	NA	0
21	Nonet	112	760	1570	6	0	0	1292286	692	0	correct_rejection	NA	0
21	Nonet	113	761	1571	9	0	0	1292995	691	0	correct_rejection	NA	0
21	Nonet	114	762	1572	8	0	0	1293703	692	0	correct_rejection	NA	0
21	Nonet	115	763	1573	7	0	0	1294412	691	0	correct_rejection	NA	0
21	Nonet	116	764	1574	9	0	0	1295120	692	0	correct_rejection	NA	0
21	Nonet	117	765	1575	0	1	1	1295829	692	1	hit	445	0
21	Nonet	118	766	1576	8	0	0	1296537	692	0	correct_rejection	NA	0
21	Nonet	119	767	1577	7	0	0	1297246	692	0	correct_rejection	NA	0
21	Nonet	120	768	1578	9	0	0	1297955	691	0	correct_rejection	NA	0
21	Nonet	121	769	1579	8	0	0	1298663	692	0	correct_rejection	NA	0
21	Nonet	122	770	1580	0	1	1	1299372	691	1	hit	405	0
21	Nonet	123	771	1581	7	0	0	1300080	692	0	correct_rejection	NA	0
21	Nonet	124	772	1582	9	0	0	1300789	692	0	correct_rejection	NA	0
21	Nonet	125	773	1583	8	0	0	1301497	692	0	correct_rejection	NA	0
21	Nonet	126	774	1584	7	0	0	1302206	692	0	correct_rejection	NA	0
21	Nonet	127	775	1585	0	1	2	1302915	691	1	hit	430	0
21	Nonet	128	776	1586	9	0	0	1303623	692	0	correct_rejection	NA	0
21	Nonet	129	777	1587	8	0	0	1304332	691	0	correct_rejection	NA	0
21	Nonet	130	778	1588	0	1	1	1305040	692	1	hit	475	0
21	Nonet	131	779	1589	7	0	0	1305749	691	0	correct_rejection	NA	0
21	Nonet	132	780	1590	9	0	0	1306457	692	0	correct_rejection	NA	0
21	Nonet	133	781	1591	8	0	0	1307166	692	0	correct_rejection	NA	0
21	Nonet	134	782	1592	7	0	0	1307875	691	0	correct_rejection	NA	0
21	Nonet	135	783	1593	7	0	0	1308583	692	0	correct_rejection	NA	0
21	Nonet	136	784	1594	8	0	0	1309292	691	0	correct_rejection	NA	0
21	Nonet	137	785	1595	9	0	0	1310000	692	0	correct_rejection	NA	0
21	Nonet	138	786	1596	7	0	0	1310709	691	0	correct_rejection	NA	0
21	Nonet	139	787	1597	8	0	0	1311417	692	0	correct_rejection	NA	0
21	Nonet	140	788	1598	9	0	0	1312126	692	0	correct_rejection	NA	0
