ID	block	trial_block	trial_cat	trial_total	number	violation	level_violation	onset	duration	Response	Hit_Miss	RT	pre_trial_fixcross_ISI
first_trigger_at: 11222
trigger nr 3 at 13222
22	Triplet	1	325	1	6	0	0	19639	692	0	correct_rejection	NA	6378
22	Triplet	2	326	2	5	0	0	20348	692	0	correct_rejection	NA	0
22	Triplet	3	327	3	4	0	0	21056	692	0	correct_rejection	NA	0
22	Triplet	4	328	4	6	0	0	21765	692	0	correct_rejection	NA	0
22	Triplet	5	329	5	5	0	0	22474	691	0	correct_rejection	NA	0
22	Triplet	6	330	6	4	0	0	23182	692	0	correct_rejection	NA	0
22	Triplet	7	331	7	9	0	0	23891	691	0	correct_rejection	NA	0
22	Triplet	8	332	8	8	0	0	24599	692	0	correct_rejection	NA	0
22	Triplet	9	333	9	7	0	0	25308	691	0	correct_rejection	NA	0
22	Triplet	10	334	10	9	0	0	26016	692	0	correct_rejection	NA	0
22	Triplet	11	335	11	8	0	0	26725	692	0	correct_rejection	NA	0
22	Triplet	12	336	12	7	0	0	27434	691	0	correct_rejection	NA	0
22	Triplet	13	337	13	7	0	0	28142	692	0	correct_rejection	NA	0
22	Triplet	14	338	14	0	1	1	28851	691	1	hit	334	0
22	Triplet	15	339	15	8	0	0	29559	692	0	correct_rejection	NA	0
22	Triplet	16	340	16	9	0	0	30268	691	0	correct_rejection	NA	0
22	Triplet	17	341	17	9	0	0	30976	692	0	correct_rejection	NA	0
22	Triplet	18	342	18	8	0	0	31685	692	0	correct_rejection	NA	0
22	Triplet	19	343	19	7	0	0	32393	692	0	correct_rejection	NA	0
22	Triplet	20	344	20	6	0	0	33102	692	0	correct_rejection	NA	0
22	Triplet	21	345	21	5	0	0	33811	691	0	correct_rejection	NA	0
22	Triplet	22	346	22	4	0	0	34519	692	0	correct_rejection	NA	0
22	Triplet	23	347	23	7	0	0	35228	691	0	correct_rejection	NA	0
22	Triplet	24	348	24	8	0	0	35936	692	0	correct_rejection	NA	0
22	Triplet	25	349	25	9	0	0	36645	692	0	correct_rejection	NA	0
22	Triplet	26	350	26	4	0	0	37353	692	0	correct_rejection	NA	0
22	Triplet	27	351	27	5	0	0	38062	692	0	correct_rejection	NA	0
22	Triplet	28	352	28	6	0	0	38771	691	0	correct_rejection	NA	0
22	Triplet	29	353	29	6	0	0	39479	692	0	correct_rejection	NA	0
22	Triplet	30	354	30	0	1	1	40188	691	1	hit	355	0
22	Triplet	31	355	31	5	0	0	40896	692	0	correct_rejection	NA	0
22	Triplet	32	356	32	4	0	0	41605	692	0	correct_rejection	NA	0
22	Triplet	33	357	33	4	0	0	42313	692	0	correct_rejection	NA	0
22	Triplet	34	358	34	5	0	0	43022	692	0	correct_rejection	NA	0
22	Triplet	35	359	35	6	0	0	43731	691	0	correct_rejection	NA	0
22	Triplet	36	360	36	9	0	0	44439	692	0	correct_rejection	NA	0
22	Triplet	37	361	37	8	0	0	45148	691	0	correct_rejection	NA	0
22	Triplet	38	362	38	7	0	0	45856	692	0	correct_rejection	NA	0
22	Triplet	39	363	39	4	0	0	46565	691	0	correct_rejection	NA	0
22	Triplet	40	364	40	5	0	0	47273	692	0	correct_rejection	NA	0
22	Triplet	41	365	41	6	0	0	47982	692	0	correct_rejection	NA	0
22	Triplet	42	366	42	4	0	0	48690	692	0	correct_rejection	NA	0
22	Triplet	43	367	43	0	1	1	49399	692	1	hit	365	0
22	Triplet	44	368	44	5	0	0	50108	691	0	correct_rejection	NA	0
22	Triplet	45	369	45	6	0	0	50816	692	0	correct_rejection	NA	0
22	Triplet	46	370	46	7	0	0	51525	691	0	correct_rejection	NA	0
22	Triplet	47	371	47	8	0	0	52233	692	0	correct_rejection	NA	0
22	Triplet	48	372	48	9	0	0	52942	692	0	correct_rejection	NA	0
22	Triplet	49	373	49	7	0	0	53650	692	0	correct_rejection	NA	0
22	Triplet	50	374	50	8	0	0	54359	692	0	correct_rejection	NA	0
22	Triplet	51	375	51	9	0	0	55068	691	0	correct_rejection	NA	0
22	Triplet	52	376	52	0	1	2	55776	692	1	hit	377	0
22	Triplet	53	377	53	6	0	0	56485	691	0	correct_rejection	NA	0
22	Triplet	54	378	54	5	0	0	57193	692	0	correct_rejection	NA	0
22	Triplet	55	379	55	4	0	0	57902	692	0	correct_rejection	NA	0
22	Triplet	56	380	56	0	1	2	58610	692	1	hit	343	0
22	Triplet	57	381	57	7	0	0	59319	692	0	correct_rejection	NA	0
22	Triplet	58	382	58	8	0	0	60028	691	0	correct_rejection	NA	0
22	Triplet	59	383	59	9	0	0	60736	692	0	correct_rejection	NA	0
22	Triplet	60	384	60	9	0	0	61445	691	0	correct_rejection	NA	0
22	Triplet	61	385	61	8	0	0	62153	692	0	correct_rejection	NA	0
22	Triplet	62	386	62	7	0	0	62862	692	0	correct_rejection	NA	0
22	Triplet	63	387	63	4	0	0	63570	692	0	correct_rejection	NA	0
22	Triplet	64	388	64	5	0	0	64279	692	0	correct_rejection	NA	0
22	Triplet	65	389	65	6	0	0	64988	691	0	correct_rejection	NA	0
22	Triplet	66	390	66	7	0	0	65696	692	0	correct_rejection	NA	0
22	Triplet	67	391	67	8	0	0	66405	691	0	correct_rejection	NA	0
22	Triplet	68	392	68	0	1	1	67113	692	1	hit	342	0
22	Triplet	69	393	69	9	0	0	67822	691	0	correct_rejection	NA	0
22	Triplet	70	394	70	4	0	0	68530	692	0	correct_rejection	NA	0
22	Triplet	71	395	71	5	0	0	69239	692	0	correct_rejection	NA	0
22	Triplet	72	396	72	0	1	1	69947	692	1	hit	467	0
22	Triplet	73	397	73	6	0	0	70656	692	0	correct_rejection	NA	0
22	Triplet	74	398	74	4	0	0	71365	691	0	correct_rejection	NA	0
22	Triplet	75	399	75	0	1	1	72073	692	1	hit	349	0
22	Triplet	76	400	76	5	0	0	72782	691	0	correct_rejection	NA	0
22	Triplet	77	401	77	6	0	0	73490	692	0	correct_rejection	NA	0
22	Triplet	78	402	78	9	0	0	74199	692	0	correct_rejection	NA	0
22	Triplet	79	403	79	0	1	1	74907	692	1	hit	289	0
22	Triplet	80	404	80	8	0	0	75616	692	0	correct_rejection	NA	0
22	Triplet	81	405	81	7	0	0	76325	691	0	correct_rejection	NA	0
22	Triplet	82	406	82	9	0	0	77033	692	0	correct_rejection	NA	0
22	Triplet	83	407	83	8	0	0	77742	691	0	correct_rejection	NA	0
22	Triplet	84	408	84	7	0	0	78450	692	0	correct_rejection	NA	0
22	Triplet	85	409	85	6	0	0	79159	692	0	correct_rejection	NA	0
22	Triplet	86	410	86	5	0	0	79867	692	0	correct_rejection	NA	0
22	Triplet	87	411	87	4	0	0	80576	692	0	correct_rejection	NA	0
22	Triplet	88	412	88	4	0	0	81285	691	0	correct_rejection	NA	0
22	Triplet	89	413	89	5	0	0	81993	692	0	correct_rejection	NA	0
22	Triplet	90	414	90	6	0	0	82702	691	0	correct_rejection	NA	0
22	Triplet	91	415	91	6	0	0	83410	692	0	correct_rejection	NA	0
22	Triplet	92	416	92	5	0	0	84119	692	0	correct_rejection	NA	0
22	Triplet	93	417	93	4	0	0	84827	692	0	correct_rejection	NA	0
22	Triplet	94	418	94	9	0	0	85536	692	0	correct_rejection	NA	0
22	Triplet	95	419	95	8	0	0	86245	691	0	correct_rejection	NA	0
22	Triplet	96	420	96	7	0	0	86953	692	0	correct_rejection	NA	0
22	Triplet	97	421	97	0	1	2	87662	691	1	hit	360	0
22	Triplet	98	422	98	7	0	0	88370	692	0	correct_rejection	NA	0
22	Triplet	99	423	99	8	0	0	89079	691	0	correct_rejection	NA	0
22	Triplet	100	424	100	9	0	0	89787	692	0	correct_rejection	NA	0
22	Triplet	101	425	101	7	0	0	90496	692	0	correct_rejection	NA	0
22	Triplet	102	426	102	8	0	0	91204	692	0	correct_rejection	NA	0
22	Triplet	103	427	103	9	0	0	91913	692	0	correct_rejection	NA	0
22	Triplet	104	428	104	6	0	0	92622	691	0	correct_rejection	NA	0
22	Triplet	105	429	105	5	0	0	93330	692	0	correct_rejection	NA	0
22	Triplet	106	430	106	4	0	0	94039	691	0	correct_rejection	NA	0
22	Triplet	107	431	107	0	1	2	94747	692	1	hit	314	0
22	Triplet	108	432	108	6	0	0	95456	692	0	correct_rejection	NA	0
22	Triplet	109	433	109	5	0	0	96164	692	0	correct_rejection	NA	0
22	Triplet	110	434	110	0	1	1	96873	692	1	hit	420	0
22	Triplet	111	435	111	4	0	0	97582	691	0	correct_rejection	NA	0
22	Triplet	112	436	112	9	0	0	98290	692	0	correct_rejection	NA	0
22	Triplet	113	437	113	8	0	0	98999	691	0	correct_rejection	NA	0
22	Triplet	114	438	114	7	0	0	99707	692	0	correct_rejection	NA	0
22	Triplet	115	439	115	4	0	0	100416	692	0	correct_rejection	NA	0
22	Triplet	116	440	116	5	0	0	101124	692	0	correct_rejection	NA	0
22	Triplet	117	441	117	6	0	0	101833	692	0	correct_rejection	NA	0
22	Triplet	118	442	118	9	0	0	102542	691	0	correct_rejection	NA	0
22	Triplet	119	443	119	8	0	0	103250	692	0	correct_rejection	NA	0
22	Triplet	120	444	120	7	0	0	103959	691	0	correct_rejection	NA	0
22	Triplet	121	445	121	7	0	0	104667	692	0	correct_rejection	NA	0
22	Triplet	122	446	122	8	0	0	105376	692	0	correct_rejection	NA	0
22	Triplet	123	447	123	9	0	0	106084	692	0	correct_rejection	NA	0
22	Triplet	124	448	124	6	0	0	106793	692	0	correct_rejection	NA	0
22	Triplet	125	449	125	5	0	0	107502	691	0	correct_rejection	NA	0
22	Triplet	126	450	126	4	0	0	108210	692	0	correct_rejection	NA	0
22	Triplet	127	451	127	4	0	0	108919	691	0	correct_rejection	NA	0
22	Triplet	128	452	128	0	1	1	109627	692	1	hit	358	0
22	Triplet	129	453	129	5	0	0	110336	691	0	correct_rejection	NA	0
22	Triplet	130	454	130	6	0	0	111044	692	0	correct_rejection	NA	0
22	Triplet	131	455	131	0	1	2	111753	692	1	hit	406	0
22	Triplet	132	456	132	4	0	0	112461	692	0	correct_rejection	NA	0
22	Triplet	133	457	133	5	0	0	113170	692	0	correct_rejection	NA	0
22	Triplet	134	458	134	6	0	0	113879	691	0	correct_rejection	NA	0
22	Triplet	135	459	135	6	0	0	114587	692	0	correct_rejection	NA	0
22	Triplet	136	460	136	5	0	0	115296	691	0	correct_rejection	NA	0
22	Triplet	137	461	137	4	0	0	116004	692	0	correct_rejection	NA	0
22	Triplet	138	462	138	6	0	0	116713	692	0	correct_rejection	NA	0
22	Triplet	139	463	139	5	0	0	117421	692	0	correct_rejection	NA	0
22	Triplet	140	464	140	0	1	1	118130	692	1	hit	358	0
22	Triplet	141	465	141	4	0	0	118839	691	0	correct_rejection	NA	0
22	Triplet	142	466	142	7	0	0	119547	692	0	correct_rejection	NA	0
22	Triplet	143	467	143	8	0	0	120256	691	0	correct_rejection	NA	0
22	Triplet	144	468	144	9	0	0	120964	692	0	correct_rejection	NA	0
22	Triplet	145	469	145	7	0	0	121673	692	0	correct_rejection	NA	0
22	Triplet	146	470	146	8	0	0	122381	692	0	correct_rejection	NA	0
22	Triplet	147	471	147	9	0	0	123090	692	0	correct_rejection	NA	0
22	Triplet	148	472	148	4	0	0	123799	691	0	correct_rejection	NA	0
22	Triplet	149	473	149	5	0	0	124507	692	0	correct_rejection	NA	0
22	Triplet	150	474	150	6	0	0	125216	691	0	correct_rejection	NA	0
22	Triplet	151	475	151	0	1	2	125924	692	1	hit	301	0
22	Triplet	152	476	152	7	0	0	126633	691	0	correct_rejection	NA	0
22	Triplet	153	477	153	8	0	0	127341	692	0	correct_rejection	NA	0
22	Triplet	154	478	154	0	1	1	128050	692	1	hit	396	0
22	Triplet	155	479	155	9	0	0	128758	692	0	correct_rejection	NA	0
22	Triplet	156	480	156	9	0	0	129467	692	0	correct_rejection	NA	0
22	Triplet	157	481	157	8	0	0	130176	691	0	correct_rejection	NA	0
22	Triplet	158	482	158	7	0	0	130884	692	0	correct_rejection	NA	0
22	Triplet	159	483	159	9	0	0	131593	691	0	correct_rejection	NA	0
22	Triplet	160	484	160	0	1	1	132301	692	1	hit	351	0
22	Triplet	161	485	161	8	0	0	133010	692	0	correct_rejection	NA	0
22	Triplet	162	486	162	7	0	0	133718	692	0	correct_rejection	NA	0
22	Nonet	1	1	163	9	0	0	142688	692	0	correct_rejection	NA	6429
22	Nonet	2	2	164	8	0	0	143397	691	0	correct_rejection	NA	0
22	Nonet	3	3	165	7	0	0	144105	692	0	correct_rejection	NA	0
22	Nonet	4	4	166	9	0	0	144814	691	0	correct_rejection	NA	0
22	Nonet	5	5	167	8	0	0	145522	692	0	correct_rejection	NA	0
22	Nonet	6	6	168	7	0	0	146231	692	0	correct_rejection	NA	0
22	Nonet	7	7	169	9	0	0	146939	692	0	correct_rejection	NA	0
22	Nonet	8	8	170	8	0	0	147648	692	0	correct_rejection	NA	0
22	Nonet	9	9	171	7	0	0	148357	691	0	correct_rejection	NA	0
22	Nonet	10	10	172	6	0	0	149065	692	0	correct_rejection	NA	0
22	Nonet	11	11	173	5	0	0	149774	691	0	correct_rejection	NA	0
22	Nonet	12	12	174	4	0	0	150482	692	0	correct_rejection	NA	0
22	Nonet	13	13	175	6	0	0	151191	692	0	correct_rejection	NA	0
22	Nonet	14	14	176	5	0	0	151899	692	0	correct_rejection	NA	0
22	Nonet	15	15	177	4	0	0	152608	692	0	correct_rejection	NA	0
22	Nonet	16	16	178	6	0	0	153317	691	0	correct_rejection	NA	0
22	Nonet	17	17	179	0	1	1	154025	692	1	hit	338	0
22	Nonet	18	18	180	5	0	0	154734	691	0	correct_rejection	NA	0
22	Nonet	19	19	181	4	0	0	155442	692	0	correct_rejection	NA	0
22	Nonet	20	20	182	6	0	0	156151	692	0	correct_rejection	NA	0
22	Nonet	21	21	183	5	0	0	156859	692	0	correct_rejection	NA	0
22	Nonet	22	22	184	0	1	1	157568	692	1	hit	380	0
22	Nonet	23	23	185	4	0	0	158277	691	0	correct_rejection	NA	0
22	Nonet	24	24	186	6	0	0	158985	692	0	correct_rejection	NA	0
22	Nonet	25	25	187	5	0	0	159694	691	0	correct_rejection	NA	0
22	Nonet	26	26	188	4	0	0	160402	692	0	correct_rejection	NA	0
22	Nonet	27	27	189	6	0	0	161111	692	0	correct_rejection	NA	0
22	Nonet	28	28	190	5	0	0	161819	692	0	correct_rejection	NA	0
22	Nonet	29	29	191	4	0	0	162528	692	0	correct_rejection	NA	0
22	Nonet	30	30	192	9	0	0	163237	691	0	correct_rejection	NA	0
22	Nonet	31	31	193	8	0	0	163945	692	0	correct_rejection	NA	0
22	Nonet	32	32	194	0	1	1	164654	691	1	hit	367	0
22	Nonet	33	33	195	7	0	0	165362	692	0	correct_rejection	NA	0
22	Nonet	34	34	196	9	0	0	166071	691	0	correct_rejection	NA	0
22	Nonet	35	35	197	8	0	0	166779	692	0	correct_rejection	NA	0
22	Nonet	36	36	198	7	0	0	167488	692	0	correct_rejection	NA	0
22	Nonet	37	37	199	9	0	0	168196	692	0	correct_rejection	NA	0
22	Nonet	38	38	200	8	0	0	168905	692	0	correct_rejection	NA	0
22	Nonet	39	39	201	7	0	0	169614	691	0	correct_rejection	NA	0
22	Nonet	40	40	202	4	0	0	170322	692	0	correct_rejection	NA	0
22	Nonet	41	41	203	5	0	0	171031	691	0	correct_rejection	NA	0
22	Nonet	42	42	204	6	0	0	171739	692	0	correct_rejection	NA	0
22	Nonet	43	43	205	0	1	2	172448	692	1	hit	355	0
22	Nonet	44	44	206	4	0	0	173156	692	0	correct_rejection	NA	0
22	Nonet	45	45	207	5	0	0	173865	692	0	correct_rejection	NA	0
22	Nonet	46	46	208	6	0	0	174574	691	0	correct_rejection	NA	0
22	Nonet	47	47	209	0	1	2	175282	692	1	hit	551	0
22	Nonet	48	48	210	4	0	0	175991	691	0	correct_rejection	NA	0
22	Nonet	49	49	211	5	0	0	176699	692	0	correct_rejection	NA	0
22	Nonet	50	50	212	6	0	0	177408	692	0	correct_rejection	NA	0
22	Nonet	51	51	213	4	0	0	178116	692	0	correct_rejection	NA	0
22	Nonet	52	52	214	5	0	0	178825	692	0	correct_rejection	NA	0
22	Nonet	53	53	215	0	1	1	179534	691	1	hit	309	0
22	Nonet	54	54	216	6	0	0	180242	692	0	correct_rejection	NA	0
22	Nonet	55	55	217	4	0	0	180951	691	0	correct_rejection	NA	0
22	Nonet	56	56	218	5	0	0	181659	692	0	correct_rejection	NA	0
22	Nonet	57	57	219	6	0	0	182368	691	0	correct_rejection	NA	0
22	Nonet	58	58	220	4	0	0	183076	692	0	correct_rejection	NA	0
22	Nonet	59	59	221	5	0	0	183785	692	0	correct_rejection	NA	0
22	Nonet	60	60	222	6	0	0	184493	692	0	correct_rejection	NA	0
22	Nonet	61	61	223	7	0	0	185202	692	0	correct_rejection	NA	0
22	Nonet	62	62	224	8	0	0	185911	691	0	correct_rejection	NA	0
22	Nonet	63	63	225	9	0	0	186619	692	0	correct_rejection	NA	0
22	Nonet	64	64	226	7	0	0	187328	691	0	correct_rejection	NA	0
22	Nonet	65	65	227	8	0	0	188036	692	0	correct_rejection	NA	0
22	Nonet	66	66	228	0	1	1	188745	692	1	hit	300	0
22	Nonet	67	67	229	9	0	0	189453	692	0	correct_rejection	NA	0
22	Nonet	68	68	230	7	0	0	190162	692	0	correct_rejection	NA	0
22	Nonet	69	69	231	8	0	0	190871	691	0	correct_rejection	NA	0
22	Nonet	70	70	232	9	0	0	191579	692	0	correct_rejection	NA	0
22	Nonet	71	71	233	4	0	0	192288	691	0	correct_rejection	NA	0
22	Nonet	72	72	234	5	0	0	192996	692	0	correct_rejection	NA	0
22	Nonet	73	73	235	6	0	0	193705	692	0	correct_rejection	NA	0
22	Nonet	74	74	236	4	0	0	194413	692	0	correct_rejection	NA	0
22	Nonet	75	75	237	5	0	0	195122	692	0	correct_rejection	NA	0
22	Nonet	76	76	238	6	0	0	195831	691	0	correct_rejection	NA	0
22	Nonet	77	77	239	4	0	0	196539	692	0	correct_rejection	NA	0
22	Nonet	78	78	240	5	0	0	197248	691	0	correct_rejection	NA	0
22	Nonet	79	79	241	6	0	0	197956	692	0	correct_rejection	NA	0
22	Nonet	80	80	242	9	0	0	198665	692	0	correct_rejection	NA	0
22	Nonet	81	81	243	8	0	0	199373	692	0	correct_rejection	NA	0
22	Nonet	82	82	244	0	1	1	200082	692	1	hit	338	0
22	Nonet	83	83	245	7	0	0	200791	691	0	correct_rejection	NA	0
22	Nonet	84	84	246	9	0	0	201499	692	0	correct_rejection	NA	0
22	Nonet	85	85	247	8	0	0	202208	691	0	correct_rejection	NA	0
22	Nonet	86	86	248	0	1	1	202916	692	1	hit	384	0
22	Nonet	87	87	249	7	0	0	203625	691	0	correct_rejection	NA	0
22	Nonet	88	88	250	9	0	0	204333	692	0	correct_rejection	NA	0
22	Nonet	89	89	251	8	0	0	205042	692	0	correct_rejection	NA	0
22	Nonet	90	90	252	7	0	0	205750	692	0	correct_rejection	NA	0
22	Nonet	91	91	253	0	1	3	206459	692	1	hit	288	0
22	Nonet	92	92	254	9	0	0	207168	691	0	correct_rejection	NA	0
22	Nonet	93	93	255	8	0	0	207876	692	0	correct_rejection	NA	0
22	Nonet	94	94	256	7	0	0	208585	691	0	correct_rejection	NA	0
22	Nonet	95	95	257	9	0	0	209293	692	0	correct_rejection	NA	0
22	Nonet	96	96	258	8	0	0	210002	692	0	correct_rejection	NA	0
22	Nonet	97	97	259	7	0	0	210710	692	0	correct_rejection	NA	0
22	Nonet	98	98	260	9	0	0	211419	692	0	correct_rejection	NA	0
22	Nonet	99	99	261	8	0	0	212128	691	0	correct_rejection	NA	0
22	Nonet	100	100	262	7	0	0	212836	692	0	correct_rejection	NA	0
22	Nonet	101	101	263	7	0	0	213545	691	0	correct_rejection	NA	0
22	Nonet	102	102	264	0	1	1	214253	692	1	hit	317	0
22	Nonet	103	103	265	8	0	0	214962	692	0	correct_rejection	NA	0
22	Nonet	104	104	266	9	0	0	215670	692	0	correct_rejection	NA	0
22	Nonet	105	105	267	7	0	0	216379	692	0	correct_rejection	NA	0
22	Nonet	106	106	268	8	0	0	217088	691	0	correct_rejection	NA	0
22	Nonet	107	107	269	9	0	0	217796	692	0	correct_rejection	NA	0
22	Nonet	108	108	270	7	0	0	218505	691	0	correct_rejection	NA	0
22	Nonet	109	109	271	8	0	0	219213	692	0	correct_rejection	NA	0
22	Nonet	110	110	272	9	0	0	219922	692	0	correct_rejection	NA	0
22	Nonet	111	111	273	6	0	0	220630	692	0	correct_rejection	NA	0
22	Nonet	112	112	274	5	0	0	221339	692	0	correct_rejection	NA	0
22	Nonet	113	113	275	0	1	1	222048	691	1	hit	360	0
22	Nonet	114	114	276	4	0	0	222756	692	0	correct_rejection	NA	0
22	Nonet	115	115	277	6	0	0	223465	691	0	correct_rejection	NA	0
22	Nonet	116	116	278	5	0	0	224173	692	0	correct_rejection	NA	0
22	Nonet	117	117	279	4	0	0	224882	691	0	correct_rejection	NA	0
22	Nonet	118	118	280	0	1	2	225590	692	1	hit	437	0
22	Nonet	119	119	281	6	0	0	226299	692	0	correct_rejection	NA	0
22	Nonet	120	120	282	5	0	0	227007	692	0	correct_rejection	NA	0
22	Nonet	121	121	283	4	0	0	227716	692	0	correct_rejection	NA	0
22	Nonet	122	122	284	4	0	0	228425	691	0	correct_rejection	NA	0
22	Nonet	123	123	285	5	0	0	229133	692	0	correct_rejection	NA	0
22	Nonet	124	124	286	6	0	0	229842	691	0	correct_rejection	NA	0
22	Nonet	125	125	287	4	0	0	230550	692	0	correct_rejection	NA	0
22	Nonet	126	126	288	5	0	0	231259	692	0	correct_rejection	NA	0
22	Nonet	127	127	289	0	1	1	231967	692	1	hit	296	0
22	Nonet	128	128	290	6	0	0	232676	692	0	correct_rejection	NA	0
22	Nonet	129	129	291	4	0	0	233385	691	0	correct_rejection	NA	0
22	Nonet	130	130	292	0	1	1	234093	692	1	hit	425	0
22	Nonet	131	131	293	5	0	0	234802	691	0	correct_rejection	NA	0
22	Nonet	132	132	294	6	0	0	235510	692	0	correct_rejection	NA	0
22	Nonet	133	133	295	6	0	0	236219	692	0	correct_rejection	NA	0
22	Nonet	134	134	296	5	0	0	236927	692	0	correct_rejection	NA	0
22	Nonet	135	135	297	4	0	0	237636	692	0	correct_rejection	NA	0
22	Nonet	136	136	298	6	0	0	238345	691	0	correct_rejection	NA	0
22	Nonet	137	137	299	5	0	0	239053	692	0	correct_rejection	NA	0
22	Nonet	138	138	300	4	0	0	239762	691	0	correct_rejection	NA	0
22	Nonet	139	139	301	6	0	0	240470	692	0	correct_rejection	NA	0
22	Nonet	140	140	302	5	0	0	241179	692	0	correct_rejection	NA	0
22	Nonet	141	141	303	4	0	0	241887	692	0	correct_rejection	NA	0
22	Nonet	142	142	304	7	0	0	242596	692	0	correct_rejection	NA	0
22	Nonet	143	143	305	8	0	0	243305	691	0	correct_rejection	NA	0
22	Nonet	144	144	306	0	1	1	244013	692	1	hit	309	0
22	Nonet	145	145	307	9	0	0	244722	691	0	correct_rejection	NA	0
22	Nonet	146	146	308	7	0	0	245430	692	0	correct_rejection	NA	0
22	Nonet	147	147	309	8	0	0	246139	691	0	correct_rejection	NA	0
22	Nonet	148	148	310	9	0	0	246847	692	0	correct_rejection	NA	0
22	Nonet	149	149	311	0	1	2	247556	692	1	hit	354	0
22	Nonet	150	150	312	7	0	0	248264	692	0	correct_rejection	NA	0
22	Nonet	151	151	313	8	0	0	248973	692	0	correct_rejection	NA	0
22	Nonet	152	152	314	9	0	0	249682	691	0	correct_rejection	NA	0
22	Nonet	153	153	315	7	0	0	250390	692	0	correct_rejection	NA	0
22	Nonet	154	154	316	8	0	0	251099	691	0	correct_rejection	NA	0
22	Nonet	155	155	317	9	0	0	251807	692	0	correct_rejection	NA	0
22	Nonet	156	156	318	7	0	0	252516	692	0	correct_rejection	NA	0
22	Nonet	157	157	319	8	0	0	253224	692	0	correct_rejection	NA	0
22	Nonet	158	158	320	9	0	0	253933	692	0	correct_rejection	NA	0
22	Nonet	159	159	321	0	1	2	254642	691	1	hit	332	0
22	Nonet	160	160	322	7	0	0	255350	692	0	correct_rejection	NA	0
22	Nonet	161	161	323	8	0	0	256059	691	0	correct_rejection	NA	0
22	Nonet	162	162	324	9	0	0	256767	692	0	correct_rejection	NA	0
22	Single	1	325	325	9	0	0	266871	691	0	correct_rejection	NA	7609
22	Single	2	326	326	5	0	0	267579	692	0	correct_rejection	NA	0
22	Single	3	327	327	7	0	0	268288	691	0	correct_rejection	NA	0
22	Single	4	328	328	6	0	0	268996	692	0	correct_rejection	NA	0
22	Single	5	329	329	0	1	1	269705	692	1	hit	292	0
22	Single	6	330	330	9	0	0	270413	692	0	correct_rejection	NA	0
22	Single	7	331	331	4	0	0	271122	692	0	correct_rejection	NA	0
22	Single	8	332	332	4	0	0	271831	691	0	correct_rejection	NA	0
22	Single	9	333	333	7	0	0	272539	692	0	correct_rejection	NA	0
22	Single	10	334	334	8	0	0	273248	691	0	correct_rejection	NA	0
22	Single	11	335	335	5	0	0	273956	692	0	correct_rejection	NA	0
22	Single	12	336	336	9	0	0	274665	692	0	correct_rejection	NA	0
22	Single	13	337	337	0	1	1	275373	692	1	hit	345	0
22	Single	14	338	338	8	0	0	276082	692	0	correct_rejection	NA	0
22	Single	15	339	339	6	0	0	276791	691	0	correct_rejection	NA	0
22	Single	16	340	340	7	0	0	277499	692	0	correct_rejection	NA	0
22	Single	17	341	341	4	0	0	278208	691	0	correct_rejection	NA	0
22	Single	18	342	342	0	1	1	278916	692	1	hit	380	0
22	Single	19	343	343	5	0	0	279625	691	0	correct_rejection	NA	0
22	Single	20	344	344	8	0	0	280333	692	0	correct_rejection	NA	0
22	Single	21	345	345	8	0	0	281042	692	0	correct_rejection	NA	0
22	Single	22	346	346	9	0	0	281750	692	0	correct_rejection	NA	0
22	Single	23	347	347	7	0	0	282459	692	0	correct_rejection	NA	0
22	Single	24	348	348	5	0	0	283168	691	0	correct_rejection	NA	0
22	Single	25	349	349	5	0	0	283876	692	0	correct_rejection	NA	0
22	Single	26	350	350	4	0	0	284585	691	0	correct_rejection	NA	0
22	Single	27	351	351	9	0	0	285293	692	0	correct_rejection	NA	0
22	Single	28	352	352	9	0	0	286002	692	0	correct_rejection	NA	0
22	Single	29	353	353	6	0	0	286710	692	0	correct_rejection	NA	0
22	Single	30	354	354	8	0	0	287419	692	0	correct_rejection	NA	0
22	Single	31	355	355	4	0	0	288128	691	0	correct_rejection	NA	0
22	Single	32	356	356	6	0	0	288836	692	0	correct_rejection	NA	0
22	Single	33	357	357	0	1	1	289545	691	1	hit	265	0
22	Single	34	358	358	6	0	0	290253	692	0	correct_rejection	NA	0
22	Single	35	359	359	5	0	0	290962	692	0	correct_rejection	NA	0
22	Single	36	360	360	6	0	0	291670	692	0	correct_rejection	NA	0
22	Single	37	361	361	4	0	0	292379	692	0	correct_rejection	NA	0
22	Single	38	362	362	8	0	0	293088	691	0	correct_rejection	NA	0
22	Single	39	363	363	7	0	0	293796	692	0	correct_rejection	NA	0
22	Single	40	364	364	7	0	0	294505	691	0	correct_rejection	NA	0
22	Single	41	365	365	5	0	0	295213	692	0	correct_rejection	NA	0
22	Single	42	366	366	8	0	0	295922	692	0	correct_rejection	NA	0
22	Single	43	367	367	4	0	0	296630	692	0	correct_rejection	NA	0
22	Single	44	368	368	5	0	0	297339	692	0	correct_rejection	NA	0
22	Single	45	369	369	6	0	0	298048	691	0	correct_rejection	NA	0
22	Single	46	370	370	8	0	0	298756	692	0	correct_rejection	NA	0
22	Single	47	371	371	6	0	0	299465	691	0	correct_rejection	NA	0
22	Single	48	372	372	6	0	0	300173	692	0	correct_rejection	NA	0
22	Single	49	373	373	0	1	1	300882	691	1	hit	312	0
22	Single	50	374	374	4	0	0	301590	692	0	correct_rejection	NA	0
22	Single	51	375	375	7	0	0	302299	692	0	correct_rejection	NA	0
22	Single	52	376	376	9	0	0	303007	692	0	correct_rejection	NA	0
22	Single	53	377	377	0	1	1	303716	692	1	hit	389	0
22	Single	54	378	378	7	0	0	304425	691	0	correct_rejection	NA	0
22	Single	55	379	379	7	0	0	305133	692	0	correct_rejection	NA	0
22	Single	56	380	380	8	0	0	305842	691	0	correct_rejection	NA	0
22	Single	57	381	381	0	1	1	306550	692	1	hit	321	0
22	Single	58	382	382	7	0	0	307259	692	0	correct_rejection	NA	0
22	Single	59	383	383	4	0	0	307967	692	0	correct_rejection	NA	0
22	Single	60	384	384	0	1	1	308676	692	1	hit	314	0
22	Single	61	385	385	9	0	0	309385	691	0	correct_rejection	NA	0
22	Single	62	386	386	8	0	0	310093	692	0	correct_rejection	NA	0
22	Single	63	387	387	9	0	0	310802	691	0	correct_rejection	NA	0
22	Single	64	388	388	5	0	0	311510	692	0	correct_rejection	NA	0
22	Single	65	389	389	5	0	0	312219	692	0	correct_rejection	NA	0
22	Single	66	390	390	7	0	0	312927	692	0	correct_rejection	NA	0
22	Single	67	391	391	5	0	0	313636	692	0	correct_rejection	NA	0
22	Single	68	392	392	9	0	0	314345	691	0	correct_rejection	NA	0
22	Single	69	393	393	6	0	0	315053	692	0	correct_rejection	NA	0
22	Single	70	394	394	9	0	0	315762	691	0	correct_rejection	NA	0
22	Single	71	395	395	9	0	0	316470	692	0	correct_rejection	NA	0
22	Single	72	396	396	4	0	0	317179	692	0	correct_rejection	NA	0
22	Single	73	397	397	6	0	0	317887	692	0	correct_rejection	NA	0
22	Single	74	398	398	7	0	0	318596	692	0	correct_rejection	NA	0
22	Single	75	399	399	6	0	0	319305	691	0	correct_rejection	NA	0
22	Single	76	400	400	5	0	0	320013	692	0	correct_rejection	NA	0
22	Single	77	401	401	0	1	1	320722	691	1	hit	307	0
22	Single	78	402	402	4	0	0	321430	692	0	correct_rejection	NA	0
22	Single	79	403	403	4	0	0	322139	691	0	correct_rejection	NA	0
22	Single	80	404	404	8	0	0	322847	692	0	correct_rejection	NA	0
22	Single	81	405	405	8	0	0	323556	692	0	correct_rejection	NA	0
22	Single	82	406	406	0	1	1	324264	692	1	hit	442	0
22	Single	83	407	407	8	0	0	324973	692	0	correct_rejection	NA	0
22	Single	84	408	408	4	0	0	325682	691	0	correct_rejection	NA	0
22	Single	85	409	409	9	0	0	326390	692	0	correct_rejection	NA	0
22	Single	86	410	410	7	0	0	327099	691	0	correct_rejection	NA	0
22	Single	87	411	411	4	0	0	327807	692	0	correct_rejection	NA	0
22	Single	88	412	412	8	0	0	328516	692	0	correct_rejection	NA	0
22	Single	89	413	413	9	0	0	329224	692	0	correct_rejection	NA	0
22	Single	90	414	414	4	0	0	329933	692	0	correct_rejection	NA	0
22	Single	91	415	415	7	0	0	330642	691	0	correct_rejection	NA	0
22	Single	92	416	416	6	0	0	331350	692	0	correct_rejection	NA	0
22	Single	93	417	417	6	0	0	332059	691	0	correct_rejection	NA	0
22	Single	94	418	418	0	1	1	332767	692	1	hit	357	0
22	Single	95	419	419	8	0	0	333476	692	0	correct_rejection	NA	0
22	Single	96	420	420	8	0	0	334184	692	0	correct_rejection	NA	0
22	Single	97	421	421	5	0	0	334893	692	0	correct_rejection	NA	0
22	Single	98	422	422	5	0	0	335602	691	0	correct_rejection	NA	0
22	Single	99	423	423	6	0	0	336310	692	0	correct_rejection	NA	0
22	Single	100	424	424	0	1	1	337019	691	1	hit	362	0
22	Single	101	425	425	7	0	0	337727	692	0	correct_rejection	NA	0
22	Single	102	426	426	9	0	0	338436	691	0	correct_rejection	NA	0
22	Single	103	427	427	6	0	0	339144	692	0	correct_rejection	NA	0
22	Single	104	428	428	4	0	0	339853	692	0	correct_rejection	NA	0
22	Single	105	429	429	4	0	0	340561	692	0	correct_rejection	NA	0
22	Single	106	430	430	6	0	0	341270	692	0	correct_rejection	NA	0
22	Single	107	431	431	9	0	0	341979	691	0	correct_rejection	NA	0
22	Single	108	432	432	5	0	0	342687	692	0	correct_rejection	NA	0
22	Single	109	433	433	4	0	0	343396	691	0	correct_rejection	NA	0
22	Single	110	434	434	5	0	0	344104	692	0	correct_rejection	NA	0
22	Single	111	435	435	9	0	0	344813	692	0	correct_rejection	NA	0
22	Single	112	436	436	9	0	0	345521	692	0	correct_rejection	NA	0
22	Single	113	437	437	8	0	0	346230	692	0	correct_rejection	NA	0
22	Single	114	438	438	7	0	0	346939	691	0	correct_rejection	NA	0
22	Single	115	439	439	8	0	0	347647	692	0	correct_rejection	NA	0
22	Single	116	440	440	6	0	0	348356	691	0	correct_rejection	NA	0
22	Single	117	441	441	5	0	0	349064	692	0	correct_rejection	NA	0
22	Single	118	442	442	7	0	0	349773	692	0	correct_rejection	NA	0
22	Single	119	443	443	7	0	0	350481	692	0	correct_rejection	NA	0
22	Single	120	444	444	5	0	0	351190	692	0	correct_rejection	NA	0
22	Single	121	445	445	8	0	0	351899	691	0	correct_rejection	NA	0
22	Single	122	446	446	7	0	0	352607	692	0	correct_rejection	NA	0
22	Single	123	447	447	9	0	0	353316	691	0	correct_rejection	NA	0
22	Single	124	448	448	0	1	1	354024	692	1	hit	372	0
22	Single	125	449	449	9	0	0	354733	692	0	correct_rejection	NA	0
22	Single	126	450	450	6	0	0	355441	692	0	correct_rejection	NA	0
22	Single	127	451	451	0	1	1	356150	692	1	hit	422	0
22	Single	128	452	452	5	0	0	356859	691	0	correct_rejection	NA	0
22	Single	129	453	453	5	0	0	357567	692	0	correct_rejection	NA	0
22	Single	130	454	454	9	0	0	358276	691	0	correct_rejection	NA	0
22	Single	131	455	455	4	0	0	358984	692	0	correct_rejection	NA	0
22	Single	132	456	456	9	0	0	359693	691	0	correct_rejection	NA	0
22	Single	133	457	457	5	0	0	360401	692	0	correct_rejection	NA	0
22	Single	134	458	458	7	0	0	361110	692	0	correct_rejection	NA	0
22	Single	135	459	459	4	0	0	361818	692	0	correct_rejection	NA	0
22	Single	136	460	460	4	0	0	362527	692	0	correct_rejection	NA	0
22	Single	137	461	461	5	0	0	363236	691	0	correct_rejection	NA	0
22	Single	138	462	462	8	0	0	363944	692	0	correct_rejection	NA	0
22	Single	139	463	463	8	0	0	364653	691	0	correct_rejection	NA	0
22	Single	140	464	464	0	1	1	365361	692	1	hit	484	0
22	Single	141	465	465	9	0	0	366070	692	0	correct_rejection	NA	0
22	Single	142	466	466	7	0	0	366778	692	0	correct_rejection	NA	0
22	Single	143	467	467	8	0	0	367487	692	0	correct_rejection	NA	0
22	Single	144	468	468	4	0	0	368196	691	0	correct_rejection	NA	0
22	Single	145	469	469	8	0	0	368904	692	0	correct_rejection	NA	0
22	Single	146	470	470	6	0	0	369613	691	0	correct_rejection	NA	0
22	Single	147	471	471	9	0	0	370321	692	0	correct_rejection	NA	0
22	Single	148	472	472	8	0	0	371030	692	0	correct_rejection	NA	0
22	Single	149	473	473	0	1	1	371738	692	1	hit	600	0
22	Single	150	474	474	5	0	0	372447	692	0	correct_rejection	NA	0
22	Single	151	475	475	4	0	0	373156	691	0	correct_rejection	NA	0
22	Single	152	476	476	0	1	1	373864	692	1	hit	320	0
22	Single	153	477	477	7	0	0	374573	691	0	correct_rejection	NA	0
22	Single	154	478	478	5	0	0	375281	692	0	correct_rejection	NA	0
22	Single	155	479	479	0	1	1	375990	692	1	hit	303	0
22	Single	156	480	480	6	0	0	376698	692	0	correct_rejection	NA	0
22	Single	157	481	481	6	0	0	377407	692	0	correct_rejection	NA	0
22	Single	158	482	482	7	0	0	378116	691	0	correct_rejection	NA	0
22	Single	159	483	483	7	0	0	378824	692	0	correct_rejection	NA	0
22	Single	160	484	484	6	0	0	379533	691	0	correct_rejection	NA	0
22	Single	161	485	485	4	0	0	380241	692	0	correct_rejection	NA	0
22	Single	162	486	486	6	0	0	380950	691	0	correct_rejection	NA	0
22	Correct	1	1	487	4	0	0	390345	691	0	correct_rejection	NA	7099
22	Correct	2	2	488	5	0	0	391053	692	0	correct_rejection	NA	0
22	Correct	3	3	489	6	0	0	391762	691	0	correct_rejection	NA	0
22	Correct	4	4	490	0	1	2	392470	692	1	hit	350	0
22	Correct	5	5	491	4	0	0	393179	691	0	correct_rejection	NA	0
22	Correct	6	6	492	5	0	0	393887	692	0	correct_rejection	NA	0
22	Correct	7	7	493	6	0	0	394596	692	0	correct_rejection	NA	0
22	Correct	8	8	494	4	0	0	395304	692	0	correct_rejection	NA	0
22	Correct	9	9	495	5	0	0	396013	692	0	correct_rejection	NA	0
22	Correct	10	10	496	6	0	0	396722	691	0	correct_rejection	NA	0
22	Correct	11	11	497	0	1	3	397430	692	1	hit	365	0
22	Correct	12	12	498	6	0	0	398139	691	0	correct_rejection	NA	0
22	Correct	13	13	499	5	0	0	398847	692	0	correct_rejection	NA	0
22	Correct	14	14	500	4	0	0	399556	692	0	correct_rejection	NA	0
22	Correct	15	15	501	6	0	0	400264	692	0	correct_rejection	NA	0
22	Correct	16	16	502	0	1	1	400973	692	1	hit	641	0
22	Correct	17	17	503	5	0	0	401682	691	0	correct_rejection	NA	0
22	Correct	18	18	504	4	0	0	402390	692	0	correct_rejection	NA	0
22	Correct	19	19	505	6	0	0	403099	691	0	correct_rejection	NA	0
22	Correct	20	20	506	5	0	0	403807	692	0	correct_rejection	NA	0
22	Correct	21	21	507	4	0	0	404516	692	0	correct_rejection	NA	0
22	Correct	22	22	508	9	0	0	405224	692	0	correct_rejection	NA	0
22	Correct	23	23	509	8	0	0	405933	692	0	correct_rejection	NA	0
22	Correct	24	24	510	7	0	0	406642	691	0	correct_rejection	NA	0
22	Correct	25	25	511	9	0	0	407350	692	0	correct_rejection	NA	0
22	Correct	26	26	512	8	0	0	408059	691	0	correct_rejection	NA	0
22	Correct	27	27	513	7	0	0	408767	692	0	correct_rejection	NA	0
22	Correct	28	28	514	0	1	2	409476	692	1	hit	346	0
22	Correct	29	29	515	9	0	0	410184	692	0	correct_rejection	NA	0
22	Correct	30	30	516	8	0	0	410893	692	0	correct_rejection	NA	0
22	Correct	31	31	517	7	0	0	411602	691	0	correct_rejection	NA	0
22	Correct	32	32	518	7	0	0	412310	692	0	correct_rejection	NA	0
22	Correct	33	33	519	8	0	0	413019	691	0	correct_rejection	NA	0
22	Correct	34	34	520	9	0	0	413727	692	0	correct_rejection	NA	0
22	Correct	35	35	521	7	0	0	414436	691	0	correct_rejection	NA	0
22	Correct	36	36	522	8	0	0	415144	692	0	correct_rejection	NA	0
22	Correct	37	37	523	9	0	0	415853	692	0	correct_rejection	NA	0
22	Correct	38	38	524	7	0	0	416561	692	0	correct_rejection	NA	0
22	Correct	39	39	525	8	0	0	417270	692	0	correct_rejection	NA	0
22	Correct	40	40	526	9	0	0	417979	691	0	correct_rejection	NA	0
22	Correct	41	41	527	0	1	4	418687	692	1	hit	428	0
22	Correct	42	42	528	4	0	0	419396	691	0	correct_rejection	NA	0
22	Correct	43	43	529	5	0	0	420104	692	0	correct_rejection	NA	0
22	Correct	44	44	530	0	1	1	420813	692	1	hit	344	0
22	Correct	45	45	531	6	0	0	421521	692	0	correct_rejection	NA	0
22	Correct	46	46	532	4	0	0	422230	692	0	correct_rejection	NA	0
22	Correct	47	47	533	5	0	0	422939	691	0	correct_rejection	NA	0
22	Correct	48	48	534	6	0	0	423647	692	0	correct_rejection	NA	0
22	Correct	49	49	535	4	0	0	424356	691	0	correct_rejection	NA	0
22	Correct	50	50	536	5	0	0	425064	692	0	correct_rejection	NA	0
22	Correct	51	51	537	6	0	0	425773	692	0	correct_rejection	NA	0
22	Correct	52	52	538	6	0	0	426481	692	0	correct_rejection	NA	0
22	Correct	53	53	539	5	0	0	427190	692	0	correct_rejection	NA	0
22	Correct	54	54	540	4	0	0	427899	691	0	correct_rejection	NA	0
22	Correct	55	55	541	6	0	0	428607	692	0	correct_rejection	NA	0
22	Correct	56	56	542	5	0	0	429316	691	0	correct_rejection	NA	0
22	Correct	57	57	543	4	0	0	430024	692	0	correct_rejection	NA	0
22	Correct	58	58	544	6	0	0	430733	692	0	correct_rejection	NA	0
22	Correct	59	59	545	5	0	0	431441	692	0	correct_rejection	NA	0
22	Correct	60	60	546	4	0	0	432150	692	0	correct_rejection	NA	0
22	Correct	61	61	547	9	0	0	432859	691	0	correct_rejection	NA	0
22	Correct	62	62	548	8	0	0	433567	692	0	correct_rejection	NA	0
22	Correct	63	63	549	7	0	0	434276	691	0	correct_rejection	NA	0
22	Correct	64	64	550	9	0	0	434984	692	0	correct_rejection	NA	0
22	Correct	65	65	551	8	0	0	435693	691	0	correct_rejection	NA	0
22	Correct	66	66	552	7	0	0	436401	692	0	correct_rejection	NA	0
22	Correct	67	67	553	9	0	0	437110	692	0	correct_rejection	NA	0
22	Correct	68	68	554	8	0	0	437818	692	0	correct_rejection	NA	0
22	Correct	69	69	555	7	0	0	438527	692	0	correct_rejection	NA	0
22	Correct	70	70	556	7	0	0	439236	691	0	correct_rejection	NA	0
22	Correct	71	71	557	8	0	0	439944	692	0	correct_rejection	NA	0
22	Correct	72	72	558	9	0	0	440653	691	0	correct_rejection	NA	0
22	Correct	73	73	559	7	0	0	441361	692	0	correct_rejection	NA	0
22	Correct	74	74	560	8	0	0	442070	692	0	correct_rejection	NA	0
22	Correct	75	75	561	9	0	0	442778	692	0	correct_rejection	NA	0
22	Correct	76	76	562	7	0	0	443487	692	0	correct_rejection	NA	0
22	Correct	77	77	563	8	0	0	444196	691	0	correct_rejection	NA	0
22	Correct	78	78	564	9	0	0	444904	692	0	correct_rejection	NA	0
22	Correct	79	79	565	4	0	0	445613	691	0	correct_rejection	NA	0
22	Correct	80	80	566	0	1	1	446321	692	1	hit	376	0
22	Correct	81	81	567	5	0	0	447030	692	0	correct_rejection	NA	0
22	Correct	82	82	568	6	0	0	447738	692	0	correct_rejection	NA	0
22	Correct	83	83	569	4	0	0	448447	692	0	correct_rejection	NA	0
22	Correct	84	84	570	5	0	0	449156	691	0	correct_rejection	NA	0
22	Correct	85	85	571	6	0	0	449864	692	0	correct_rejection	NA	0
22	Correct	86	86	572	4	0	0	450573	691	0	correct_rejection	NA	0
22	Correct	87	87	573	0	1	1	451281	692	1	hit	429	0
22	Correct	88	88	574	5	0	0	451990	691	0	correct_rejection	NA	0
22	Correct	89	89	575	6	0	0	452698	692	0	correct_rejection	NA	0
22	Correct	90	90	576	6	0	0	453407	692	0	correct_rejection	NA	0
22	Correct	91	91	577	5	0	0	454116	691	0	correct_rejection	NA	0
22	Correct	92	92	578	0	1	1	454824	692	1	hit	513	0
22	Correct	93	93	579	4	0	0	455533	691	0	correct_rejection	NA	0
22	Correct	94	94	580	6	0	0	456241	692	0	correct_rejection	NA	0
22	Correct	95	95	581	5	0	0	456950	691	0	correct_rejection	NA	0
22	Correct	96	96	582	0	1	1	457658	692	1	hit	332	0
22	Correct	97	97	583	4	0	0	458367	692	0	correct_rejection	NA	0
22	Correct	98	98	584	6	0	0	459075	692	0	correct_rejection	NA	0
22	Correct	99	99	585	5	0	0	459784	692	0	correct_rejection	NA	0
22	Correct	100	100	586	4	0	0	460493	691	0	correct_rejection	NA	0
22	Correct	101	101	587	9	0	0	461201	692	0	correct_rejection	NA	0
22	Correct	102	102	588	0	1	1	461910	691	1	hit	349	0
22	Correct	103	103	589	8	0	0	462618	692	0	correct_rejection	NA	0
22	Correct	104	104	590	7	0	0	463327	692	0	correct_rejection	NA	0
22	Correct	105	105	591	9	0	0	464035	692	0	correct_rejection	NA	0
22	Correct	106	106	592	8	0	0	464744	692	0	correct_rejection	NA	0
22	Correct	107	107	593	7	0	0	465453	691	0	correct_rejection	NA	0
22	Correct	108	108	594	9	0	0	466161	692	0	correct_rejection	NA	0
22	Correct	109	109	595	8	0	0	466870	691	0	correct_rejection	NA	0
22	Correct	110	110	596	0	1	1	467578	692	1	hit	408	0
22	Correct	111	111	597	7	0	0	468287	692	0	correct_rejection	NA	0
22	Correct	112	112	598	7	0	0	468995	692	0	correct_rejection	NA	0
22	Correct	113	113	599	8	0	0	469704	692	0	correct_rejection	NA	0
22	Correct	114	114	600	9	0	0	470413	691	0	correct_rejection	NA	0
22	Correct	115	115	601	7	0	0	471121	692	0	correct_rejection	NA	0
22	Correct	116	116	602	8	0	0	471830	691	0	correct_rejection	NA	0
22	Correct	117	117	603	9	0	0	472538	692	0	correct_rejection	NA	0
22	Correct	118	118	604	7	0	0	473247	691	0	correct_rejection	NA	0
22	Correct	119	119	605	8	0	0	473955	692	0	correct_rejection	NA	0
22	Correct	120	120	606	0	1	1	474664	692	1	hit	454	0
22	Correct	121	121	607	9	0	0	475372	692	0	correct_rejection	NA	0
22	Correct	122	122	608	4	0	0	476081	692	0	correct_rejection	NA	0
22	Correct	123	123	609	5	0	0	476790	691	0	correct_rejection	NA	0
22	Correct	124	124	610	6	0	0	477498	692	0	correct_rejection	NA	0
22	Correct	125	125	611	4	0	0	478207	691	0	correct_rejection	NA	0
22	Correct	126	126	612	5	0	0	478915	692	0	correct_rejection	NA	0
22	Correct	127	127	613	6	0	0	479624	692	0	correct_rejection	NA	0
22	Correct	128	128	614	4	0	0	480332	692	0	correct_rejection	NA	0
22	Correct	129	129	615	5	0	0	481041	692	0	correct_rejection	NA	0
22	Correct	130	130	616	0	1	1	481750	691	1	hit	606	0
22	Correct	131	131	617	6	0	0	482458	692	0	correct_rejection	NA	0
22	Correct	132	132	618	6	0	0	483167	691	0	correct_rejection	NA	0
22	Correct	133	133	619	0	1	1	483875	692	1	hit	382	0
22	Correct	134	134	620	5	0	0	484584	692	0	correct_rejection	NA	0
22	Correct	135	135	621	4	0	0	485292	692	0	correct_rejection	NA	0
22	Correct	136	136	622	6	0	0	486001	692	0	correct_rejection	NA	0
22	Correct	137	137	623	5	0	0	486710	691	0	correct_rejection	NA	0
22	Correct	138	138	624	4	0	0	487418	692	0	correct_rejection	NA	0
22	Correct	139	139	625	0	1	2	488127	691	1	hit	391	0
22	Correct	140	140	626	6	0	0	488835	692	0	correct_rejection	NA	0
22	Correct	141	141	627	5	0	0	489544	692	0	correct_rejection	NA	0
22	Correct	142	142	628	4	0	0	490252	692	0	correct_rejection	NA	0
22	Correct	143	143	629	9	0	0	490961	692	0	correct_rejection	NA	0
22	Correct	144	144	630	8	0	0	491670	691	0	correct_rejection	NA	0
22	Correct	145	145	631	7	0	0	492378	692	0	correct_rejection	NA	0
22	Correct	146	146	632	9	0	0	493087	691	0	correct_rejection	NA	0
22	Correct	147	147	633	8	0	0	493795	692	0	correct_rejection	NA	0
22	Correct	148	148	634	7	0	0	494504	691	0	correct_rejection	NA	0
22	Correct	149	149	635	9	0	0	495212	692	0	correct_rejection	NA	0
22	Correct	150	150	636	0	1	1	495921	692	1	hit	466	0
22	Correct	151	151	637	8	0	0	496629	692	0	correct_rejection	NA	0
22	Correct	152	152	638	7	0	0	497338	692	0	correct_rejection	NA	0
22	Correct	153	153	639	7	0	0	498047	691	0	correct_rejection	NA	0
22	Correct	154	154	640	8	0	0	498755	692	0	correct_rejection	NA	0
22	Correct	155	155	641	9	0	0	499464	691	0	correct_rejection	NA	0
22	Correct	156	156	642	0	1	2	500172	692	1	hit	407	0
22	Correct	157	157	643	7	0	0	500881	692	0	correct_rejection	NA	0
22	Correct	158	158	644	8	0	0	501589	692	0	correct_rejection	NA	0
22	Correct	159	159	645	9	0	0	502298	692	0	correct_rejection	NA	0
22	Correct	160	160	646	7	0	0	503007	691	0	correct_rejection	NA	0
22	Correct	161	161	647	8	0	0	503715	692	0	correct_rejection	NA	0
22	Correct	162	162	648	9	0	0	504424	691	0	correct_rejection	NA	0
22	Nonet	1	325	649	4	0	0	513777	691	0	correct_rejection	NA	7529
22	Nonet	2	326	650	5	0	0	514485	692	0	correct_rejection	NA	0
22	Nonet	3	327	651	6	0	0	515194	692	0	correct_rejection	NA	0
22	Nonet	4	328	652	4	0	0	515902	692	0	correct_rejection	NA	0
22	Nonet	5	329	653	5	0	0	516611	692	0	correct_rejection	NA	0
22	Nonet	6	330	654	6	0	0	517320	691	0	correct_rejection	NA	0
22	Nonet	7	331	655	0	1	2	518028	692	1	hit	395	0
22	Nonet	8	332	656	4	0	0	518737	691	0	correct_rejection	NA	0
22	Nonet	9	333	657	5	0	0	519445	692	0	correct_rejection	NA	0
22	Nonet	10	334	658	6	0	0	520154	692	0	correct_rejection	NA	0
22	Nonet	11	335	659	6	0	0	520862	692	0	correct_rejection	NA	0
22	Nonet	12	336	660	0	1	1	521571	692	1	hit	317	0
22	Nonet	13	337	661	5	0	0	522280	691	0	correct_rejection	NA	0
22	Nonet	14	338	662	4	0	0	522988	692	0	correct_rejection	NA	0
22	Nonet	15	339	663	6	0	0	523697	691	0	correct_rejection	NA	0
22	Nonet	16	340	664	5	0	0	524405	692	0	correct_rejection	NA	0
22	Nonet	17	341	665	4	0	0	525114	692	0	correct_rejection	NA	0
22	Nonet	18	342	666	6	0	0	525822	692	0	correct_rejection	NA	0
22	Nonet	19	343	667	5	0	0	526531	692	0	correct_rejection	NA	0
22	Nonet	20	344	668	4	0	0	527240	691	0	correct_rejection	NA	0
22	Nonet	21	345	669	4	0	0	527948	692	0	correct_rejection	NA	0
22	Nonet	22	346	670	5	0	0	528657	691	0	correct_rejection	NA	0
22	Nonet	23	347	671	6	0	0	529365	692	0	correct_rejection	NA	0
22	Nonet	24	348	672	4	0	0	530074	692	0	correct_rejection	NA	0
22	Nonet	25	349	673	0	1	1	530782	692	1	hit	355	0
22	Nonet	26	350	674	5	0	0	531491	692	0	correct_rejection	NA	0
22	Nonet	27	351	675	6	0	0	532200	691	0	correct_rejection	NA	0
22	Nonet	28	352	676	4	0	0	532908	692	0	correct_rejection	NA	0
22	Nonet	29	353	677	5	0	0	533617	691	0	correct_rejection	NA	0
22	Nonet	30	354	678	6	0	0	534325	692	0	correct_rejection	NA	0
22	Nonet	31	355	679	9	0	0	535034	691	0	correct_rejection	NA	0
22	Nonet	32	356	680	8	0	0	535742	692	0	correct_rejection	NA	0
22	Nonet	33	357	681	7	0	0	536451	692	0	correct_rejection	NA	0
22	Nonet	34	358	682	9	0	0	537159	692	0	correct_rejection	NA	0
22	Nonet	35	359	683	8	0	0	537868	692	0	correct_rejection	NA	0
22	Nonet	36	360	684	7	0	0	538577	691	0	correct_rejection	NA	0
22	Nonet	37	361	685	9	0	0	539285	692	0	correct_rejection	NA	0
22	Nonet	38	362	686	8	0	0	539994	691	0	correct_rejection	NA	0
22	Nonet	39	363	687	7	0	0	540702	692	0	correct_rejection	NA	0
22	Nonet	40	364	688	4	0	0	541411	692	0	correct_rejection	NA	0
22	Nonet	41	365	689	5	0	0	542119	692	0	correct_rejection	NA	0
22	Nonet	42	366	690	6	0	0	542828	692	0	correct_rejection	NA	0
22	Nonet	43	367	691	4	0	0	543537	691	0	correct_rejection	NA	0
22	Nonet	44	368	692	5	0	0	544245	692	0	correct_rejection	NA	0
22	Nonet	45	369	693	0	1	1	544954	691	1	hit	367	0
22	Nonet	46	370	694	6	0	0	545662	692	0	correct_rejection	NA	0
22	Nonet	47	371	695	4	0	0	546371	692	0	correct_rejection	NA	0
22	Nonet	48	372	696	5	0	0	547079	692	0	correct_rejection	NA	0
22	Nonet	49	373	697	6	0	0	547788	692	0	correct_rejection	NA	0
22	Nonet	50	374	698	7	0	0	548497	691	0	correct_rejection	NA	0
22	Nonet	51	375	699	0	1	1	549205	692	1	hit	500	0
22	Nonet	52	376	700	8	0	0	549914	691	0	correct_rejection	NA	0
22	Nonet	53	377	701	9	0	0	550622	692	0	correct_rejection	NA	0
22	Nonet	54	378	702	7	0	0	551331	691	0	correct_rejection	NA	0
22	Nonet	55	379	703	8	0	0	552039	692	0	correct_rejection	NA	0
22	Nonet	56	380	704	9	0	0	552748	692	0	correct_rejection	NA	0
22	Nonet	57	381	705	7	0	0	553457	691	0	correct_rejection	NA	0
22	Nonet	58	382	706	8	0	0	554165	692	0	correct_rejection	NA	0
22	Nonet	59	383	707	9	0	0	554874	691	0	correct_rejection	NA	0
22	Nonet	60	384	708	9	0	0	555582	692	0	correct_rejection	NA	0
22	Nonet	61	385	709	8	0	0	556291	691	0	correct_rejection	NA	0
22	Nonet	62	386	710	7	0	0	556999	692	0	correct_rejection	NA	0
22	Nonet	63	387	711	9	0	0	557708	692	0	correct_rejection	NA	0
22	Nonet	64	388	712	8	0	0	558416	692	0	correct_rejection	NA	0
22	Nonet	65	389	713	0	1	1	559125	692	1	hit	434	0
22	Nonet	66	390	714	7	0	0	559834	691	0	correct_rejection	NA	0
22	Nonet	67	391	715	9	0	0	560542	692	0	correct_rejection	NA	0
22	Nonet	68	392	716	8	0	0	561251	691	0	correct_rejection	NA	0
22	Nonet	69	393	717	7	0	0	561959	692	0	correct_rejection	NA	0
22	Nonet	70	394	718	0	1	3	562668	692	1	hit	529	0
22	Nonet	71	395	719	9	0	0	563376	692	0	correct_rejection	NA	0
22	Nonet	72	396	720	8	0	0	564085	692	0	correct_rejection	NA	0
22	Nonet	73	397	721	7	0	0	564794	691	0	correct_rejection	NA	0
22	Nonet	74	398	722	9	0	0	565502	692	0	correct_rejection	NA	0
22	Nonet	75	399	723	8	0	0	566211	691	0	correct_rejection	NA	0
22	Nonet	76	400	724	7	0	0	566919	692	0	correct_rejection	NA	0
22	Nonet	77	401	725	9	0	0	567628	692	0	correct_rejection	NA	0
22	Nonet	78	402	726	0	1	1	568336	692	1	hit	352	0
22	Nonet	79	403	727	8	0	0	569045	692	0	correct_rejection	NA	0
22	Nonet	80	404	728	7	0	0	569754	691	0	correct_rejection	NA	0
22	Nonet	81	405	729	6	0	0	570462	692	0	correct_rejection	NA	0
22	Nonet	82	406	730	5	0	0	571171	691	0	correct_rejection	NA	0
22	Nonet	83	407	731	4	0	0	571879	692	0	correct_rejection	NA	0
22	Nonet	84	408	732	0	1	2	572588	691	1	hit	330	0
22	Nonet	85	409	733	6	0	0	573296	692	0	correct_rejection	NA	0
22	Nonet	86	410	734	5	0	0	574005	692	0	correct_rejection	NA	0
22	Nonet	87	411	735	4	0	0	574713	692	0	correct_rejection	NA	0
22	Nonet	88	412	736	6	0	0	575422	692	0	correct_rejection	NA	0
22	Nonet	89	413	737	5	0	0	576131	691	0	correct_rejection	NA	0
22	Nonet	90	414	738	4	0	0	576839	692	0	correct_rejection	NA	0
22	Nonet	91	415	739	7	0	0	577548	691	0	correct_rejection	NA	0
22	Nonet	92	416	740	8	0	0	578256	692	0	correct_rejection	NA	0
22	Nonet	93	417	741	9	0	0	578965	692	0	correct_rejection	NA	0
22	Nonet	94	418	742	7	0	0	579673	692	0	correct_rejection	NA	0
22	Nonet	95	419	743	8	0	0	580382	692	0	correct_rejection	NA	0
22	Nonet	96	420	744	9	0	0	581091	691	0	correct_rejection	NA	0
22	Nonet	97	421	745	7	0	0	581799	692	0	correct_rejection	NA	0
22	Nonet	98	422	746	8	0	0	582508	691	0	correct_rejection	NA	0
22	Nonet	99	423	747	9	0	0	583216	692	0	correct_rejection	NA	0
22	Nonet	100	424	748	6	0	0	583925	692	0	correct_rejection	NA	0
22	Nonet	101	425	749	0	1	1	584633	692	1	hit	456	0
22	Nonet	102	426	750	5	0	0	585342	692	0	correct_rejection	NA	0
22	Nonet	103	427	751	4	0	0	586051	691	0	correct_rejection	NA	0
22	Nonet	104	428	752	6	0	0	586759	692	0	correct_rejection	NA	0
22	Nonet	105	429	753	5	0	0	587468	691	0	correct_rejection	NA	0
22	Nonet	106	430	754	4	0	0	588176	692	0	correct_rejection	NA	0
22	Nonet	107	431	755	6	0	0	588885	692	0	correct_rejection	NA	0
22	Nonet	108	432	756	5	0	0	589593	692	0	correct_rejection	NA	0
22	Nonet	109	433	757	4	0	0	590302	692	0	correct_rejection	NA	0
22	Nonet	110	434	758	0	1	3	591011	691	1	hit	332	0
22	Nonet	111	435	759	6	0	0	591719	692	0	correct_rejection	NA	0
22	Nonet	112	436	760	5	0	0	592428	691	0	correct_rejection	NA	0
22	Nonet	113	437	761	0	1	1	593136	692	1	hit	433	0
22	Nonet	114	438	762	4	0	0	593845	691	0	correct_rejection	NA	0
22	Nonet	115	439	763	6	0	0	594553	692	0	correct_rejection	NA	0
22	Nonet	116	440	764	5	0	0	595262	692	0	correct_rejection	NA	0
22	Nonet	117	441	765	4	0	0	595970	692	0	correct_rejection	NA	0
22	Nonet	118	442	766	6	0	0	596679	692	0	correct_rejection	NA	0
22	Nonet	119	443	767	5	0	0	597388	691	0	correct_rejection	NA	0
22	Nonet	120	444	768	4	0	0	598096	692	0	correct_rejection	NA	0
22	Nonet	121	445	769	9	0	0	598805	691	0	correct_rejection	NA	0
22	Nonet	122	446	770	8	0	0	599513	692	0	correct_rejection	NA	0
22	Nonet	123	447	771	0	1	1	600222	692	1	hit	392	0
22	Nonet	124	448	772	7	0	0	600930	692	0	correct_rejection	NA	0
22	Nonet	125	449	773	9	0	0	601639	692	0	correct_rejection	NA	0
22	Nonet	126	450	774	8	0	0	602348	691	0	correct_rejection	NA	0
22	Nonet	127	451	775	7	0	0	603056	692	0	correct_rejection	NA	0
22	Nonet	128	452	776	9	0	0	603765	691	0	correct_rejection	NA	0
22	Nonet	129	453	777	8	0	0	604473	692	0	correct_rejection	NA	0
22	Nonet	130	454	778	7	0	0	605182	692	0	correct_rejection	NA	0
22	Nonet	131	455	779	0	1	3	605890	692	1	hit	349	0
22	Nonet	132	456	780	7	0	0	606599	692	0	correct_rejection	NA	0
22	Nonet	133	457	781	8	0	0	607308	691	0	correct_rejection	NA	0
22	Nonet	134	458	782	9	0	0	608016	692	0	correct_rejection	NA	0
22	Nonet	135	459	783	7	0	0	608725	691	0	correct_rejection	NA	0
22	Nonet	136	460	784	8	0	0	609433	692	0	correct_rejection	NA	0
22	Nonet	137	461	785	0	1	1	610142	692	1	hit	400	0
22	Nonet	138	462	786	9	0	0	610850	692	0	correct_rejection	NA	0
22	Nonet	139	463	787	7	0	0	611559	692	0	correct_rejection	NA	0
22	Nonet	140	464	788	8	0	0	612268	691	0	correct_rejection	NA	0
22	Nonet	141	465	789	9	0	0	612976	692	0	correct_rejection	NA	0
22	Nonet	142	466	790	0	1	3	613685	691	1	hit	392	0
22	Nonet	143	467	791	7	0	0	614393	692	0	correct_rejection	NA	0
22	Nonet	144	468	792	8	0	0	615102	691	0	correct_rejection	NA	0
22	Nonet	145	469	793	9	0	0	615810	692	0	correct_rejection	NA	0
22	Nonet	146	470	794	7	0	0	616519	692	0	correct_rejection	NA	0
22	Nonet	147	471	795	8	0	0	617227	692	0	correct_rejection	NA	0
22	Nonet	148	472	796	9	0	0	617936	692	0	correct_rejection	NA	0
22	Nonet	149	473	797	7	0	0	618645	691	0	correct_rejection	NA	0
22	Nonet	150	474	798	8	0	0	619353	692	0	correct_rejection	NA	0
22	Nonet	151	475	799	9	0	0	620062	691	0	correct_rejection	NA	0
22	Nonet	152	476	800	4	0	0	620770	692	0	correct_rejection	NA	0
22	Nonet	153	477	801	5	0	0	621479	692	0	correct_rejection	NA	0
22	Nonet	154	478	802	0	1	1	622187	692	1	hit	389	0
22	Nonet	155	479	803	6	0	0	622896	692	0	correct_rejection	NA	0
22	Nonet	156	480	804	4	0	0	623605	691	0	correct_rejection	NA	0
22	Nonet	157	481	805	0	1	1	624313	692	1	hit	457	0
22	Nonet	158	482	806	5	0	0	625022	691	0	correct_rejection	NA	0
22	Nonet	159	483	807	6	0	0	625730	692	0	correct_rejection	NA	0
22	Nonet	160	484	808	4	0	0	626439	692	0	correct_rejection	NA	0
22	Nonet	161	485	809	5	0	0	627147	692	0	correct_rejection	NA	0
22	Nonet	162	486	810	6	0	0	627856	692	0	correct_rejection	NA	0
trigger nr 620 at 630207
trigger nr 624 at 704474
22	Triplet	1	1	811	9	0	0	712342	692	0	correct_rejection	NA	7829
22	Triplet	2	2	812	8	0	0	713051	691	0	correct_rejection	NA	0
22	Triplet	3	3	813	7	0	0	713759	692	0	correct_rejection	NA	0
22	Triplet	4	4	814	6	0	0	714468	691	0	correct_rejection	NA	0
22	Triplet	5	5	815	5	0	0	715176	692	0	correct_rejection	NA	0
22	Triplet	6	6	816	4	0	0	715885	692	0	correct_rejection	NA	0
22	Triplet	7	7	817	7	0	0	716593	692	0	correct_rejection	NA	0
22	Triplet	8	8	818	8	0	0	717302	692	0	correct_rejection	NA	0
22	Triplet	9	9	819	9	0	0	718011	691	0	correct_rejection	NA	0
22	Triplet	10	10	820	7	0	0	718719	692	0	correct_rejection	NA	0
22	Triplet	11	11	821	8	0	0	719428	691	0	correct_rejection	NA	0
22	Triplet	12	12	822	9	0	0	720136	692	0	correct_rejection	NA	0
22	Triplet	13	13	823	0	1	2	720845	692	1	hit	435	0
22	Triplet	14	14	824	4	0	0	721553	692	0	correct_rejection	NA	0
22	Triplet	15	15	825	5	0	0	722262	692	0	correct_rejection	NA	0
22	Triplet	16	16	826	0	1	1	722971	691	1	hit	382	0
22	Triplet	17	17	827	6	0	0	723679	692	0	correct_rejection	NA	0
22	Triplet	18	18	828	6	0	0	724388	691	0	correct_rejection	NA	0
22	Triplet	19	19	829	0	1	1	725096	692	1	hit	342	0
22	Triplet	20	20	830	5	0	0	725805	692	0	correct_rejection	NA	0
22	Triplet	21	21	831	4	0	0	726513	692	0	correct_rejection	NA	0
22	Triplet	22	22	832	4	0	0	727222	692	0	correct_rejection	NA	0
22	Triplet	23	23	833	5	0	0	727931	691	0	correct_rejection	NA	0
22	Triplet	24	24	834	6	0	0	728639	692	0	correct_rejection	NA	0
22	Triplet	25	25	835	0	1	2	729348	691	1	hit	300	0
22	Triplet	26	26	836	7	0	0	730056	692	0	correct_rejection	NA	0
22	Triplet	27	27	837	8	0	0	730765	692	0	correct_rejection	NA	0
22	Triplet	28	28	838	9	0	0	731473	692	0	correct_rejection	NA	0
22	Triplet	29	29	839	9	0	0	732182	692	0	correct_rejection	NA	0
22	Triplet	30	30	840	8	0	0	732891	691	0	correct_rejection	NA	0
22	Triplet	31	31	841	7	0	0	733599	692	0	correct_rejection	NA	0
22	Triplet	32	32	842	7	0	0	734308	691	0	correct_rejection	NA	0
22	Triplet	33	33	843	8	0	0	735016	692	0	correct_rejection	NA	0
22	Triplet	34	34	844	9	0	0	735725	691	0	correct_rejection	NA	0
22	Triplet	35	35	845	6	0	0	736433	692	0	correct_rejection	NA	0
22	Triplet	36	36	846	5	0	0	737142	692	0	correct_rejection	NA	0
22	Triplet	37	37	847	4	0	0	737850	692	0	correct_rejection	NA	0
22	Triplet	38	38	848	6	0	0	738559	692	0	correct_rejection	NA	0
22	Triplet	39	39	849	5	0	0	739268	691	0	correct_rejection	NA	0
22	Triplet	40	40	850	4	0	0	739976	692	0	correct_rejection	NA	0
22	Triplet	41	41	851	9	0	0	740685	691	0	correct_rejection	NA	0
22	Triplet	42	42	852	8	0	0	741393	692	0	correct_rejection	NA	0
22	Triplet	43	43	853	7	0	0	742102	692	0	correct_rejection	NA	0
22	Triplet	44	44	854	9	0	0	742810	692	0	correct_rejection	NA	0
22	Triplet	45	45	855	8	0	0	743519	692	0	correct_rejection	NA	0
22	Triplet	46	46	856	7	0	0	744228	691	0	correct_rejection	NA	0
22	Triplet	47	47	857	0	1	2	744936	692	1	hit	418	0
22	Triplet	48	48	858	4	0	0	745645	691	0	correct_rejection	NA	0
22	Triplet	49	49	859	5	0	0	746353	692	0	correct_rejection	NA	0
22	Triplet	50	50	860	0	1	1	747062	692	1	hit	366	0
22	Triplet	51	51	861	6	0	0	747770	692	0	correct_rejection	NA	0
22	Triplet	52	52	862	4	0	0	748479	692	0	correct_rejection	NA	0
22	Triplet	53	53	863	5	0	0	749188	691	0	correct_rejection	NA	0
22	Triplet	54	54	864	6	0	0	749896	692	0	correct_rejection	NA	0
22	Triplet	55	55	865	9	0	0	750605	691	0	correct_rejection	NA	0
22	Triplet	56	56	866	8	0	0	751313	692	0	correct_rejection	NA	0
22	Triplet	57	57	867	7	0	0	752022	692	0	correct_rejection	NA	0
22	Triplet	58	58	868	4	0	0	752730	692	0	correct_rejection	NA	0
22	Triplet	59	59	869	5	0	0	753439	692	0	correct_rejection	NA	0
22	Triplet	60	60	870	6	0	0	754148	691	0	correct_rejection	NA	0
22	Triplet	61	61	871	0	1	2	754856	692	1	hit	429	0
22	Triplet	62	62	872	6	0	0	755565	691	0	correct_rejection	NA	0
22	Triplet	63	63	873	5	0	0	756273	692	0	correct_rejection	NA	0
22	Triplet	64	64	874	0	1	1	756982	691	1	hit	394	0
22	Triplet	65	65	875	4	0	0	757690	692	0	correct_rejection	NA	0
22	Triplet	66	66	876	6	0	0	758399	692	0	correct_rejection	NA	0
22	Triplet	67	67	877	5	0	0	759107	692	0	correct_rejection	NA	0
22	Triplet	68	68	878	4	0	0	759816	692	0	correct_rejection	NA	0
22	Triplet	69	69	879	0	1	2	760525	691	1	hit	405	0
22	Triplet	70	70	880	7	0	0	761233	692	0	correct_rejection	NA	0
22	Triplet	71	71	881	8	0	0	761942	691	0	correct_rejection	NA	0
22	Triplet	72	72	882	0	1	1	762650	692	1	hit	380	0
22	Triplet	73	73	883	9	0	0	763359	692	0	correct_rejection	NA	0
22	Triplet	74	74	884	4	0	0	764067	692	0	correct_rejection	NA	0
22	Triplet	75	75	885	0	1	1	764776	692	1	hit	559	0
22	Triplet	76	76	886	5	0	0	765485	691	0	correct_rejection	NA	0
22	Triplet	77	77	887	6	0	0	766193	692	0	correct_rejection	NA	0
22	Triplet	78	78	888	9	0	0	766902	691	0	correct_rejection	NA	0
22	Triplet	79	79	889	8	0	0	767610	692	0	correct_rejection	NA	0
22	Triplet	80	80	890	7	0	0	768319	692	0	correct_rejection	NA	0
22	Triplet	81	81	891	7	0	0	769027	692	0	correct_rejection	NA	0
22	Triplet	82	82	892	8	0	0	769736	692	0	correct_rejection	NA	0
22	Triplet	83	83	893	9	0	0	770445	691	0	correct_rejection	NA	0
22	Triplet	84	84	894	0	1	2	771153	692	1	hit	349	0
22	Triplet	85	85	895	9	0	0	771862	691	0	correct_rejection	NA	0
22	Triplet	86	86	896	8	0	0	772570	692	0	correct_rejection	NA	0
22	Triplet	87	87	897	7	0	0	773279	691	0	correct_rejection	NA	0
22	Triplet	88	88	898	6	0	0	773987	692	0	correct_rejection	NA	0
22	Triplet	89	89	899	5	0	0	774696	692	0	correct_rejection	NA	0
22	Triplet	90	90	900	4	0	0	775404	692	0	correct_rejection	NA	0
22	Triplet	91	91	901	4	0	0	776113	692	0	correct_rejection	NA	0
22	Triplet	92	92	902	5	0	0	776822	691	0	correct_rejection	NA	0
22	Triplet	93	93	903	6	0	0	777530	692	0	correct_rejection	NA	0
22	Triplet	94	94	904	4	0	0	778239	691	0	correct_rejection	NA	0
22	Triplet	95	95	905	0	1	1	778947	692	1	hit	345	0
22	Triplet	96	96	906	5	0	0	779656	692	0	correct_rejection	NA	0
22	Triplet	97	97	907	6	0	0	780364	692	0	correct_rejection	NA	0
22	Triplet	98	98	908	7	0	0	781073	692	0	correct_rejection	NA	0
22	Triplet	99	99	909	8	0	0	781782	691	0	correct_rejection	NA	0
22	Triplet	100	100	910	9	0	0	782490	692	0	correct_rejection	NA	0
22	Triplet	101	101	911	7	0	0	783199	691	0	correct_rejection	NA	0
22	Triplet	102	102	912	8	0	0	783907	692	0	correct_rejection	NA	0
22	Triplet	103	103	913	9	0	0	784616	692	0	correct_rejection	NA	0
22	Triplet	104	104	914	6	0	0	785324	692	0	correct_rejection	NA	0
22	Triplet	105	105	915	5	0	0	786033	692	0	correct_rejection	NA	0
22	Triplet	106	106	916	4	0	0	786742	691	0	correct_rejection	NA	0
22	Triplet	107	107	917	9	0	0	787450	692	0	correct_rejection	NA	0
22	Triplet	108	108	918	8	0	0	788159	691	0	correct_rejection	NA	0
22	Triplet	109	109	919	0	1	1	788867	692	1	hit	355	0
22	Triplet	110	110	920	7	0	0	789576	692	0	correct_rejection	NA	0
22	Triplet	111	111	921	7	0	0	790284	692	0	correct_rejection	NA	0
22	Triplet	112	112	922	8	0	0	790993	692	0	correct_rejection	NA	0
22	Triplet	113	113	923	9	0	0	791702	691	0	correct_rejection	NA	0
22	Triplet	114	114	924	4	0	0	792410	692	0	correct_rejection	NA	0
22	Triplet	115	115	925	5	0	0	793119	691	0	correct_rejection	NA	0
22	Triplet	116	116	926	6	0	0	793827	692	0	correct_rejection	NA	0
22	Triplet	117	117	927	4	0	0	794536	691	0	correct_rejection	NA	0
22	Triplet	118	118	928	5	0	0	795244	692	0	correct_rejection	NA	0
22	Triplet	119	119	929	6	0	0	795953	692	0	correct_rejection	NA	0
22	Triplet	120	120	930	0	1	2	796661	692	1	hit	373	0
22	Triplet	121	121	931	9	0	0	797370	692	0	correct_rejection	NA	0
22	Triplet	122	122	932	8	0	0	798079	691	0	correct_rejection	NA	0
22	Triplet	123	123	933	7	0	0	798787	692	0	correct_rejection	NA	0
22	Triplet	124	124	934	4	0	0	799496	691	0	correct_rejection	NA	0
22	Triplet	125	125	935	5	0	0	800204	692	0	correct_rejection	NA	0
22	Triplet	126	126	936	6	0	0	800913	692	0	correct_rejection	NA	0
22	Triplet	127	127	937	7	0	0	801621	692	0	correct_rejection	NA	0
22	Triplet	128	128	938	8	0	0	802330	692	0	correct_rejection	NA	0
22	Triplet	129	129	939	0	1	1	803039	691	1	hit	465	0
22	Triplet	130	130	940	9	0	0	803747	692	0	correct_rejection	NA	0
22	Triplet	131	131	941	6	0	0	804456	691	0	correct_rejection	NA	0
22	Triplet	132	132	942	5	0	0	805164	692	0	correct_rejection	NA	0
22	Triplet	133	133	943	4	0	0	805873	692	0	correct_rejection	NA	0
22	Triplet	134	134	944	0	1	2	806581	692	1	hit	320	0
22	Triplet	135	135	945	4	0	0	807290	692	0	correct_rejection	NA	0
22	Triplet	136	136	946	5	0	0	807999	691	0	correct_rejection	NA	0
22	Triplet	137	137	947	6	0	0	808707	692	0	correct_rejection	NA	0
22	Triplet	138	138	948	6	0	0	809416	691	0	correct_rejection	NA	0
22	Triplet	139	139	949	5	0	0	810124	692	0	correct_rejection	NA	0
22	Triplet	140	140	950	4	0	0	810833	692	0	correct_rejection	NA	0
22	Triplet	141	141	951	9	0	0	811541	692	0	correct_rejection	NA	0
22	Triplet	142	142	952	8	0	0	812250	692	0	correct_rejection	NA	0
22	Triplet	143	143	953	7	0	0	812959	691	0	correct_rejection	NA	0
22	Triplet	144	144	954	7	0	0	813667	692	0	correct_rejection	NA	0
22	Triplet	145	145	955	8	0	0	814376	691	0	correct_rejection	NA	0
22	Triplet	146	146	956	9	0	0	815084	692	0	correct_rejection	NA	0
22	Triplet	147	147	957	7	0	0	815793	691	0	correct_rejection	NA	0
22	Triplet	148	148	958	8	0	0	816501	692	0	correct_rejection	NA	0
22	Triplet	149	149	959	9	0	0	817210	692	0	correct_rejection	NA	0
22	Triplet	150	150	960	9	0	0	817918	692	0	correct_rejection	NA	0
22	Triplet	151	151	961	0	1	1	818627	692	0	miss	NA	0
22	Triplet	152	152	962	8	0	0	819336	691	0	correct_rejection	NA	0
22	Triplet	153	153	963	7	0	0	820044	692	0	correct_rejection	NA	0
22	Triplet	154	154	964	9	0	0	820753	691	0	correct_rejection	NA	0
22	Triplet	155	155	965	8	0	0	821461	692	0	correct_rejection	NA	0
22	Triplet	156	156	966	7	0	0	822170	692	0	correct_rejection	NA	0
22	Triplet	157	157	967	6	0	0	822878	692	0	correct_rejection	NA	0
22	Triplet	158	158	968	5	0	0	823587	692	0	correct_rejection	NA	0
22	Triplet	159	159	969	4	0	0	824296	691	0	correct_rejection	NA	0
22	Triplet	160	160	970	6	0	0	825004	692	0	correct_rejection	NA	0
22	Triplet	161	161	971	5	0	0	825713	691	0	correct_rejection	NA	0
22	Triplet	162	162	972	4	0	0	826421	692	0	correct_rejection	NA	0
22	Correct	1	163	973	4	0	0	834999	692	0	correct_rejection	NA	6489
22	Correct	2	164	974	5	0	0	835708	691	0	correct_rejection	NA	0
22	Correct	3	165	975	6	0	0	836416	692	0	correct_rejection	NA	0
22	Correct	4	166	976	4	0	0	837125	691	0	correct_rejection	NA	0
22	Correct	5	167	977	5	0	0	837833	692	0	correct_rejection	NA	0
22	Correct	6	168	978	6	0	0	838542	692	0	correct_rejection	NA	0
22	Correct	7	169	979	4	0	0	839250	692	0	correct_rejection	NA	0
22	Correct	8	170	980	0	1	1	839959	692	1	hit	363	0
22	Correct	9	171	981	5	0	0	840668	691	0	correct_rejection	NA	0
22	Correct	10	172	982	6	0	0	841376	692	0	correct_rejection	NA	0
22	Correct	11	173	983	6	0	0	842085	691	0	correct_rejection	NA	0
22	Correct	12	174	984	5	0	0	842793	692	0	correct_rejection	NA	0
22	Correct	13	175	985	4	0	0	843502	692	0	correct_rejection	NA	0
22	Correct	14	176	986	0	1	2	844210	692	1	hit	351	0
22	Correct	15	177	987	6	0	0	844919	692	0	correct_rejection	NA	0
22	Correct	16	178	988	5	0	0	845628	691	0	correct_rejection	NA	0
22	Correct	17	179	989	4	0	0	846336	692	0	correct_rejection	NA	0
22	Correct	18	180	990	6	0	0	847045	691	0	correct_rejection	NA	0
22	Correct	19	181	991	5	0	0	847753	692	0	correct_rejection	NA	0
22	Correct	20	182	992	4	0	0	848462	692	0	correct_rejection	NA	0
22	Correct	21	183	993	0	1	3	849170	692	1	hit	393	0
22	Correct	22	184	994	9	0	0	849879	692	0	correct_rejection	NA	0
22	Correct	23	185	995	8	0	0	850588	691	0	correct_rejection	NA	0
22	Correct	24	186	996	7	0	0	851296	692	0	correct_rejection	NA	0
22	Correct	25	187	997	0	1	2	852005	691	1	hit	367	0
22	Correct	26	188	998	9	0	0	852713	692	0	correct_rejection	NA	0
22	Correct	27	189	999	8	0	0	853422	692	0	correct_rejection	NA	0
22	Correct	28	190	1000	0	1	1	854130	692	0	miss	NA	0
22	Correct	29	191	1001	7	0	0	854839	692	0	correct_rejection	NA	0
22	Correct	30	192	1002	9	0	0	855548	691	0	correct_rejection	NA	0
22	Correct	31	193	1003	8	0	0	856256	692	0	correct_rejection	NA	0
22	Correct	32	194	1004	7	0	0	856965	691	0	correct_rejection	NA	0
22	Correct	33	195	1005	0	1	3	857673	692	1	hit	347	0
22	Correct	34	196	1006	7	0	0	858382	691	0	correct_rejection	NA	0
22	Correct	35	197	1007	8	0	0	859090	692	0	correct_rejection	NA	0
22	Correct	36	198	1008	9	0	0	859799	692	0	correct_rejection	NA	0
22	Correct	37	199	1009	7	0	0	860507	692	0	correct_rejection	NA	0
22	Correct	38	200	1010	8	0	0	861216	692	0	correct_rejection	NA	0
22	Correct	39	201	1011	9	0	0	861925	691	0	correct_rejection	NA	0
22	Correct	40	202	1012	7	0	0	862633	692	0	correct_rejection	NA	0
22	Correct	41	203	1013	8	0	0	863342	691	0	correct_rejection	NA	0
22	Correct	42	204	1014	9	0	0	864050	692	0	correct_rejection	NA	0
22	Correct	43	205	1015	4	0	0	864759	692	0	correct_rejection	NA	0
22	Correct	44	206	1016	5	0	0	865467	692	0	correct_rejection	NA	0
22	Correct	45	207	1017	6	0	0	866176	692	0	correct_rejection	NA	0
22	Correct	46	208	1018	4	0	0	866885	691	0	correct_rejection	NA	0
22	Correct	47	209	1019	5	0	0	867593	692	0	correct_rejection	NA	0
22	Correct	48	210	1020	6	0	0	868302	691	0	correct_rejection	NA	0
22	Correct	49	211	1021	4	0	0	869010	692	0	correct_rejection	NA	0
22	Correct	50	212	1022	5	0	0	869719	692	0	correct_rejection	NA	0
22	Correct	51	213	1023	6	0	0	870427	692	0	correct_rejection	NA	0
22	Correct	52	214	1024	6	0	0	871136	692	0	correct_rejection	NA	0
22	Correct	53	215	1025	5	0	0	871845	691	0	correct_rejection	NA	0
22	Correct	54	216	1026	4	0	0	872553	692	0	correct_rejection	NA	0
22	Correct	55	217	1027	6	0	0	873262	691	0	correct_rejection	NA	0
22	Correct	56	218	1028	5	0	0	873970	692	0	correct_rejection	NA	0
22	Correct	57	219	1029	4	0	0	874679	692	0	correct_rejection	NA	0
22	Correct	58	220	1030	6	0	0	875387	692	0	correct_rejection	NA	0
22	Correct	59	221	1031	5	0	0	876096	692	0	correct_rejection	NA	0
22	Correct	60	222	1032	0	1	1	876805	691	1	hit	498	0
22	Correct	61	223	1033	4	0	0	877513	692	0	correct_rejection	NA	0
22	Correct	62	224	1034	9	0	0	878222	691	0	correct_rejection	NA	0
22	Correct	63	225	1035	0	1	1	878930	692	1	hit	408	0
22	Correct	64	226	1036	8	0	0	879639	691	0	correct_rejection	NA	0
22	Correct	65	227	1037	7	0	0	880347	692	0	correct_rejection	NA	0
22	Correct	66	228	1038	9	0	0	881056	692	0	correct_rejection	NA	0
22	Correct	67	229	1039	8	0	0	881764	692	0	correct_rejection	NA	0
22	Correct	68	230	1040	7	0	0	882473	692	0	correct_rejection	NA	0
22	Correct	69	231	1041	9	0	0	883182	691	0	correct_rejection	NA	0
22	Correct	70	232	1042	8	0	0	883890	692	0	correct_rejection	NA	0
22	Correct	71	233	1043	7	0	0	884599	691	0	correct_rejection	NA	0
22	Correct	72	234	1044	7	0	0	885307	692	0	correct_rejection	NA	0
22	Correct	73	235	1045	8	0	0	886016	692	0	correct_rejection	NA	0
22	Correct	74	236	1046	0	1	1	886724	692	1	hit	351	0
22	Correct	75	237	1047	9	0	0	887433	692	0	correct_rejection	NA	0
22	Correct	76	238	1048	7	0	0	888142	691	0	correct_rejection	NA	0
22	Correct	77	239	1049	0	1	1	888850	692	1	hit	513	0
22	Correct	78	240	1050	8	0	0	889559	691	0	correct_rejection	NA	0
22	Correct	79	241	1051	9	0	0	890267	692	0	correct_rejection	NA	0
22	Correct	80	242	1052	7	0	0	890976	692	0	correct_rejection	NA	0
22	Correct	81	243	1053	0	1	1	891684	692	1	hit	361	0
22	Correct	82	244	1054	8	0	0	892393	692	0	correct_rejection	NA	0
22	Correct	83	245	1055	9	0	0	893102	691	0	correct_rejection	NA	0
22	Correct	84	246	1056	4	0	0	893810	692	0	correct_rejection	NA	0
22	Correct	85	247	1057	5	0	0	894519	691	0	correct_rejection	NA	0
22	Correct	86	248	1058	6	0	0	895227	692	0	correct_rejection	NA	0
22	Correct	87	249	1059	0	1	2	895936	692	1	hit	377	0
22	Correct	88	250	1060	4	0	0	896644	692	0	correct_rejection	NA	0
22	Correct	89	251	1061	5	0	0	897353	692	0	correct_rejection	NA	0
22	Correct	90	252	1062	6	0	0	898062	691	0	correct_rejection	NA	0
22	Correct	91	253	1063	4	0	0	898770	692	0	correct_rejection	NA	0
22	Correct	92	254	1064	5	0	0	899479	691	0	correct_rejection	NA	0
22	Correct	93	255	1065	6	0	0	900187	692	0	correct_rejection	NA	0
22	Correct	94	256	1066	6	0	0	900896	691	0	correct_rejection	NA	0
22	Correct	95	257	1067	0	1	1	901604	692	1	hit	371	0
22	Correct	96	258	1068	5	0	0	902313	692	0	correct_rejection	NA	0
22	Correct	97	259	1069	4	0	0	903021	692	0	correct_rejection	NA	0
22	Correct	98	260	1070	6	0	0	903730	692	0	correct_rejection	NA	0
22	Correct	99	261	1071	5	0	0	904439	691	0	correct_rejection	NA	0
22	Correct	100	262	1072	4	0	0	905147	692	0	correct_rejection	NA	0
22	Correct	101	263	1073	6	0	0	905856	691	0	correct_rejection	NA	0
22	Correct	102	264	1074	5	0	0	906564	692	0	correct_rejection	NA	0
22	Correct	103	265	1075	4	0	0	907273	692	0	correct_rejection	NA	0
22	Correct	104	266	1076	9	0	0	907981	692	0	correct_rejection	NA	0
22	Correct	105	267	1077	8	0	0	908690	692	0	correct_rejection	NA	0
22	Correct	106	268	1078	7	0	0	909399	691	0	correct_rejection	NA	0
22	Correct	107	269	1079	9	0	0	910107	692	0	correct_rejection	NA	0
22	Correct	108	270	1080	8	0	0	910816	691	0	correct_rejection	NA	0
22	Correct	109	271	1081	7	0	0	911524	692	0	correct_rejection	NA	0
22	Correct	110	272	1082	9	0	0	912233	692	0	correct_rejection	NA	0
22	Correct	111	273	1083	8	0	0	912941	692	0	correct_rejection	NA	0
22	Correct	112	274	1084	7	0	0	913650	692	0	correct_rejection	NA	0
22	Correct	113	275	1085	7	0	0	914359	691	0	correct_rejection	NA	0
22	Correct	114	276	1086	8	0	0	915067	692	0	correct_rejection	NA	0
22	Correct	115	277	1087	0	1	1	915776	691	1	hit	390	0
22	Correct	116	278	1088	9	0	0	916484	692	0	correct_rejection	NA	0
22	Correct	117	279	1089	7	0	0	917193	691	0	correct_rejection	NA	0
22	Correct	118	280	1090	8	0	0	917901	692	0	correct_rejection	NA	0
22	Correct	119	281	1091	9	0	0	918610	692	0	correct_rejection	NA	0
22	Correct	120	282	1092	0	1	2	919318	692	1	hit	401	0
22	Correct	121	283	1093	7	0	0	920027	692	0	correct_rejection	NA	0
22	Correct	122	284	1094	8	0	0	920736	691	0	correct_rejection	NA	0
22	Correct	123	285	1095	9	0	0	921444	692	0	correct_rejection	NA	0
22	Correct	124	286	1096	4	0	0	922153	691	0	correct_rejection	NA	0
22	Correct	125	287	1097	5	0	0	922861	692	0	correct_rejection	NA	0
22	Correct	126	288	1098	0	1	1	923570	692	1	hit	382	0
22	Correct	127	289	1099	6	0	0	924278	692	0	correct_rejection	NA	0
22	Correct	128	290	1100	4	0	0	924987	692	0	correct_rejection	NA	0
22	Correct	129	291	1101	5	0	0	925696	691	0	correct_rejection	NA	0
22	Correct	130	292	1102	6	0	0	926404	692	0	correct_rejection	NA	0
22	Correct	131	293	1103	4	0	0	927113	691	0	correct_rejection	NA	0
22	Correct	132	294	1104	5	0	0	927821	692	0	correct_rejection	NA	0
22	Correct	133	295	1105	6	0	0	928530	692	0	correct_rejection	NA	0
22	Correct	134	296	1106	6	0	0	929238	692	0	correct_rejection	NA	0
22	Correct	135	297	1107	5	0	0	929947	692	0	correct_rejection	NA	0
22	Correct	136	298	1108	4	0	0	930656	691	0	correct_rejection	NA	0
22	Correct	137	299	1109	6	0	0	931364	692	0	correct_rejection	NA	0
22	Correct	138	300	1110	5	0	0	932073	691	0	correct_rejection	NA	0
22	Correct	139	301	1111	4	0	0	932781	692	0	correct_rejection	NA	0
22	Correct	140	302	1112	6	0	0	933490	692	0	correct_rejection	NA	0
22	Correct	141	303	1113	5	0	0	934198	692	0	correct_rejection	NA	0
22	Correct	142	304	1114	4	0	0	934907	692	0	correct_rejection	NA	0
22	Correct	143	305	1115	9	0	0	935616	691	0	correct_rejection	NA	0
22	Correct	144	306	1116	8	0	0	936324	692	0	correct_rejection	NA	0
22	Correct	145	307	1117	7	0	0	937033	691	0	correct_rejection	NA	0
22	Correct	146	308	1118	9	0	0	937741	692	0	correct_rejection	NA	0
22	Correct	147	309	1119	8	0	0	938450	691	0	correct_rejection	NA	0
22	Correct	148	310	1120	0	1	1	939158	692	1	hit	386	0
22	Correct	149	311	1121	7	0	0	939867	692	0	correct_rejection	NA	0
22	Correct	150	312	1122	9	0	0	940575	692	0	correct_rejection	NA	0
22	Correct	151	313	1123	8	0	0	941284	692	0	correct_rejection	NA	0
22	Correct	152	314	1124	7	0	0	941993	691	0	correct_rejection	NA	0
22	Correct	153	315	1125	7	0	0	942701	692	0	correct_rejection	NA	0
22	Correct	154	316	1126	0	1	1	943410	691	1	hit	375	0
22	Correct	155	317	1127	8	0	0	944118	692	0	correct_rejection	NA	0
22	Correct	156	318	1128	9	0	0	944827	692	0	correct_rejection	NA	0
22	Correct	157	319	1129	7	0	0	945535	692	0	correct_rejection	NA	0
22	Correct	158	320	1130	8	0	0	946244	692	0	correct_rejection	NA	0
22	Correct	159	321	1131	9	0	0	946953	691	0	correct_rejection	NA	0
22	Correct	160	322	1132	7	0	0	947661	692	0	correct_rejection	NA	0
22	Correct	161	323	1133	8	0	0	948370	691	0	correct_rejection	NA	0
22	Correct	162	324	1134	9	0	0	949078	692	0	correct_rejection	NA	0
22	Single	1	1	1135	9	0	0	959465	692	0	correct_rejection	NA	7959
22	Single	2	2	1136	5	0	0	960174	691	0	correct_rejection	NA	0
22	Single	3	3	1137	4	0	0	960882	692	0	correct_rejection	NA	0
22	Single	4	4	1138	7	0	0	961591	691	0	correct_rejection	NA	0
22	Single	5	5	1139	9	0	0	962299	692	0	correct_rejection	NA	0
22	Single	6	6	1140	4	0	0	963008	692	0	correct_rejection	NA	0
22	Single	7	7	1141	4	0	0	963716	692	0	correct_rejection	NA	0
22	Single	8	8	1142	5	0	0	964425	692	0	correct_rejection	NA	0
22	Single	9	9	1143	0	1	1	965134	691	1	hit	606	0
22	Single	10	10	1144	8	0	0	965842	692	0	correct_rejection	NA	0
22	Single	11	11	1145	7	0	0	966551	691	0	correct_rejection	NA	0
22	Single	12	12	1146	5	0	0	967259	692	0	correct_rejection	NA	0
22	Single	13	13	1147	7	0	0	967968	692	0	correct_rejection	NA	0
22	Single	14	14	1148	0	1	1	968676	692	1	hit	331	0
22	Single	15	15	1149	7	0	0	969385	692	0	correct_rejection	NA	0
22	Single	16	16	1150	8	0	0	970094	691	0	correct_rejection	NA	0
22	Single	17	17	1151	9	0	0	970802	692	0	correct_rejection	NA	0
22	Single	18	18	1152	8	0	0	971511	691	0	correct_rejection	NA	0
22	Single	19	19	1153	6	0	0	972219	692	0	correct_rejection	NA	0
22	Single	20	20	1154	4	0	0	972928	691	0	correct_rejection	NA	0
22	Single	21	21	1155	0	1	1	973636	692	1	hit	417	0
22	Single	22	22	1156	9	0	0	974345	692	0	correct_rejection	NA	0
22	Single	23	23	1157	9	0	0	975053	692	0	correct_rejection	NA	0
22	Single	24	24	1158	7	0	0	975762	692	0	correct_rejection	NA	0
22	Single	25	25	1159	0	1	1	976471	691	1	hit	327	0
22	Single	26	26	1160	6	0	0	977179	692	0	correct_rejection	NA	0
22	Single	27	27	1161	6	0	0	977888	691	0	correct_rejection	NA	0
22	Single	28	28	1162	8	0	0	978596	692	0	correct_rejection	NA	0
22	Single	29	29	1163	5	0	0	979305	692	0	correct_rejection	NA	0
22	Single	30	30	1164	6	0	0	980013	692	0	correct_rejection	NA	0
22	Single	31	31	1165	0	1	1	980722	692	1	hit	448	0
22	Single	32	32	1166	7	0	0	981431	691	0	correct_rejection	NA	0
22	Single	33	33	1167	4	0	0	982139	692	0	correct_rejection	NA	0
22	Single	34	34	1168	8	0	0	982848	691	0	correct_rejection	NA	0
22	Single	35	35	1169	8	0	0	983556	692	0	correct_rejection	NA	0
22	Single	36	36	1170	4	0	0	984265	692	0	correct_rejection	NA	0
22	Single	37	37	1171	6	0	0	984973	692	0	correct_rejection	NA	0
22	Single	38	38	1172	5	0	0	985682	692	0	correct_rejection	NA	0
22	Single	39	39	1173	5	0	0	986391	691	0	correct_rejection	NA	0
22	Single	40	40	1174	9	0	0	987099	692	0	correct_rejection	NA	0
22	Single	41	41	1175	6	0	0	987808	691	0	correct_rejection	NA	0
22	Single	42	42	1176	4	0	0	988516	692	0	correct_rejection	NA	0
22	Single	43	43	1177	9	0	0	989225	692	0	correct_rejection	NA	0
22	Single	44	44	1178	8	0	0	989933	692	0	correct_rejection	NA	0
22	Single	45	45	1179	8	0	0	990642	692	0	correct_rejection	NA	0
22	Single	46	46	1180	6	0	0	991351	691	0	correct_rejection	NA	0
22	Single	47	47	1181	9	0	0	992059	692	0	correct_rejection	NA	0
22	Single	48	48	1182	6	0	0	992768	691	0	correct_rejection	NA	0
22	Single	49	49	1183	6	0	0	993476	692	0	correct_rejection	NA	0
22	Single	50	50	1184	7	0	0	994185	691	0	correct_rejection	NA	0
22	Single	51	51	1185	5	0	0	994893	692	0	correct_rejection	NA	0
22	Single	52	52	1186	6	0	0	995602	692	0	correct_rejection	NA	0
22	Single	53	53	1187	5	0	0	996310	692	0	correct_rejection	NA	0
22	Single	54	54	1188	8	0	0	997019	692	0	correct_rejection	NA	0
22	Single	55	55	1189	4	0	0	997728	691	0	correct_rejection	NA	0
22	Single	56	56	1190	5	0	0	998436	692	0	correct_rejection	NA	0
22	Single	57	57	1191	4	0	0	999145	691	0	correct_rejection	NA	0
22	Single	58	58	1192	8	0	0	999853	692	0	correct_rejection	NA	0
22	Single	59	59	1193	7	0	0	1000562	692	0	correct_rejection	NA	0
22	Single	60	60	1194	7	0	0	1001270	692	0	correct_rejection	NA	0
22	Single	61	61	1195	6	0	0	1001979	692	0	correct_rejection	NA	0
22	Single	62	62	1196	8	0	0	1002688	691	0	correct_rejection	NA	0
22	Single	63	63	1197	9	0	0	1003396	692	0	correct_rejection	NA	0
22	Single	64	64	1198	7	0	0	1004105	691	0	correct_rejection	NA	0
22	Single	65	65	1199	9	0	0	1004813	692	0	correct_rejection	NA	0
22	Single	66	66	1200	5	0	0	1005522	692	0	correct_rejection	NA	0
22	Single	67	67	1201	5	0	0	1006230	692	0	correct_rejection	NA	0
22	Single	68	68	1202	7	0	0	1006939	692	0	correct_rejection	NA	0
22	Single	69	69	1203	4	0	0	1007648	691	0	correct_rejection	NA	0
22	Single	70	70	1204	6	0	0	1008356	692	0	correct_rejection	NA	0
22	Single	71	71	1205	4	0	0	1009065	691	0	correct_rejection	NA	0
22	Single	72	72	1206	0	1	1	1009773	692	1	hit	483	0
22	Single	73	73	1207	4	0	0	1010482	691	0	correct_rejection	NA	0
22	Single	74	74	1208	7	0	0	1011190	692	0	correct_rejection	NA	0
22	Single	75	75	1209	0	1	1	1011899	692	0	miss	NA	0
22	Single	76	76	1210	8	0	0	1012608	691	0	correct_rejection	NA	0
22	Single	77	77	1211	5	0	0	1013316	692	0	correct_rejection	NA	0
22	Single	78	78	1212	9	0	0	1014025	691	0	correct_rejection	NA	0
22	Single	79	79	1213	9	0	0	1014733	692	0	correct_rejection	NA	0
22	Single	80	80	1214	4	0	0	1015442	691	0	correct_rejection	NA	0
22	Single	81	81	1215	9	0	0	1016150	692	0	correct_rejection	NA	0
22	Single	82	82	1216	0	1	1	1016859	692	0	miss	NA	0
22	Single	83	83	1217	6	0	0	1017567	692	0	correct_rejection	NA	0
22	Single	84	84	1218	4	0	0	1018276	692	0	correct_rejection	NA	0
22	Single	85	85	1219	6	0	0	1018985	691	0	correct_rejection	NA	0
22	Single	86	86	1220	8	0	0	1019693	692	0	correct_rejection	NA	0
22	Single	87	87	1221	0	1	1	1020402	691	1	hit	508	0
22	Single	88	88	1222	8	0	0	1021110	692	0	correct_rejection	NA	0
22	Single	89	89	1223	5	0	0	1021819	692	0	correct_rejection	NA	0
22	Single	90	90	1224	7	0	0	1022527	692	0	correct_rejection	NA	0
22	Single	91	91	1225	8	0	0	1023236	692	0	correct_rejection	NA	0
22	Single	92	92	1226	6	0	0	1023945	691	0	correct_rejection	NA	0
22	Single	93	93	1227	7	0	0	1024653	692	0	correct_rejection	NA	0
22	Single	94	94	1228	9	0	0	1025362	691	0	correct_rejection	NA	0
22	Single	95	95	1229	8	0	0	1026070	692	0	correct_rejection	NA	0
22	Single	96	96	1230	7	0	0	1026779	692	0	correct_rejection	NA	0
22	Single	97	97	1231	6	0	0	1027487	692	0	correct_rejection	NA	0
22	Single	98	98	1232	9	0	0	1028196	692	0	correct_rejection	NA	0
22	Single	99	99	1233	0	1	1	1028905	691	1	hit	356	0
22	Single	100	100	1234	7	0	0	1029613	692	0	correct_rejection	NA	0
22	Single	101	101	1235	7	0	0	1030322	691	0	correct_rejection	NA	0
22	Single	102	102	1236	4	0	0	1031030	692	0	correct_rejection	NA	0
22	Single	103	103	1237	5	0	0	1031739	691	0	correct_rejection	NA	0
22	Single	104	104	1238	5	0	0	1032447	692	0	correct_rejection	NA	0
22	Single	105	105	1239	8	0	0	1033156	692	0	correct_rejection	NA	0
22	Single	106	106	1240	9	0	0	1033864	692	0	correct_rejection	NA	0
22	Single	107	107	1241	0	1	1	1034573	692	1	hit	525	0
22	Single	108	108	1242	9	0	0	1035282	691	0	correct_rejection	NA	0
22	Single	109	109	1243	4	0	0	1035990	692	0	correct_rejection	NA	0
22	Single	110	110	1244	0	1	1	1036699	691	1	hit	299	0
22	Single	111	111	1245	8	0	0	1037407	692	0	correct_rejection	NA	0
22	Single	112	112	1246	4	0	0	1038116	692	0	correct_rejection	NA	0
22	Single	113	113	1247	0	1	1	1038824	692	1	hit	380	0
22	Single	114	114	1248	7	0	0	1039533	692	0	correct_rejection	NA	0
22	Single	115	115	1249	5	0	0	1040242	691	0	correct_rejection	NA	0
22	Single	116	116	1250	9	0	0	1040950	692	0	correct_rejection	NA	0
22	Single	117	117	1251	5	0	0	1041659	691	0	correct_rejection	NA	0
22	Single	118	118	1252	6	0	0	1042367	692	0	correct_rejection	NA	0
22	Single	119	119	1253	6	0	0	1043076	692	0	correct_rejection	NA	0
22	Single	120	120	1254	5	0	0	1043784	692	0	correct_rejection	NA	0
22	Single	121	121	1255	0	1	1	1044493	692	1	hit	363	0
22	Single	122	122	1256	4	0	0	1045202	691	0	correct_rejection	NA	0
22	Single	123	123	1257	9	0	0	1045910	692	0	correct_rejection	NA	0
22	Single	124	124	1258	7	0	0	1046619	691	0	correct_rejection	NA	0
22	Single	125	125	1259	6	0	0	1047327	692	0	correct_rejection	NA	0
22	Single	126	126	1260	4	0	0	1048036	692	0	correct_rejection	NA	0
22	Single	127	127	1261	9	0	0	1048744	692	0	correct_rejection	NA	0
22	Single	128	128	1262	4	0	0	1049453	692	0	correct_rejection	NA	0
22	Single	129	129	1263	4	0	0	1050162	691	0	correct_rejection	NA	0
22	Single	130	130	1264	8	0	0	1050870	692	0	correct_rejection	NA	0
22	Single	131	131	1265	5	0	0	1051579	691	0	correct_rejection	NA	0
22	Single	132	132	1266	8	0	0	1052287	692	0	correct_rejection	NA	0
22	Single	133	133	1267	6	0	0	1052996	691	0	correct_rejection	NA	0
22	Single	134	134	1268	8	0	0	1053704	692	0	correct_rejection	NA	0
22	Single	135	135	1269	4	0	0	1054413	692	0	correct_rejection	NA	0
22	Single	136	136	1270	6	0	0	1055121	692	0	correct_rejection	NA	0
22	Single	137	137	1271	0	1	1	1055830	692	1	hit	520	0
22	Single	138	138	1272	6	0	0	1056539	691	0	correct_rejection	NA	0
22	Single	139	139	1273	9	0	0	1057247	692	0	correct_rejection	NA	0
22	Single	140	140	1274	5	0	0	1057956	691	0	correct_rejection	NA	0
22	Single	141	141	1275	4	0	0	1058664	692	0	correct_rejection	NA	0
22	Single	142	142	1276	5	0	0	1059373	692	0	correct_rejection	NA	0
22	Single	143	143	1277	0	1	1	1060081	692	1	hit	691	0
22	Single	144	144	1278	6	0	0	1060790	692	0	correct_rejection	NA	0
22	Single	145	145	1279	7	0	0	1061499	691	0	correct_rejection	NA	0
22	Single	146	146	1280	8	0	0	1062207	692	0	correct_rejection	NA	0
22	Single	147	147	1281	8	0	0	1062916	691	0	correct_rejection	NA	0
22	Single	148	148	1282	7	0	0	1063624	692	0	correct_rejection	NA	0
22	Single	149	149	1283	4	0	0	1064333	692	0	correct_rejection	NA	0
22	Single	150	150	1284	7	0	0	1065041	692	0	correct_rejection	NA	0
22	Single	151	151	1285	9	0	0	1065750	692	0	correct_rejection	NA	0
22	Single	152	152	1286	6	0	0	1066459	691	0	correct_rejection	NA	0
22	Single	153	153	1287	5	0	0	1067167	692	0	correct_rejection	NA	0
22	Single	154	154	1288	0	1	1	1067876	691	1	hit	307	0
22	Single	155	155	1289	7	0	0	1068584	692	0	correct_rejection	NA	0
22	Single	156	156	1290	7	0	0	1069293	692	0	correct_rejection	NA	0
22	Single	157	157	1291	0	1	1	1070001	692	1	hit	371	0
22	Single	158	158	1292	5	0	0	1070710	692	0	correct_rejection	NA	0
22	Single	159	159	1293	5	0	0	1071419	691	0	correct_rejection	NA	0
22	Single	160	160	1294	9	0	0	1072127	692	0	correct_rejection	NA	0
22	Single	161	161	1295	8	0	0	1072836	691	0	correct_rejection	NA	0
22	Single	162	162	1296	9	0	0	1073544	692	0	correct_rejection	NA	0
22	Triplet	1	487	1297	6	0	0	1082722	692	0	correct_rejection	NA	7218
22	Triplet	2	488	1298	5	0	0	1083431	691	0	correct_rejection	NA	0
22	Triplet	3	489	1299	4	0	0	1084139	692	0	correct_rejection	NA	0
22	Triplet	4	490	1300	4	0	0	1084848	692	0	correct_rejection	NA	0
22	Triplet	5	491	1301	5	0	0	1085556	692	0	correct_rejection	NA	0
22	Triplet	6	492	1302	6	0	0	1086265	692	0	correct_rejection	NA	0
22	Triplet	7	493	1303	9	0	0	1086974	691	0	correct_rejection	NA	0
22	Triplet	8	494	1304	8	0	0	1087682	692	0	correct_rejection	NA	0
22	Triplet	9	495	1305	7	0	0	1088391	691	0	correct_rejection	NA	0
22	Triplet	10	496	1306	0	1	2	1089099	692	1	hit	306	0
22	Triplet	11	497	1307	4	0	0	1089808	692	0	correct_rejection	NA	0
22	Triplet	12	498	1308	5	0	0	1090516	692	0	correct_rejection	NA	0
22	Triplet	13	499	1309	0	1	1	1091225	692	1	hit	465	0
22	Triplet	14	500	1310	6	0	0	1091934	691	0	correct_rejection	NA	0
22	Triplet	15	501	1311	6	0	0	1092642	692	0	correct_rejection	NA	0
22	Triplet	16	502	1312	5	0	0	1093351	691	0	correct_rejection	NA	0
22	Triplet	17	503	1313	0	1	1	1094059	692	1	hit	446	0
22	Triplet	18	504	1314	4	0	0	1094768	692	0	correct_rejection	NA	0
22	Triplet	19	505	1315	6	0	0	1095476	692	0	correct_rejection	NA	0
22	Triplet	20	506	1316	5	0	0	1096185	692	0	correct_rejection	NA	0
22	Triplet	21	507	1317	4	0	0	1096894	691	0	correct_rejection	NA	0
22	Triplet	22	508	1318	7	0	0	1097602	692	0	correct_rejection	NA	0
22	Triplet	23	509	1319	0	1	1	1098311	691	1	hit	354	0
22	Triplet	24	510	1320	8	0	0	1099019	692	0	correct_rejection	NA	0
22	Triplet	25	511	1321	9	0	0	1099728	692	0	correct_rejection	NA	0
22	Triplet	26	512	1322	6	0	0	1100436	692	0	correct_rejection	NA	0
22	Triplet	27	513	1323	0	1	1	1101145	692	1	hit	484	0
22	Triplet	28	514	1324	5	0	0	1101854	691	0	correct_rejection	NA	0
22	Triplet	29	515	1325	4	0	0	1102562	692	0	correct_rejection	NA	0
22	Triplet	30	516	1326	9	0	0	1103271	691	0	correct_rejection	NA	0
22	Triplet	31	517	1327	0	1	1	1103979	692	1	hit	372	0
22	Triplet	32	518	1328	8	0	0	1104688	691	0	correct_rejection	NA	0
22	Triplet	33	519	1329	7	0	0	1105396	692	0	correct_rejection	NA	0
22	Triplet	34	520	1330	9	0	0	1106105	692	0	correct_rejection	NA	0
22	Triplet	35	521	1331	8	0	0	1106813	692	1	false_alarm	324	0
22	Triplet	36	522	1332	0	1	1	1107522	692	0	miss	NA	0
22	Triplet	37	523	1333	7	0	0	1108231	691	0	correct_rejection	NA	0
22	Triplet	38	524	1334	7	0	0	1108939	692	0	correct_rejection	NA	0
22	Triplet	39	525	1335	8	0	0	1109648	691	0	correct_rejection	NA	0
22	Triplet	40	526	1336	9	0	0	1110356	692	0	correct_rejection	NA	0
22	Triplet	41	527	1337	0	1	2	1111065	692	1	hit	321	0
22	Triplet	42	528	1338	4	0	0	1111773	692	0	correct_rejection	NA	0
22	Triplet	43	529	1339	5	0	0	1112482	692	0	correct_rejection	NA	0
22	Triplet	44	530	1340	6	0	0	1113191	691	0	correct_rejection	NA	0
22	Triplet	45	531	1341	4	0	0	1113899	692	0	correct_rejection	NA	0
22	Triplet	46	532	1342	5	0	0	1114608	691	0	correct_rejection	NA	0
22	Triplet	47	533	1343	6	0	0	1115316	692	0	correct_rejection	NA	0
22	Triplet	48	534	1344	7	0	0	1116025	692	0	correct_rejection	NA	0
22	Triplet	49	535	1345	8	0	0	1116733	692	0	correct_rejection	NA	0
22	Triplet	50	536	1346	9	0	0	1117442	692	0	correct_rejection	NA	0
22	Triplet	51	537	1347	7	0	0	1118151	691	0	correct_rejection	NA	0
22	Triplet	52	538	1348	8	0	0	1118859	692	0	correct_rejection	NA	0
22	Triplet	53	539	1349	0	1	1	1119568	691	1	hit	380	0
22	Triplet	54	540	1350	9	0	0	1120276	692	0	correct_rejection	NA	0
22	Triplet	55	541	1351	9	0	0	1120985	692	0	correct_rejection	NA	0
22	Triplet	56	542	1352	8	0	0	1121693	692	0	correct_rejection	NA	0
22	Triplet	57	543	1353	7	0	0	1122402	692	0	correct_rejection	NA	0
22	Triplet	58	544	1354	4	0	0	1123111	691	0	correct_rejection	NA	0
22	Triplet	59	545	1355	5	0	0	1123819	692	0	correct_rejection	NA	0
22	Triplet	60	546	1356	0	1	1	1124528	691	1	hit	343	0
22	Triplet	61	547	1357	6	0	0	1125236	692	0	correct_rejection	NA	0
22	Triplet	62	548	1358	7	0	0	1125945	691	0	correct_rejection	NA	0
22	Triplet	63	549	1359	8	0	0	1126653	692	0	correct_rejection	NA	0
22	Triplet	64	550	1360	9	0	0	1127362	692	0	correct_rejection	NA	0
22	Triplet	65	551	1361	6	0	0	1128070	692	0	correct_rejection	NA	0
22	Triplet	66	552	1362	0	1	1	1128779	692	1	hit	384	0
22	Triplet	67	553	1363	5	0	0	1129488	691	0	correct_rejection	NA	0
22	Triplet	68	554	1364	4	0	0	1130196	692	0	correct_rejection	NA	0
22	Triplet	69	555	1365	6	0	0	1130905	691	0	correct_rejection	NA	0
22	Triplet	70	556	1366	5	0	0	1131613	692	0	correct_rejection	NA	0
22	Triplet	71	557	1367	4	0	0	1132322	692	0	correct_rejection	NA	0
22	Triplet	72	558	1368	4	0	0	1133030	692	0	correct_rejection	NA	0
22	Triplet	73	559	1369	5	0	0	1133739	692	0	correct_rejection	NA	0
22	Triplet	74	560	1370	6	0	0	1134448	691	0	correct_rejection	NA	0
22	Triplet	75	561	1371	4	0	0	1135156	692	0	correct_rejection	NA	0
22	Triplet	76	562	1372	5	0	0	1135865	691	0	correct_rejection	NA	0
22	Triplet	77	563	1373	6	0	0	1136573	692	0	correct_rejection	NA	0
22	Triplet	78	564	1374	0	1	2	1137282	692	1	hit	442	0
22	Triplet	79	565	1375	6	0	0	1137990	692	0	correct_rejection	NA	0
22	Triplet	80	566	1376	5	0	0	1138699	692	0	correct_rejection	NA	0
22	Triplet	81	567	1377	4	0	0	1139408	691	0	correct_rejection	NA	0
22	Triplet	82	568	1378	7	0	0	1140116	692	0	correct_rejection	NA	0
22	Triplet	83	569	1379	0	1	1	1140825	691	1	hit	365	0
22	Triplet	84	570	1380	8	0	0	1141533	692	0	correct_rejection	NA	0
22	Triplet	85	571	1381	9	0	0	1142242	692	0	correct_rejection	NA	0
22	Triplet	86	572	1382	0	1	2	1142950	692	1	hit	473	0
22	Triplet	87	573	1383	9	0	0	1143659	692	0	correct_rejection	NA	0
22	Triplet	88	574	1384	8	0	0	1144368	691	0	correct_rejection	NA	0
22	Triplet	89	575	1385	0	1	1	1145076	692	1	hit	439	0
22	Triplet	90	576	1386	7	0	0	1145785	691	0	correct_rejection	NA	0
22	Triplet	91	577	1387	4	0	0	1146493	692	0	correct_rejection	NA	0
22	Triplet	92	578	1388	5	0	0	1147202	691	0	correct_rejection	NA	0
22	Triplet	93	579	1389	6	0	0	1147910	692	0	correct_rejection	NA	0
22	Triplet	94	580	1390	9	0	0	1148619	692	0	correct_rejection	NA	0
22	Triplet	95	581	1391	8	0	0	1149327	692	0	correct_rejection	NA	0
22	Triplet	96	582	1392	7	0	0	1150036	692	0	correct_rejection	NA	0
22	Triplet	97	583	1393	9	0	0	1150745	691	0	correct_rejection	NA	0
22	Triplet	98	584	1394	8	0	0	1151453	692	0	correct_rejection	NA	0
22	Triplet	99	585	1395	0	1	1	1152162	691	1	hit	362	0
22	Triplet	100	586	1396	7	0	0	1152870	692	0	correct_rejection	NA	0
22	Triplet	101	587	1397	6	0	0	1153579	692	0	correct_rejection	NA	0
22	Triplet	102	588	1398	5	0	0	1154287	692	0	correct_rejection	NA	0
22	Triplet	103	589	1399	4	0	0	1154996	692	0	correct_rejection	NA	0
22	Triplet	104	590	1400	9	0	0	1155705	691	0	correct_rejection	NA	0
22	Triplet	105	591	1401	8	0	0	1156413	692	0	correct_rejection	NA	0
22	Triplet	106	592	1402	7	0	0	1157122	691	0	correct_rejection	NA	0
22	Triplet	107	593	1403	7	0	0	1157830	692	0	correct_rejection	NA	0
22	Triplet	108	594	1404	8	0	0	1158539	692	0	correct_rejection	NA	0
22	Triplet	109	595	1405	9	0	0	1159247	692	0	correct_rejection	NA	0
22	Triplet	110	596	1406	7	0	0	1159956	692	0	correct_rejection	NA	0
22	Triplet	111	597	1407	8	0	0	1160665	691	0	correct_rejection	NA	0
22	Triplet	112	598	1408	9	0	0	1161373	692	0	correct_rejection	NA	0
22	Triplet	113	599	1409	6	0	0	1162082	691	0	correct_rejection	NA	0
22	Triplet	114	600	1410	5	0	0	1162790	692	0	correct_rejection	NA	0
22	Triplet	115	601	1411	4	0	0	1163499	691	0	correct_rejection	NA	0
22	Triplet	116	602	1412	0	1	2	1164207	692	1	hit	336	0
22	Triplet	117	603	1413	9	0	0	1164916	692	0	correct_rejection	NA	0
22	Triplet	118	604	1414	8	0	0	1165624	692	0	correct_rejection	NA	0
22	Triplet	119	605	1415	7	0	0	1166333	692	0	correct_rejection	NA	0
22	Triplet	120	606	1416	6	0	0	1167042	691	0	correct_rejection	NA	0
22	Triplet	121	607	1417	5	0	0	1167750	692	0	correct_rejection	NA	0
22	Triplet	122	608	1418	4	0	0	1168459	691	0	correct_rejection	NA	0
22	Triplet	123	609	1419	7	0	0	1169167	692	0	correct_rejection	NA	0
22	Triplet	124	610	1420	8	0	0	1169876	692	0	correct_rejection	NA	0
22	Triplet	125	611	1421	9	0	0	1170584	692	0	correct_rejection	NA	0
22	Triplet	126	612	1422	7	0	0	1171293	692	0	correct_rejection	NA	0
22	Triplet	127	613	1423	8	0	0	1172002	691	0	correct_rejection	NA	0
22	Triplet	128	614	1424	9	0	0	1172710	692	0	correct_rejection	NA	0
22	Triplet	129	615	1425	4	0	0	1173419	691	0	correct_rejection	NA	0
22	Triplet	130	616	1426	5	0	0	1174127	692	0	correct_rejection	NA	0
22	Triplet	131	617	1427	6	0	0	1174836	692	0	correct_rejection	NA	0
22	Triplet	132	618	1428	6	0	0	1175544	692	0	correct_rejection	NA	0
22	Triplet	133	619	1429	5	0	0	1176253	692	0	correct_rejection	NA	0
22	Triplet	134	620	1430	4	0	0	1176962	691	0	correct_rejection	NA	0
22	Triplet	135	621	1431	4	0	0	1177670	692	0	correct_rejection	NA	0
22	Triplet	136	622	1432	5	0	0	1178379	691	0	correct_rejection	NA	0
22	Triplet	137	623	1433	6	0	0	1179087	692	0	correct_rejection	NA	0
22	Triplet	138	624	1434	7	0	0	1179796	692	0	correct_rejection	NA	0
22	Triplet	139	625	1435	8	0	0	1180504	692	0	correct_rejection	NA	0
22	Triplet	140	626	1436	9	0	0	1181213	692	0	correct_rejection	NA	0
22	Triplet	141	627	1437	9	0	0	1181922	691	0	correct_rejection	NA	0
22	Triplet	142	628	1438	8	0	0	1182630	692	0	correct_rejection	NA	0
22	Triplet	143	629	1439	7	0	0	1183339	691	0	correct_rejection	NA	0
22	Triplet	144	630	1440	0	1	2	1184047	692	0	miss	NA	0
22	Triplet	145	631	1441	9	0	0	1184756	691	1	false_alarm	68	0
22	Triplet	146	632	1442	8	0	0	1185464	692	0	correct_rejection	NA	0
22	Triplet	147	633	1443	7	0	0	1186173	692	0	correct_rejection	NA	0
22	Triplet	148	634	1444	4	0	0	1186881	692	0	correct_rejection	NA	0
22	Triplet	149	635	1445	5	0	0	1187590	692	0	correct_rejection	NA	0
22	Triplet	150	636	1446	6	0	0	1188299	691	0	correct_rejection	NA	0
22	Triplet	151	637	1447	4	0	0	1189007	692	0	correct_rejection	NA	0
22	Triplet	152	638	1448	5	0	0	1189716	691	0	correct_rejection	NA	0
22	Triplet	153	639	1449	6	0	0	1190424	692	0	correct_rejection	NA	0
22	Triplet	154	640	1450	9	0	0	1191133	692	0	correct_rejection	NA	0
22	Triplet	155	641	1451	8	0	0	1191841	692	0	correct_rejection	NA	0
22	Triplet	156	642	1452	7	0	0	1192550	692	0	correct_rejection	NA	0
22	Triplet	157	643	1453	7	0	0	1193259	691	0	correct_rejection	NA	0
22	Triplet	158	644	1454	8	0	0	1193967	692	0	correct_rejection	NA	0
22	Triplet	159	645	1455	9	0	0	1194676	691	0	correct_rejection	NA	0
22	Triplet	160	646	1456	6	0	0	1195384	692	0	correct_rejection	NA	0
22	Triplet	161	647	1457	5	0	0	1196093	692	0	correct_rejection	NA	0
22	Triplet	162	648	1458	4	0	0	1196801	692	0	correct_rejection	NA	0
22	Nonet	1	649	1459	6	0	0	1207313	692	0	correct_rejection	NA	7808
22	Nonet	2	650	1460	5	0	0	1208022	691	0	correct_rejection	NA	0
22	Nonet	3	651	1461	4	0	0	1208730	692	0	correct_rejection	NA	0
22	Nonet	4	652	1462	6	0	0	1209439	692	0	correct_rejection	NA	0
22	Nonet	5	653	1463	5	0	0	1210147	692	0	correct_rejection	NA	0
22	Nonet	6	654	1464	4	0	0	1210856	692	0	correct_rejection	NA	0
22	Nonet	7	655	1465	6	0	0	1211565	691	0	correct_rejection	NA	0
22	Nonet	8	656	1466	5	0	0	1212273	692	0	correct_rejection	NA	0
22	Nonet	9	657	1467	4	0	0	1212982	691	0	correct_rejection	NA	0
22	Nonet	10	658	1468	9	0	0	1213690	692	0	correct_rejection	NA	0
22	Nonet	11	659	1469	8	0	0	1214399	692	0	correct_rejection	NA	0
22	Nonet	12	660	1470	7	0	0	1215107	692	0	correct_rejection	NA	0
22	Nonet	13	661	1471	9	0	0	1215816	692	0	correct_rejection	NA	0
22	Nonet	14	662	1472	8	0	0	1216525	691	0	correct_rejection	NA	0
22	Nonet	15	663	1473	7	0	0	1217233	692	0	correct_rejection	NA	0
22	Nonet	16	664	1474	0	1	2	1217942	691	1	hit	322	0
22	Nonet	17	665	1475	9	0	0	1218650	692	0	correct_rejection	NA	0
22	Nonet	18	666	1476	8	0	0	1219359	692	0	correct_rejection	NA	0
22	Nonet	19	667	1477	7	0	0	1220067	692	0	correct_rejection	NA	0
22	Nonet	20	668	1478	0	1	3	1220776	692	1	hit	398	0
22	Nonet	21	669	1479	4	0	0	1221485	691	0	correct_rejection	NA	0
22	Nonet	22	670	1480	5	0	0	1222193	692	0	correct_rejection	NA	0
22	Nonet	23	671	1481	0	1	1	1222902	691	1	hit	370	0
22	Nonet	24	672	1482	6	0	0	1223610	692	0	correct_rejection	NA	0
22	Nonet	25	673	1483	4	0	0	1224319	691	0	correct_rejection	NA	0
22	Nonet	26	674	1484	5	0	0	1225027	692	0	correct_rejection	NA	0
22	Nonet	27	675	1485	6	0	0	1225736	692	0	correct_rejection	NA	0
22	Nonet	28	676	1486	4	0	0	1226444	692	0	correct_rejection	NA	0
22	Nonet	29	677	1487	5	0	0	1227153	692	0	correct_rejection	NA	0
22	Nonet	30	678	1488	0	1	1	1227862	691	1	hit	397	0
22	Nonet	31	679	1489	6	0	0	1228570	692	0	correct_rejection	NA	0
22	Nonet	32	680	1490	4	0	0	1229279	691	0	correct_rejection	NA	0
22	Nonet	33	681	1491	5	0	0	1229987	692	0	correct_rejection	NA	0
22	Nonet	34	682	1492	6	0	0	1230696	692	0	correct_rejection	NA	0
22	Nonet	35	683	1493	4	0	0	1231404	692	0	correct_rejection	NA	0
22	Nonet	36	684	1494	5	0	0	1232113	692	0	correct_rejection	NA	0
22	Nonet	37	685	1495	6	0	0	1232822	691	0	correct_rejection	NA	0
22	Nonet	38	686	1496	4	0	0	1233530	692	0	correct_rejection	NA	0
22	Nonet	39	687	1497	5	0	0	1234239	691	0	correct_rejection	NA	0
22	Nonet	40	688	1498	6	0	0	1234947	692	0	correct_rejection	NA	0
22	Nonet	41	689	1499	6	0	0	1235656	692	0	correct_rejection	NA	0
22	Nonet	42	690	1500	5	0	0	1236364	692	0	correct_rejection	NA	0
22	Nonet	43	691	1501	4	0	0	1237073	692	0	correct_rejection	NA	0
22	Nonet	44	692	1502	6	0	0	1237782	691	0	correct_rejection	NA	0
22	Nonet	45	693	1503	5	0	0	1238490	692	0	correct_rejection	NA	0
22	Nonet	46	694	1504	4	0	0	1239199	691	0	correct_rejection	NA	0
22	Nonet	47	695	1505	6	0	0	1239907	692	0	correct_rejection	NA	0
22	Nonet	48	696	1506	5	0	0	1240616	692	0	correct_rejection	NA	0
22	Nonet	49	697	1507	0	1	1	1241324	692	1	hit	350	0
22	Nonet	50	698	1508	4	0	0	1242033	692	0	correct_rejection	NA	0
22	Nonet	51	699	1509	6	0	0	1242742	691	0	correct_rejection	NA	0
22	Nonet	52	700	1510	5	0	0	1243450	692	0	correct_rejection	NA	0
22	Nonet	53	701	1511	4	0	0	1244159	691	0	correct_rejection	NA	0
22	Nonet	54	702	1512	6	0	0	1244867	692	0	correct_rejection	NA	0
22	Nonet	55	703	1513	0	1	1	1245576	691	1	hit	340	0
22	Nonet	56	704	1514	5	0	0	1246284	692	0	correct_rejection	NA	0
22	Nonet	57	705	1515	4	0	0	1246993	692	0	correct_rejection	NA	0
22	Nonet	58	706	1516	0	1	2	1247701	692	1	hit	524	0
22	Nonet	59	707	1517	6	0	0	1248410	692	0	correct_rejection	NA	0
22	Nonet	60	708	1518	5	0	0	1249119	691	0	correct_rejection	NA	0
22	Nonet	61	709	1519	4	0	0	1249827	692	0	correct_rejection	NA	0
22	Nonet	62	710	1520	4	0	0	1250536	691	0	correct_rejection	NA	0
22	Nonet	63	711	1521	5	0	0	1251244	692	0	correct_rejection	NA	0
22	Nonet	64	712	1522	6	0	0	1251953	692	0	correct_rejection	NA	0
22	Nonet	65	713	1523	4	0	0	1252661	692	0	correct_rejection	NA	0
22	Nonet	66	714	1524	5	0	0	1253370	692	0	correct_rejection	NA	0
22	Nonet	67	715	1525	6	0	0	1254079	691	0	correct_rejection	NA	0
22	Nonet	68	716	1526	4	0	0	1254787	692	0	correct_rejection	NA	0
22	Nonet	69	717	1527	5	0	0	1255496	691	0	correct_rejection	NA	0
22	Nonet	70	718	1528	6	0	0	1256204	692	0	correct_rejection	NA	0
22	Nonet	71	719	1529	7	0	0	1256913	692	0	correct_rejection	NA	0
22	Nonet	72	720	1530	8	0	0	1257621	692	0	correct_rejection	NA	0
22	Nonet	73	721	1531	9	0	0	1258330	692	0	correct_rejection	NA	0
22	Nonet	74	722	1532	0	1	2	1259039	691	1	hit	568	0
22	Nonet	75	723	1533	7	0	0	1259747	692	0	correct_rejection	NA	0
22	Nonet	76	724	1534	8	0	0	1260456	691	0	correct_rejection	NA	0
22	Nonet	77	725	1535	0	1	1	1261164	692	1	hit	469	0
22	Nonet	78	726	1536	9	0	0	1261873	692	0	correct_rejection	NA	0
22	Nonet	79	727	1537	7	0	0	1262581	692	0	correct_rejection	NA	0
22	Nonet	80	728	1538	8	0	0	1263290	692	0	correct_rejection	NA	0
22	Nonet	81	729	1539	9	0	0	1263999	691	0	correct_rejection	NA	0
22	Nonet	82	730	1540	6	0	0	1264707	692	0	correct_rejection	NA	0
22	Nonet	83	731	1541	5	0	0	1265416	691	0	correct_rejection	NA	0
22	Nonet	84	732	1542	4	0	0	1266124	692	0	correct_rejection	NA	0
22	Nonet	85	733	1543	6	0	0	1266833	691	0	correct_rejection	NA	0
22	Nonet	86	734	1544	5	0	0	1267541	692	0	correct_rejection	NA	0
22	Nonet	87	735	1545	4	0	0	1268250	692	0	correct_rejection	NA	0
22	Nonet	88	736	1546	0	1	2	1268958	692	1	hit	414	0
22	Nonet	89	737	1547	6	0	0	1269667	692	0	correct_rejection	NA	0
22	Nonet	90	738	1548	5	0	0	1270376	691	0	correct_rejection	NA	0
22	Nonet	91	739	1549	4	0	0	1271084	692	0	correct_rejection	NA	0
22	Nonet	92	740	1550	7	0	0	1271793	691	0	correct_rejection	NA	0
22	Nonet	93	741	1551	8	0	0	1272501	692	0	correct_rejection	NA	0
22	Nonet	94	742	1552	9	0	0	1273210	692	0	correct_rejection	NA	0
22	Nonet	95	743	1553	7	0	0	1273918	692	0	correct_rejection	NA	0
22	Nonet	96	744	1554	8	0	0	1274627	692	0	correct_rejection	NA	0
22	Nonet	97	745	1555	9	0	0	1275336	691	0	correct_rejection	NA	0
22	Nonet	98	746	1556	7	0	0	1276044	692	0	correct_rejection	NA	0
22	Nonet	99	747	1557	0	1	1	1276753	691	1	hit	387	0
22	Nonet	100	748	1558	8	0	0	1277461	692	0	correct_rejection	NA	0
22	Nonet	101	749	1559	9	0	0	1278170	692	0	correct_rejection	NA	0
22	Nonet	102	750	1560	4	0	0	1278878	692	0	correct_rejection	NA	0
22	Nonet	103	751	1561	0	1	1	1279587	692	1	hit	422	0
22	Nonet	104	752	1562	5	0	0	1280296	691	0	correct_rejection	NA	0
22	Nonet	105	753	1563	6	0	0	1281004	692	0	correct_rejection	NA	0
22	Nonet	106	754	1564	0	1	2	1281713	691	1	hit	394	0
22	Nonet	107	755	1565	4	0	0	1282421	692	0	correct_rejection	NA	0
22	Nonet	108	756	1566	5	0	0	1283130	691	0	correct_rejection	NA	0
22	Nonet	109	757	1567	6	0	0	1283838	692	0	correct_rejection	NA	0
22	Nonet	110	758	1568	4	0	0	1284547	692	0	correct_rejection	NA	0
22	Nonet	111	759	1569	5	0	0	1285256	691	0	correct_rejection	NA	0
22	Nonet	112	760	1570	6	0	0	1285964	692	0	correct_rejection	NA	0
22	Nonet	113	761	1571	9	0	0	1286673	691	0	correct_rejection	NA	0
22	Nonet	114	762	1572	8	0	0	1287381	692	0	correct_rejection	NA	0
22	Nonet	115	763	1573	7	0	0	1288090	691	0	correct_rejection	NA	0
22	Nonet	116	764	1574	9	0	0	1288798	692	0	correct_rejection	NA	0
22	Nonet	117	765	1575	0	1	1	1289507	692	1	hit	489	0
22	Nonet	118	766	1576	8	0	0	1290215	692	0	correct_rejection	NA	0
22	Nonet	119	767	1577	7	0	0	1290924	692	0	correct_rejection	NA	0
22	Nonet	120	768	1578	9	0	0	1291633	691	0	correct_rejection	NA	0
22	Nonet	121	769	1579	8	0	0	1292341	692	0	correct_rejection	NA	0
22	Nonet	122	770	1580	0	1	1	1293050	691	1	hit	368	0
22	Nonet	123	771	1581	7	0	0	1293758	692	0	correct_rejection	NA	0
22	Nonet	124	772	1582	9	0	0	1294467	692	0	correct_rejection	NA	0
22	Nonet	125	773	1583	8	0	0	1295175	692	0	correct_rejection	NA	0
22	Nonet	126	774	1584	7	0	0	1295884	692	0	correct_rejection	NA	0
22	Nonet	127	775	1585	0	1	2	1296593	691	1	hit	521	0
22	Nonet	128	776	1586	9	0	0	1297301	692	0	correct_rejection	NA	0
22	Nonet	129	777	1587	8	0	0	1298010	691	0	correct_rejection	NA	0
22	Nonet	130	778	1588	0	1	1	1298718	692	1	hit	370	0
22	Nonet	131	779	1589	7	0	0	1299427	692	0	correct_rejection	NA	0
22	Nonet	132	780	1590	9	0	0	1300135	692	0	correct_rejection	NA	0
22	Nonet	133	781	1591	8	0	0	1300844	692	0	correct_rejection	NA	0
22	Nonet	134	782	1592	7	0	0	1301553	691	0	correct_rejection	NA	0
22	Nonet	135	783	1593	7	0	0	1302261	692	0	correct_rejection	NA	0
22	Nonet	136	784	1594	8	0	0	1302970	691	0	correct_rejection	NA	0
22	Nonet	137	785	1595	9	0	0	1303678	692	0	correct_rejection	NA	0
22	Nonet	138	786	1596	7	0	0	1304387	691	0	correct_rejection	NA	0
22	Nonet	139	787	1597	8	0	0	1305095	692	0	correct_rejection	NA	0
22	Nonet	140	788	1598	9	0	0	1305804	692	0	correct_rejection	NA	0
22	Nonet	141	789	1599	7	0	0	1306512	692	0	correct_rejection	NA	0
22	Nonet	142	790	1600	8	0	0	1307221	692	0	correct_rejection	NA	0
