ID	block	trial_block	trial_cat	trial_total	number	violation	level_violation	onset	duration	Response	Hit_Miss	RT	pre_trial_fixcross_ISI
first_trigger_at: 11350
trigger nr 3 at 13350
23	Nonet	1	649	1	6	0	0	21198	692	0	correct_rejection	NA	7809
23	Nonet	2	650	2	5	0	0	21907	691	0	correct_rejection	NA	0
23	Nonet	3	651	3	4	0	0	22615	692	0	correct_rejection	NA	0
23	Nonet	4	652	4	6	0	0	23324	692	0	correct_rejection	NA	0
23	Nonet	5	653	5	5	0	0	24032	692	0	correct_rejection	NA	0
23	Nonet	6	654	6	4	0	0	24741	692	0	correct_rejection	NA	0
23	Nonet	7	655	7	6	0	0	25450	691	0	correct_rejection	NA	0
23	Nonet	8	656	8	5	0	0	26158	692	0	correct_rejection	NA	0
23	Nonet	9	657	9	4	0	0	26867	691	0	correct_rejection	NA	0
23	Nonet	10	658	10	9	0	0	27575	692	0	correct_rejection	NA	0
23	Nonet	11	659	11	8	0	0	28284	691	0	correct_rejection	NA	0
23	Nonet	12	660	12	7	0	0	28992	692	0	correct_rejection	NA	0
23	Nonet	13	661	13	9	0	0	29701	692	0	correct_rejection	NA	0
23	Nonet	14	662	14	8	0	0	30409	692	0	correct_rejection	NA	0
23	Nonet	15	663	15	7	0	0	31118	692	0	correct_rejection	NA	0
23	Nonet	16	664	16	0	1	2	31827	691	1	hit	479	0
23	Nonet	17	665	17	9	0	0	32535	692	0	correct_rejection	NA	0
23	Nonet	18	666	18	8	0	0	33244	691	0	correct_rejection	NA	0
23	Nonet	19	667	19	7	0	0	33952	692	0	correct_rejection	NA	0
23	Nonet	20	668	20	0	1	3	34661	692	1	hit	393	0
23	Nonet	21	669	21	4	0	0	35369	692	0	correct_rejection	NA	0
23	Nonet	22	670	22	5	0	0	36078	692	0	correct_rejection	NA	0
23	Nonet	23	671	23	0	1	1	36787	691	1	hit	341	0
23	Nonet	24	672	24	6	0	0	37495	692	0	correct_rejection	NA	0
23	Nonet	25	673	25	4	0	0	38204	691	0	correct_rejection	NA	0
23	Nonet	26	674	26	5	0	0	38912	692	0	correct_rejection	NA	0
23	Nonet	27	675	27	6	0	0	39621	692	0	correct_rejection	NA	0
23	Nonet	28	676	28	4	0	0	40329	692	0	correct_rejection	NA	0
23	Nonet	29	677	29	5	0	0	41038	692	0	correct_rejection	NA	0
23	Nonet	30	678	30	0	1	1	41747	691	1	hit	280	0
23	Nonet	31	679	31	6	0	0	42455	692	0	correct_rejection	NA	0
23	Nonet	32	680	32	4	0	0	43164	691	0	correct_rejection	NA	0
23	Nonet	33	681	33	5	0	0	43872	692	0	correct_rejection	NA	0
23	Nonet	34	682	34	6	0	0	44581	691	0	correct_rejection	NA	0
23	Nonet	35	683	35	4	0	0	45289	692	0	correct_rejection	NA	0
23	Nonet	36	684	36	5	0	0	45998	692	0	correct_rejection	NA	0
23	Nonet	37	685	37	6	0	0	46706	692	0	correct_rejection	NA	0
23	Nonet	38	686	38	4	0	0	47415	692	0	correct_rejection	NA	0
23	Nonet	39	687	39	5	0	0	48124	691	0	correct_rejection	NA	0
23	Nonet	40	688	40	6	0	0	48832	692	0	correct_rejection	NA	0
23	Nonet	41	689	41	6	0	0	49541	691	0	correct_rejection	NA	0
23	Nonet	42	690	42	5	0	0	50249	692	0	correct_rejection	NA	0
23	Nonet	43	691	43	4	0	0	50958	692	0	correct_rejection	NA	0
23	Nonet	44	692	44	6	0	0	51666	692	0	correct_rejection	NA	0
23	Nonet	45	693	45	5	0	0	52375	692	0	correct_rejection	NA	0
23	Nonet	46	694	46	4	0	0	53084	691	0	correct_rejection	NA	0
23	Nonet	47	695	47	6	0	0	53792	692	0	correct_rejection	NA	0
23	Nonet	48	696	48	5	0	0	54501	691	0	correct_rejection	NA	0
23	Nonet	49	697	49	0	1	1	55209	692	1	hit	417	0
23	Nonet	50	698	50	4	0	0	55918	692	0	correct_rejection	NA	0
23	Nonet	51	699	51	6	0	0	56626	692	0	correct_rejection	NA	0
23	Nonet	52	700	52	5	0	0	57335	692	0	correct_rejection	NA	0
23	Nonet	53	701	53	4	0	0	58044	691	0	correct_rejection	NA	0
23	Nonet	54	702	54	6	0	0	58752	692	0	correct_rejection	NA	0
23	Nonet	55	703	55	0	1	1	59461	691	1	hit	436	0
23	Nonet	56	704	56	5	0	0	60169	692	0	correct_rejection	NA	0
23	Nonet	57	705	57	4	0	0	60878	692	0	correct_rejection	NA	0
23	Nonet	58	706	58	0	1	2	61586	692	1	hit	416	0
23	Nonet	59	707	59	6	0	0	62295	692	0	correct_rejection	NA	0
23	Nonet	60	708	60	5	0	0	63004	691	0	correct_rejection	NA	0
23	Nonet	61	709	61	4	0	0	63712	692	0	correct_rejection	NA	0
23	Nonet	62	710	62	4	0	0	64421	691	0	correct_rejection	NA	0
23	Nonet	63	711	63	5	0	0	65129	692	0	correct_rejection	NA	0
23	Nonet	64	712	64	6	0	0	65838	691	0	correct_rejection	NA	0
23	Nonet	65	713	65	4	0	0	66546	692	0	correct_rejection	NA	0
23	Nonet	66	714	66	5	0	0	67255	692	0	correct_rejection	NA	0
23	Nonet	67	715	67	6	0	0	67963	692	0	correct_rejection	NA	0
23	Nonet	68	716	68	4	0	0	68672	692	0	correct_rejection	NA	0
23	Nonet	69	717	69	5	0	0	69381	691	0	correct_rejection	NA	0
23	Nonet	70	718	70	6	0	0	70089	692	0	correct_rejection	NA	0
23	Nonet	71	719	71	7	0	0	70798	691	0	correct_rejection	NA	0
23	Nonet	72	720	72	8	0	0	71506	692	0	correct_rejection	NA	0
23	Nonet	73	721	73	9	0	0	72215	692	0	correct_rejection	NA	0
23	Nonet	74	722	74	0	1	2	72923	692	1	hit	326	0
23	Nonet	75	723	75	7	0	0	73632	692	0	correct_rejection	NA	0
23	Nonet	76	724	76	8	0	0	74341	691	0	correct_rejection	NA	0
23	Nonet	77	725	77	0	1	1	75049	692	1	hit	415	0
23	Nonet	78	726	78	9	0	0	75758	691	0	correct_rejection	NA	0
23	Nonet	79	727	79	7	0	0	76466	692	0	correct_rejection	NA	0
23	Nonet	80	728	80	8	0	0	77175	692	0	correct_rejection	NA	0
23	Nonet	81	729	81	9	0	0	77883	692	0	correct_rejection	NA	0
23	Nonet	82	730	82	6	0	0	78592	692	0	correct_rejection	NA	0
23	Nonet	83	731	83	5	0	0	79301	691	0	correct_rejection	NA	0
23	Nonet	84	732	84	4	0	0	80009	692	0	correct_rejection	NA	0
23	Nonet	85	733	85	6	0	0	80718	691	0	correct_rejection	NA	0
23	Nonet	86	734	86	5	0	0	81426	692	0	correct_rejection	NA	0
23	Nonet	87	735	87	4	0	0	82135	692	0	correct_rejection	NA	0
23	Nonet	88	736	88	0	1	2	82843	692	1	hit	425	0
23	Nonet	89	737	89	6	0	0	83552	692	0	correct_rejection	NA	0
23	Nonet	90	738	90	5	0	0	84261	691	0	correct_rejection	NA	0
23	Nonet	91	739	91	4	0	0	84969	692	0	correct_rejection	NA	0
23	Nonet	92	740	92	7	0	0	85678	691	0	correct_rejection	NA	0
23	Nonet	93	741	93	8	0	0	86386	692	0	correct_rejection	NA	0
23	Nonet	94	742	94	9	0	0	87095	691	0	correct_rejection	NA	0
23	Nonet	95	743	95	7	0	0	87803	692	0	correct_rejection	NA	0
23	Nonet	96	744	96	8	0	0	88512	692	0	correct_rejection	NA	0
23	Nonet	97	745	97	9	0	0	89220	692	0	correct_rejection	NA	0
23	Nonet	98	746	98	7	0	0	89929	692	0	correct_rejection	NA	0
23	Nonet	99	747	99	0	1	1	90638	691	1	hit	413	0
23	Nonet	100	748	100	8	0	0	91346	692	0	correct_rejection	NA	0
23	Nonet	101	749	101	9	0	0	92055	691	0	correct_rejection	NA	0
23	Nonet	102	750	102	4	0	0	92763	692	0	correct_rejection	NA	0
23	Nonet	103	751	103	0	1	1	93472	692	1	hit	398	0
23	Nonet	104	752	104	5	0	0	94180	692	0	correct_rejection	NA	0
23	Nonet	105	753	105	6	0	0	94889	692	0	correct_rejection	NA	0
23	Nonet	106	754	106	0	1	2	95598	691	1	hit	373	0
23	Nonet	107	755	107	4	0	0	96306	692	0	correct_rejection	NA	0
23	Nonet	108	756	108	5	0	0	97015	691	0	correct_rejection	NA	0
23	Nonet	109	757	109	6	0	0	97723	692	0	correct_rejection	NA	0
23	Nonet	110	758	110	4	0	0	98432	692	0	correct_rejection	NA	0
23	Nonet	111	759	111	5	0	0	99140	692	0	correct_rejection	NA	0
23	Nonet	112	760	112	6	0	0	99849	692	0	correct_rejection	NA	0
23	Nonet	113	761	113	9	0	0	100558	691	0	correct_rejection	NA	0
23	Nonet	114	762	114	8	0	0	101266	692	0	correct_rejection	NA	0
23	Nonet	115	763	115	7	0	0	101975	691	0	correct_rejection	NA	0
23	Nonet	116	764	116	9	0	0	102683	692	0	correct_rejection	NA	0
23	Nonet	117	765	117	0	1	1	103392	692	1	hit	356	0
23	Nonet	118	766	118	8	0	0	104100	692	0	correct_rejection	NA	0
23	Nonet	119	767	119	7	0	0	104809	692	0	correct_rejection	NA	0
23	Nonet	120	768	120	9	0	0	105518	691	0	correct_rejection	NA	0
23	Nonet	121	769	121	8	0	0	106226	692	0	correct_rejection	NA	0
23	Nonet	122	770	122	0	1	1	106935	691	1	hit	249	0
23	Nonet	123	771	123	7	0	0	107643	692	0	correct_rejection	NA	0
23	Nonet	124	772	124	9	0	0	108352	691	0	correct_rejection	NA	0
23	Nonet	125	773	125	8	0	0	109060	692	0	correct_rejection	NA	0
23	Nonet	126	774	126	7	0	0	109769	692	0	correct_rejection	NA	0
23	Nonet	127	775	127	0	1	2	110477	692	1	hit	373	0
23	Nonet	128	776	128	9	0	0	111186	692	0	correct_rejection	NA	0
23	Nonet	129	777	129	8	0	0	111895	691	0	correct_rejection	NA	0
23	Nonet	130	778	130	0	1	1	112603	692	1	hit	356	0
23	Nonet	131	779	131	7	0	0	113312	691	0	correct_rejection	NA	0
23	Nonet	132	780	132	9	0	0	114020	692	0	correct_rejection	NA	0
23	Nonet	133	781	133	8	0	0	114729	692	0	correct_rejection	NA	0
23	Nonet	134	782	134	7	0	0	115437	692	0	correct_rejection	NA	0
23	Nonet	135	783	135	7	0	0	116146	692	0	correct_rejection	NA	0
23	Nonet	136	784	136	8	0	0	116855	691	0	correct_rejection	NA	0
23	Nonet	137	785	137	9	0	0	117563	692	0	correct_rejection	NA	0
23	Nonet	138	786	138	7	0	0	118272	691	0	correct_rejection	NA	0
23	Nonet	139	787	139	8	0	0	118980	692	0	correct_rejection	NA	0
23	Nonet	140	788	140	9	0	0	119689	692	0	correct_rejection	NA	0
23	Nonet	141	789	141	7	0	0	120397	692	0	correct_rejection	NA	0
23	Nonet	142	790	142	8	0	0	121106	692	0	correct_rejection	NA	0
23	Nonet	143	791	143	9	0	0	121815	691	0	correct_rejection	NA	0
23	Nonet	144	792	144	0	1	3	122523	692	1	hit	334	0
23	Nonet	145	793	145	7	0	0	123232	691	0	correct_rejection	NA	0
23	Nonet	146	794	146	8	0	0	123940	692	0	correct_rejection	NA	0
23	Nonet	147	795	147	9	0	0	124649	691	0	correct_rejection	NA	0
23	Nonet	148	796	148	7	0	0	125357	692	0	correct_rejection	NA	0
23	Nonet	149	797	149	8	0	0	126066	692	0	correct_rejection	NA	0
23	Nonet	150	798	150	9	0	0	126775	691	0	correct_rejection	NA	0
23	Nonet	151	799	151	7	0	0	127483	692	0	correct_rejection	NA	0
23	Nonet	152	800	152	8	0	0	128192	691	0	correct_rejection	NA	0
23	Nonet	153	801	153	9	0	0	128900	692	0	correct_rejection	NA	0
23	Nonet	154	802	154	9	0	0	129609	691	0	correct_rejection	NA	0
23	Nonet	155	803	155	8	0	0	130317	692	0	correct_rejection	NA	0
23	Nonet	156	804	156	7	0	0	131026	692	0	correct_rejection	NA	0
23	Nonet	157	805	157	9	0	0	131734	692	0	correct_rejection	NA	0
23	Nonet	158	806	158	8	0	0	132443	692	0	correct_rejection	NA	0
23	Nonet	159	807	159	7	0	0	133152	691	0	correct_rejection	NA	0
23	Nonet	160	808	160	9	0	0	133860	692	0	correct_rejection	NA	0
23	Nonet	161	809	161	8	0	0	134569	691	0	correct_rejection	NA	0
23	Nonet	162	810	162	7	0	0	135277	692	0	correct_rejection	NA	0
23	Single	1	1	163	9	0	0	145347	692	0	correct_rejection	NA	7958
23	Single	2	2	164	5	0	0	146056	692	0	correct_rejection	NA	0
23	Single	3	3	165	4	0	0	146764	692	0	correct_rejection	NA	0
23	Single	4	4	166	7	0	0	147473	692	0	correct_rejection	NA	0
23	Single	5	5	167	9	0	0	148182	691	0	correct_rejection	NA	0
23	Single	6	6	168	4	0	0	148890	692	0	correct_rejection	NA	0
23	Single	7	7	169	4	0	0	149599	691	0	correct_rejection	NA	0
23	Single	8	8	170	5	0	0	150307	692	0	correct_rejection	NA	0
23	Single	9	9	171	0	1	1	151016	691	1	hit	307	0
23	Single	10	10	172	8	0	0	151724	692	0	correct_rejection	NA	0
23	Single	11	11	173	7	0	0	152433	692	0	correct_rejection	NA	0
23	Single	12	12	174	5	0	0	153142	691	0	correct_rejection	NA	0
23	Single	13	13	175	7	0	0	153850	692	0	correct_rejection	NA	0
23	Single	14	14	176	0	1	1	154559	691	1	hit	387	0
23	Single	15	15	177	7	0	0	155267	692	0	correct_rejection	NA	0
23	Single	16	16	178	8	0	0	155976	691	0	correct_rejection	NA	0
23	Single	17	17	179	9	0	0	156684	692	0	correct_rejection	NA	0
23	Single	18	18	180	8	0	0	157393	692	0	correct_rejection	NA	0
23	Single	19	19	181	6	0	0	158101	692	0	correct_rejection	NA	0
23	Single	20	20	182	4	0	0	158810	692	0	correct_rejection	NA	0
23	Single	21	21	183	0	1	1	159519	691	1	hit	327	0
23	Single	22	22	184	9	0	0	160227	692	0	correct_rejection	NA	0
23	Single	23	23	185	9	0	0	160936	691	0	correct_rejection	NA	0
23	Single	24	24	186	7	0	0	161644	692	0	correct_rejection	NA	0
23	Single	25	25	187	0	1	1	162353	692	1	hit	369	0
23	Single	26	26	188	6	0	0	163061	692	0	correct_rejection	NA	0
23	Single	27	27	189	6	0	0	163770	692	0	correct_rejection	NA	0
23	Single	28	28	190	8	0	0	164479	691	0	correct_rejection	NA	0
23	Single	29	29	191	5	0	0	165187	692	0	correct_rejection	NA	0
23	Single	30	30	192	6	0	0	165896	691	0	correct_rejection	NA	0
23	Single	31	31	193	0	1	1	166604	692	1	hit	291	0
23	Single	32	32	194	7	0	0	167313	692	0	correct_rejection	NA	0
23	Single	33	33	195	4	0	0	168021	692	0	correct_rejection	NA	0
23	Single	34	34	196	8	0	0	168730	692	0	correct_rejection	NA	0
23	Single	35	35	197	8	0	0	169439	691	0	correct_rejection	NA	0
23	Single	36	36	198	4	0	0	170147	692	0	correct_rejection	NA	0
23	Single	37	37	199	6	0	0	170856	691	0	correct_rejection	NA	0
23	Single	38	38	200	5	0	0	171564	692	0	correct_rejection	NA	0
23	Single	39	39	201	5	0	0	172273	691	0	correct_rejection	NA	0
23	Single	40	40	202	9	0	0	172981	692	0	correct_rejection	NA	0
23	Single	41	41	203	6	0	0	173690	692	0	correct_rejection	NA	0
23	Single	42	42	204	4	0	0	174398	692	0	correct_rejection	NA	0
23	Single	43	43	205	9	0	0	175107	692	0	correct_rejection	NA	0
23	Single	44	44	206	8	0	0	175816	691	0	correct_rejection	NA	0
23	Single	45	45	207	8	0	0	176524	692	0	correct_rejection	NA	0
23	Single	46	46	208	6	0	0	177233	691	0	correct_rejection	NA	0
23	Single	47	47	209	9	0	0	177941	692	0	correct_rejection	NA	0
23	Single	48	48	210	6	0	0	178650	692	0	correct_rejection	NA	0
23	Single	49	49	211	6	0	0	179358	692	0	correct_rejection	NA	0
23	Single	50	50	212	7	0	0	180067	692	0	correct_rejection	NA	0
23	Single	51	51	213	5	0	0	180776	691	0	correct_rejection	NA	0
23	Single	52	52	214	6	0	0	181484	692	0	correct_rejection	NA	0
23	Single	53	53	215	5	0	0	182193	691	0	correct_rejection	NA	0
23	Single	54	54	216	8	0	0	182901	692	0	correct_rejection	NA	0
23	Single	55	55	217	4	0	0	183610	692	0	correct_rejection	NA	0
23	Single	56	56	218	5	0	0	184318	692	0	correct_rejection	NA	0
23	Single	57	57	219	4	0	0	185027	692	0	correct_rejection	NA	0
23	Single	58	58	220	8	0	0	185736	691	0	correct_rejection	NA	0
23	Single	59	59	221	7	0	0	186444	692	0	correct_rejection	NA	0
23	Single	60	60	222	7	0	0	187153	691	0	correct_rejection	NA	0
23	Single	61	61	223	6	0	0	187861	692	0	correct_rejection	NA	0
23	Single	62	62	224	8	0	0	188570	692	0	correct_rejection	NA	0
23	Single	63	63	225	9	0	0	189278	692	0	correct_rejection	NA	0
23	Single	64	64	226	7	0	0	189987	692	0	correct_rejection	NA	0
23	Single	65	65	227	9	0	0	190696	691	0	correct_rejection	NA	0
23	Single	66	66	228	5	0	0	191404	692	0	correct_rejection	NA	0
23	Single	67	67	229	5	0	0	192113	691	0	correct_rejection	NA	0
23	Single	68	68	230	7	0	0	192821	692	0	correct_rejection	NA	0
23	Single	69	69	231	4	0	0	193530	691	0	correct_rejection	NA	0
23	Single	70	70	232	6	0	0	194238	692	0	correct_rejection	NA	0
23	Single	71	71	233	4	0	0	194947	692	0	correct_rejection	NA	0
23	Single	72	72	234	0	1	1	195655	692	1	hit	532	0
23	Single	73	73	235	4	0	0	196364	692	0	correct_rejection	NA	0
23	Single	74	74	236	7	0	0	197073	691	0	correct_rejection	NA	0
23	Single	75	75	237	0	1	1	197781	692	1	hit	358	0
23	Single	76	76	238	8	0	0	198490	691	0	correct_rejection	NA	0
23	Single	77	77	239	5	0	0	199198	692	0	correct_rejection	NA	0
23	Single	78	78	240	9	0	0	199907	692	0	correct_rejection	NA	0
23	Single	79	79	241	9	0	0	200615	692	0	correct_rejection	NA	0
23	Single	80	80	242	4	0	0	201324	692	0	correct_rejection	NA	0
23	Single	81	81	243	9	0	0	202033	691	0	correct_rejection	NA	0
23	Single	82	82	244	0	1	1	202741	692	1	hit	431	0
23	Single	83	83	245	6	0	0	203450	691	0	correct_rejection	NA	0
23	Single	84	84	246	4	0	0	204158	692	0	correct_rejection	NA	0
23	Single	85	85	247	6	0	0	204867	692	0	correct_rejection	NA	0
23	Single	86	86	248	8	0	0	205575	692	0	correct_rejection	NA	0
23	Single	87	87	249	0	1	1	206284	692	1	hit	319	0
23	Single	88	88	250	8	0	0	206993	691	0	correct_rejection	NA	0
23	Single	89	89	251	5	0	0	207701	692	0	correct_rejection	NA	0
23	Single	90	90	252	7	0	0	208410	691	0	correct_rejection	NA	0
23	Single	91	91	253	8	0	0	209118	692	0	correct_rejection	NA	0
23	Single	92	92	254	6	0	0	209827	691	0	correct_rejection	NA	0
23	Single	93	93	255	7	0	0	210535	692	0	correct_rejection	NA	0
23	Single	94	94	256	9	0	0	211244	692	0	correct_rejection	NA	0
23	Single	95	95	257	8	0	0	211953	691	0	correct_rejection	NA	0
23	Single	96	96	258	7	0	0	212661	692	0	correct_rejection	NA	0
23	Single	97	97	259	6	0	0	213370	691	0	correct_rejection	NA	0
23	Single	98	98	260	9	0	0	214078	692	0	correct_rejection	NA	0
23	Single	99	99	261	0	1	1	214787	691	1	hit	382	0
23	Single	100	100	262	7	0	0	215495	692	0	correct_rejection	NA	0
23	Single	101	101	263	7	0	0	216204	692	0	correct_rejection	NA	0
23	Single	102	102	264	4	0	0	216912	692	0	correct_rejection	NA	0
23	Single	103	103	265	5	0	0	217621	692	0	correct_rejection	NA	0
23	Single	104	104	266	5	0	0	218330	691	0	correct_rejection	NA	0
23	Single	105	105	267	8	0	0	219038	692	0	correct_rejection	NA	0
23	Single	106	106	268	9	0	0	219747	691	0	correct_rejection	NA	0
23	Single	107	107	269	0	1	1	220455	692	1	hit	334	0
23	Single	108	108	270	9	0	0	221164	692	0	correct_rejection	NA	0
23	Single	109	109	271	4	0	0	221872	692	0	correct_rejection	NA	0
23	Single	110	110	272	0	1	1	222581	692	1	hit	353	0
23	Single	111	111	273	8	0	0	223290	691	0	correct_rejection	NA	0
23	Single	112	112	274	4	0	0	223998	692	0	correct_rejection	NA	0
23	Single	113	113	275	0	1	1	224707	691	1	hit	331	0
23	Single	114	114	276	7	0	0	225415	692	0	correct_rejection	NA	0
23	Single	115	115	277	5	0	0	226124	692	0	correct_rejection	NA	0
23	Single	116	116	278	9	0	0	226832	692	0	correct_rejection	NA	0
23	Single	117	117	279	5	0	0	227541	692	0	correct_rejection	NA	0
23	Single	118	118	280	6	0	0	228250	691	0	correct_rejection	NA	0
23	Single	119	119	281	6	0	0	228958	692	0	correct_rejection	NA	0
23	Single	120	120	282	5	0	0	229667	691	0	correct_rejection	NA	0
23	Single	121	121	283	0	1	1	230375	692	1	hit	376	0
23	Single	122	122	284	4	0	0	231084	691	0	correct_rejection	NA	0
23	Single	123	123	285	9	0	0	231792	692	0	correct_rejection	NA	0
23	Single	124	124	286	7	0	0	232501	692	0	correct_rejection	NA	0
23	Single	125	125	287	6	0	0	233209	692	0	correct_rejection	NA	0
23	Single	126	126	288	4	0	0	233918	692	0	correct_rejection	NA	0
23	Single	127	127	289	9	0	0	234627	691	0	correct_rejection	NA	0
23	Single	128	128	290	4	0	0	235335	692	0	correct_rejection	NA	0
23	Single	129	129	291	4	0	0	236044	691	0	correct_rejection	NA	0
23	Single	130	130	292	8	0	0	236752	692	0	correct_rejection	NA	0
23	Single	131	131	293	5	0	0	237461	692	0	correct_rejection	NA	0
23	Single	132	132	294	8	0	0	238169	692	0	correct_rejection	NA	0
23	Single	133	133	295	6	0	0	238878	692	0	correct_rejection	NA	0
23	Single	134	134	296	8	0	0	239587	691	0	correct_rejection	NA	0
23	Single	135	135	297	4	0	0	240295	692	0	correct_rejection	NA	0
23	Single	136	136	298	6	0	0	241004	691	0	correct_rejection	NA	0
23	Single	137	137	299	0	1	1	241712	692	1	hit	346	0
23	Single	138	138	300	6	0	0	242421	692	0	correct_rejection	NA	0
23	Single	139	139	301	9	0	0	243129	692	0	correct_rejection	NA	0
23	Single	140	140	302	5	0	0	243838	692	0	correct_rejection	NA	0
23	Single	141	141	303	4	0	0	244547	691	0	correct_rejection	NA	0
23	Single	142	142	304	5	0	0	245255	692	0	correct_rejection	NA	0
23	Single	143	143	305	0	1	1	245964	691	1	hit	298	0
23	Single	144	144	306	6	0	0	246672	692	0	correct_rejection	NA	0
23	Single	145	145	307	7	0	0	247381	692	0	correct_rejection	NA	0
23	Single	146	146	308	8	0	0	248089	692	0	correct_rejection	NA	0
23	Single	147	147	309	8	0	0	248798	692	0	correct_rejection	NA	0
23	Single	148	148	310	7	0	0	249507	691	0	correct_rejection	NA	0
23	Single	149	149	311	4	0	0	250215	692	0	correct_rejection	NA	0
23	Single	150	150	312	7	0	0	250924	691	0	correct_rejection	NA	0
23	Single	151	151	313	9	0	0	251632	692	0	correct_rejection	NA	0
23	Single	152	152	314	6	0	0	252341	691	0	correct_rejection	NA	0
23	Single	153	153	315	5	0	0	253049	692	0	correct_rejection	NA	0
23	Single	154	154	316	0	1	1	253758	692	1	hit	356	0
23	Single	155	155	317	7	0	0	254466	692	0	correct_rejection	NA	0
23	Single	156	156	318	7	0	0	255175	692	0	correct_rejection	NA	0
23	Single	157	157	319	0	1	1	255884	691	1	hit	411	0
23	Single	158	158	320	5	0	0	256592	692	0	correct_rejection	NA	0
23	Single	159	159	321	5	0	0	257301	691	0	correct_rejection	NA	0
23	Single	160	160	322	9	0	0	258009	692	0	correct_rejection	NA	0
23	Single	161	161	323	8	0	0	258718	692	0	correct_rejection	NA	0
23	Single	162	162	324	9	0	0	259426	692	0	correct_rejection	NA	0
23	Triplet	1	163	325	6	0	0	269280	691	0	correct_rejection	NA	7899
23	Triplet	2	164	326	5	0	0	269988	692	0	correct_rejection	NA	0
23	Triplet	3	165	327	4	0	0	270697	692	0	correct_rejection	NA	0
23	Triplet	4	166	328	0	1	2	271405	692	1	hit	338	0
23	Triplet	5	167	329	6	0	0	272114	692	0	correct_rejection	NA	0
23	Triplet	6	168	330	5	0	0	272823	691	0	correct_rejection	NA	0
23	Triplet	7	169	331	0	1	1	273531	692	1	hit	301	0
23	Triplet	8	170	332	4	0	0	274240	691	0	correct_rejection	NA	0
23	Triplet	9	171	333	4	0	0	274948	692	0	correct_rejection	NA	0
23	Triplet	10	172	334	5	0	0	275657	691	0	correct_rejection	NA	0
23	Triplet	11	173	335	0	1	1	276365	692	1	hit	340	0
23	Triplet	12	174	336	6	0	0	277074	692	0	correct_rejection	NA	0
23	Triplet	13	175	337	9	0	0	277782	692	0	correct_rejection	NA	0
23	Triplet	14	176	338	8	0	0	278491	692	0	correct_rejection	NA	0
23	Triplet	15	177	339	7	0	0	279200	691	0	correct_rejection	NA	0
23	Triplet	16	178	340	6	0	0	279908	692	0	correct_rejection	NA	0
23	Triplet	17	179	341	0	1	1	280617	691	1	hit	386	0
23	Triplet	18	180	342	5	0	0	281325	692	0	correct_rejection	NA	0
23	Triplet	19	181	343	4	0	0	282034	692	0	correct_rejection	NA	0
23	Triplet	20	182	344	9	0	0	282742	692	0	correct_rejection	NA	0
23	Triplet	21	183	345	8	0	0	283451	692	0	correct_rejection	NA	0
23	Triplet	22	184	346	7	0	0	284160	691	0	correct_rejection	NA	0
23	Triplet	23	185	347	0	1	2	284868	692	1	hit	352	0
23	Triplet	24	186	348	7	0	0	285577	691	0	correct_rejection	NA	0
23	Triplet	25	187	349	8	0	0	286285	692	0	correct_rejection	NA	0
23	Triplet	26	188	350	9	0	0	286994	692	0	correct_rejection	NA	0
23	Triplet	27	189	351	6	0	0	287702	692	0	correct_rejection	NA	0
23	Triplet	28	190	352	5	0	0	288411	692	0	correct_rejection	NA	0
23	Triplet	29	191	353	0	1	1	289120	691	1	hit	409	0
23	Triplet	30	192	354	4	0	0	289828	692	0	correct_rejection	NA	0
23	Triplet	31	193	355	7	0	0	290537	691	0	correct_rejection	NA	0
23	Triplet	32	194	356	8	0	0	291245	692	0	correct_rejection	NA	0
23	Triplet	33	195	357	9	0	0	291954	691	0	correct_rejection	NA	0
23	Triplet	34	196	358	7	0	0	292662	692	0	correct_rejection	NA	0
23	Triplet	35	197	359	8	0	0	293371	692	0	correct_rejection	NA	0
23	Triplet	36	198	360	9	0	0	294079	692	0	correct_rejection	NA	0
23	Triplet	37	199	361	9	0	0	294788	692	0	correct_rejection	NA	0
23	Triplet	38	200	362	8	0	0	295497	691	0	correct_rejection	NA	0
23	Triplet	39	201	363	7	0	0	296205	692	0	correct_rejection	NA	0
23	Triplet	40	202	364	9	0	0	296914	691	0	correct_rejection	NA	0
23	Triplet	41	203	365	8	0	0	297622	692	0	correct_rejection	NA	0
23	Triplet	42	204	366	0	1	1	298331	692	1	hit	347	0
23	Triplet	43	205	367	7	0	0	299039	692	0	correct_rejection	NA	0
23	Triplet	44	206	368	4	0	0	299748	692	0	correct_rejection	NA	0
23	Triplet	45	207	369	5	0	0	300457	691	0	correct_rejection	NA	0
23	Triplet	46	208	370	6	0	0	301165	692	0	correct_rejection	NA	0
23	Triplet	47	209	371	4	0	0	301874	691	0	correct_rejection	NA	0
23	Triplet	48	210	372	5	0	0	302582	692	0	correct_rejection	NA	0
23	Triplet	49	211	373	6	0	0	303291	692	0	correct_rejection	NA	0
23	Triplet	50	212	374	7	0	0	303999	692	0	correct_rejection	NA	0
23	Triplet	51	213	375	8	0	0	304708	692	0	correct_rejection	NA	0
23	Triplet	52	214	376	9	0	0	305417	691	0	correct_rejection	NA	0
23	Triplet	53	215	377	4	0	0	306125	692	0	correct_rejection	NA	0
23	Triplet	54	216	378	5	0	0	306834	691	0	correct_rejection	NA	0
23	Triplet	55	217	379	6	0	0	307542	692	0	correct_rejection	NA	0
23	Triplet	56	218	380	7	0	0	308251	692	0	correct_rejection	NA	0
23	Triplet	57	219	381	0	1	1	308959	692	1	hit	302	0
23	Triplet	58	220	382	8	0	0	309668	692	0	correct_rejection	NA	0
23	Triplet	59	221	383	9	0	0	310377	691	0	correct_rejection	NA	0
23	Triplet	60	222	384	0	1	2	311085	692	1	hit	366	0
23	Triplet	61	223	385	6	0	0	311794	691	0	correct_rejection	NA	0
23	Triplet	62	224	386	5	0	0	312502	692	0	correct_rejection	NA	0
23	Triplet	63	225	387	4	0	0	313211	691	0	correct_rejection	NA	0
23	Triplet	64	226	388	6	0	0	313919	692	0	correct_rejection	NA	0
23	Triplet	65	227	389	5	0	0	314628	692	0	correct_rejection	NA	0
23	Triplet	66	228	390	4	0	0	315336	692	0	correct_rejection	NA	0
23	Triplet	67	229	391	9	0	0	316045	692	0	correct_rejection	NA	0
23	Triplet	68	230	392	8	0	0	316754	691	0	correct_rejection	NA	0
23	Triplet	69	231	393	7	0	0	317462	692	0	correct_rejection	NA	0
23	Triplet	70	232	394	4	0	0	318171	691	0	correct_rejection	NA	0
23	Triplet	71	233	395	0	1	1	318879	692	1	hit	427	0
23	Triplet	72	234	396	5	0	0	319588	692	0	correct_rejection	NA	0
23	Triplet	73	235	397	6	0	0	320296	692	0	correct_rejection	NA	0
23	Triplet	74	236	398	7	0	0	321005	692	0	correct_rejection	NA	0
23	Triplet	75	237	399	8	0	0	321714	691	0	correct_rejection	NA	0
23	Triplet	76	238	400	9	0	0	322422	692	0	correct_rejection	NA	0
23	Triplet	77	239	401	7	0	0	323131	691	0	correct_rejection	NA	0
23	Triplet	78	240	402	8	0	0	323839	692	0	correct_rejection	NA	0
23	Triplet	79	241	403	9	0	0	324548	692	0	correct_rejection	NA	0
23	Triplet	80	242	404	4	0	0	325256	692	0	correct_rejection	NA	0
23	Triplet	81	243	405	5	0	0	325965	692	0	correct_rejection	NA	0
23	Triplet	82	244	406	6	0	0	326674	691	0	correct_rejection	NA	0
23	Triplet	83	245	407	6	0	0	327382	692	0	correct_rejection	NA	0
23	Triplet	84	246	408	5	0	0	328091	691	0	correct_rejection	NA	0
23	Triplet	85	247	409	4	0	0	328799	692	0	correct_rejection	NA	0
23	Triplet	86	248	410	7	0	0	329508	692	0	correct_rejection	NA	0
23	Triplet	87	249	411	8	0	0	330216	692	0	correct_rejection	NA	0
23	Triplet	88	250	412	9	0	0	330925	692	0	correct_rejection	NA	0
23	Triplet	89	251	413	9	0	0	331634	691	0	correct_rejection	NA	0
23	Triplet	90	252	414	8	0	0	332342	692	0	correct_rejection	NA	0
23	Triplet	91	253	415	7	0	0	333051	691	0	correct_rejection	NA	0
23	Triplet	92	254	416	6	0	0	333759	692	0	correct_rejection	NA	0
23	Triplet	93	255	417	5	0	0	334468	691	0	correct_rejection	NA	0
23	Triplet	94	256	418	4	0	0	335176	692	0	correct_rejection	NA	0
23	Triplet	95	257	419	4	0	0	335885	692	0	correct_rejection	NA	0
23	Triplet	96	258	420	5	0	0	336593	692	0	correct_rejection	NA	0
23	Triplet	97	259	421	6	0	0	337302	692	0	correct_rejection	NA	0
23	Triplet	98	260	422	4	0	0	338011	691	0	correct_rejection	NA	0
23	Triplet	99	261	423	5	0	0	338719	692	0	correct_rejection	NA	0
23	Triplet	100	262	424	6	0	0	339428	691	0	correct_rejection	NA	0
23	Triplet	101	263	425	9	0	0	340136	692	0	correct_rejection	NA	0
23	Triplet	102	264	426	8	0	0	340845	692	0	correct_rejection	NA	0
23	Triplet	103	265	427	7	0	0	341553	692	0	correct_rejection	NA	0
23	Triplet	104	266	428	0	1	2	342262	692	1	hit	412	0
23	Triplet	105	267	429	9	0	0	342971	691	0	correct_rejection	NA	0
23	Triplet	106	268	430	8	0	0	343679	692	0	correct_rejection	NA	0
23	Triplet	107	269	431	7	0	0	344388	691	0	correct_rejection	NA	0
23	Triplet	108	270	432	4	0	0	345096	692	0	correct_rejection	NA	0
23	Triplet	109	271	433	5	0	0	345805	692	0	correct_rejection	NA	0
23	Triplet	110	272	434	6	0	0	346513	692	0	correct_rejection	NA	0
23	Triplet	111	273	435	4	0	0	347222	692	0	correct_rejection	NA	0
23	Triplet	112	274	436	5	0	0	347931	691	0	correct_rejection	NA	0
23	Triplet	113	275	437	6	0	0	348639	692	0	correct_rejection	NA	0
23	Triplet	114	276	438	6	0	0	349348	691	0	correct_rejection	NA	0
23	Triplet	115	277	439	0	1	1	350056	692	1	hit	430	0
23	Triplet	116	278	440	5	0	0	350765	691	0	correct_rejection	NA	0
23	Triplet	117	279	441	4	0	0	351473	692	0	correct_rejection	NA	0
23	Triplet	118	280	442	9	0	0	352182	692	0	correct_rejection	NA	0
23	Triplet	119	281	443	8	0	0	352890	692	0	correct_rejection	NA	0
23	Triplet	120	282	444	0	1	1	353599	692	1	hit	404	0
23	Triplet	121	283	445	7	0	0	354308	691	0	correct_rejection	NA	0
23	Triplet	122	284	446	9	0	0	355016	692	0	correct_rejection	NA	0
23	Triplet	123	285	447	0	1	1	355725	691	1	hit	385	0
23	Triplet	124	286	448	8	0	0	356433	692	0	correct_rejection	NA	0
23	Triplet	125	287	449	7	0	0	357142	692	0	correct_rejection	NA	0
23	Triplet	126	288	450	6	0	0	357850	692	0	correct_rejection	NA	0
23	Triplet	127	289	451	5	0	0	358559	692	0	correct_rejection	NA	0
23	Triplet	128	290	452	4	0	0	359268	691	0	correct_rejection	NA	0
23	Triplet	129	291	453	6	0	0	359976	692	0	correct_rejection	NA	0
23	Triplet	130	292	454	5	0	0	360685	691	0	correct_rejection	NA	0
23	Triplet	131	293	455	4	0	0	361393	692	0	correct_rejection	NA	0
23	Triplet	132	294	456	7	0	0	362102	692	0	correct_rejection	NA	0
23	Triplet	133	295	457	0	1	1	362810	692	1	hit	354	0
23	Triplet	134	296	458	8	0	0	363519	692	0	correct_rejection	NA	0
23	Triplet	135	297	459	9	0	0	364228	691	0	correct_rejection	NA	0
23	Triplet	136	298	460	4	0	0	364936	692	0	correct_rejection	NA	0
23	Triplet	137	299	461	5	0	0	365645	691	0	correct_rejection	NA	0
23	Triplet	138	300	462	6	0	0	366353	692	0	correct_rejection	NA	0
23	Triplet	139	301	463	7	0	0	367062	692	0	correct_rejection	NA	0
23	Triplet	140	302	464	8	0	0	367770	692	0	correct_rejection	NA	0
23	Triplet	141	303	465	0	1	1	368479	692	1	hit	319	0
23	Triplet	142	304	466	9	0	0	369188	691	0	correct_rejection	NA	0
23	Triplet	143	305	467	9	0	0	369896	692	0	correct_rejection	NA	0
23	Triplet	144	306	468	8	0	0	370605	691	0	correct_rejection	NA	0
23	Triplet	145	307	469	7	0	0	371313	692	0	correct_rejection	NA	0
23	Triplet	146	308	470	4	0	0	372022	691	0	correct_rejection	NA	0
23	Triplet	147	309	471	5	0	0	372730	692	0	correct_rejection	NA	0
23	Triplet	148	310	472	6	0	0	373439	692	0	correct_rejection	NA	0
23	Triplet	149	311	473	9	0	0	374147	692	0	correct_rejection	NA	0
23	Triplet	150	312	474	0	1	1	374856	692	1	hit	391	0
23	Triplet	151	313	475	8	0	0	375565	691	0	correct_rejection	NA	0
23	Triplet	152	314	476	7	0	0	376273	692	0	correct_rejection	NA	0
23	Triplet	153	315	477	7	0	0	376982	691	0	correct_rejection	NA	0
23	Triplet	154	316	478	8	0	0	377690	692	0	correct_rejection	NA	0
23	Triplet	155	317	479	9	0	0	378399	692	0	correct_rejection	NA	0
23	Triplet	156	318	480	7	0	0	379107	692	0	correct_rejection	NA	0
23	Triplet	157	319	481	0	1	1	379816	692	1	hit	433	0
23	Triplet	158	320	482	8	0	0	380525	691	0	correct_rejection	NA	0
23	Triplet	159	321	483	9	0	0	381233	692	0	correct_rejection	NA	0
23	Triplet	160	322	484	6	0	0	381942	691	0	correct_rejection	NA	0
23	Triplet	161	323	485	5	0	0	382650	692	0	correct_rejection	NA	0
23	Triplet	162	324	486	4	0	0	383359	692	0	correct_rejection	NA	0
23	Correct	1	649	487	4	0	0	393320	692	0	correct_rejection	NA	7949
23	Correct	2	650	488	5	0	0	394029	692	0	correct_rejection	NA	0
23	Correct	3	651	489	6	0	0	394738	691	0	correct_rejection	NA	0
23	Correct	4	652	490	4	0	0	395446	692	0	correct_rejection	NA	0
23	Correct	5	653	491	5	0	0	396155	691	0	correct_rejection	NA	0
23	Correct	6	654	492	6	0	0	396863	692	0	correct_rejection	NA	0
23	Correct	7	655	493	4	0	0	397572	692	0	correct_rejection	NA	0
23	Correct	8	656	494	5	0	0	398280	692	0	correct_rejection	NA	0
23	Correct	9	657	495	6	0	0	398989	692	0	correct_rejection	NA	0
23	Correct	10	658	496	6	0	0	399698	691	0	correct_rejection	NA	0
23	Correct	11	659	497	5	0	0	400406	692	0	correct_rejection	NA	0
23	Correct	12	660	498	4	0	0	401115	691	0	correct_rejection	NA	0
23	Correct	13	661	499	6	0	0	401823	692	0	correct_rejection	NA	0
23	Correct	14	662	500	5	0	0	402532	692	0	correct_rejection	NA	0
23	Correct	15	663	501	4	0	0	403240	692	0	correct_rejection	NA	0
23	Correct	16	664	502	6	0	0	403949	692	0	correct_rejection	NA	0
23	Correct	17	665	503	5	0	0	404658	691	0	correct_rejection	NA	0
23	Correct	18	666	504	4	0	0	405366	692	0	correct_rejection	NA	0
23	Correct	19	667	505	9	0	0	406075	691	0	correct_rejection	NA	0
23	Correct	20	668	506	8	0	0	406783	692	0	correct_rejection	NA	0
23	Correct	21	669	507	7	0	0	407492	691	0	correct_rejection	NA	0
23	Correct	22	670	508	0	1	2	408200	692	1	hit	345	0
23	Correct	23	671	509	9	0	0	408909	692	0	correct_rejection	NA	0
23	Correct	24	672	510	8	0	0	409617	692	0	correct_rejection	NA	0
23	Correct	25	673	511	7	0	0	410326	692	0	correct_rejection	NA	0
23	Correct	26	674	512	9	0	0	411035	691	0	correct_rejection	NA	0
23	Correct	27	675	513	8	0	0	411743	692	0	correct_rejection	NA	0
23	Correct	28	676	514	7	0	0	412452	691	0	correct_rejection	NA	0
23	Correct	29	677	515	7	0	0	413160	692	0	correct_rejection	NA	0
23	Correct	30	678	516	8	0	0	413869	692	0	correct_rejection	NA	0
23	Correct	31	679	517	9	0	0	414577	692	0	correct_rejection	NA	0
23	Correct	32	680	518	7	0	0	415286	692	0	correct_rejection	NA	0
23	Correct	33	681	519	8	0	0	415995	691	0	correct_rejection	NA	0
23	Correct	34	682	520	9	0	0	416703	692	0	correct_rejection	NA	0
23	Correct	35	683	521	0	1	2	417412	691	1	hit	665	0
23	Correct	36	684	522	7	0	0	418120	692	0	correct_rejection	NA	0
23	Correct	37	685	523	8	0	0	418829	692	0	correct_rejection	NA	0
23	Correct	38	686	524	9	0	0	419537	692	0	correct_rejection	NA	0
23	Correct	39	687	525	0	1	4	420246	692	1	hit	329	0
23	Correct	40	688	526	4	0	0	420955	691	0	correct_rejection	NA	0
23	Correct	41	689	527	5	0	0	421663	692	0	correct_rejection	NA	0
23	Correct	42	690	528	6	0	0	422372	691	0	correct_rejection	NA	0
23	Correct	43	691	529	4	0	0	423080	692	0	correct_rejection	NA	0
23	Correct	44	692	530	0	1	1	423789	691	1	hit	319	0
23	Correct	45	693	531	5	0	0	424497	692	0	correct_rejection	NA	0
23	Correct	46	694	532	6	0	0	425206	692	0	correct_rejection	NA	0
23	Correct	47	695	533	4	0	0	425914	692	0	correct_rejection	NA	0
23	Correct	48	696	534	5	0	0	426623	692	0	correct_rejection	NA	0
23	Correct	49	697	535	6	0	0	427332	691	0	correct_rejection	NA	0
23	Correct	50	698	536	6	0	0	428040	692	0	correct_rejection	NA	0
23	Correct	51	699	537	5	0	0	428749	691	0	correct_rejection	NA	0
23	Correct	52	700	538	4	0	0	429457	692	0	correct_rejection	NA	0
23	Correct	53	701	539	6	0	0	430166	692	0	correct_rejection	NA	0
23	Correct	54	702	540	5	0	0	430874	692	0	correct_rejection	NA	0
23	Correct	55	703	541	4	0	0	431583	692	0	correct_rejection	NA	0
23	Correct	56	704	542	6	0	0	432292	691	0	correct_rejection	NA	0
23	Correct	57	705	543	5	0	0	433000	692	0	correct_rejection	NA	0
23	Correct	58	706	544	0	1	1	433709	691	1	hit	416	0
23	Correct	59	707	545	4	0	0	434417	692	0	correct_rejection	NA	0
23	Correct	60	708	546	9	0	0	435126	692	0	correct_rejection	NA	0
23	Correct	61	709	547	8	0	0	435834	692	0	correct_rejection	NA	0
23	Correct	62	710	548	7	0	0	436543	692	0	correct_rejection	NA	0
23	Correct	63	711	549	9	0	0	437252	691	0	correct_rejection	NA	0
23	Correct	64	712	550	0	1	1	437960	692	1	hit	366	0
23	Correct	65	713	551	8	0	0	438669	691	0	correct_rejection	NA	0
23	Correct	66	714	552	7	0	0	439377	692	0	correct_rejection	NA	0
23	Correct	67	715	553	9	0	0	440086	692	0	correct_rejection	NA	0
23	Correct	68	716	554	8	0	0	440794	692	0	correct_rejection	NA	0
23	Correct	69	717	555	7	0	0	441503	692	0	correct_rejection	NA	0
23	Correct	70	718	556	7	0	0	442212	691	0	correct_rejection	NA	0
23	Correct	71	719	557	8	0	0	442920	692	0	correct_rejection	NA	0
23	Correct	72	720	558	9	0	0	443629	691	0	correct_rejection	NA	0
23	Correct	73	721	559	7	0	0	444337	692	0	correct_rejection	NA	0
23	Correct	74	722	560	8	0	0	445046	691	0	correct_rejection	NA	0
23	Correct	75	723	561	9	0	0	445754	692	0	correct_rejection	NA	0
23	Correct	76	724	562	7	0	0	446463	692	0	correct_rejection	NA	0
23	Correct	77	725	563	0	1	1	447171	692	1	hit	333	0
23	Correct	78	726	564	8	0	0	447880	692	0	correct_rejection	NA	0
23	Correct	79	727	565	9	0	0	448589	691	0	correct_rejection	NA	0
23	Correct	80	728	566	4	0	0	449297	692	0	correct_rejection	NA	0
23	Correct	81	729	567	5	0	0	450006	691	0	correct_rejection	NA	0
23	Correct	82	730	568	6	0	0	450714	692	0	correct_rejection	NA	0
23	Correct	83	731	569	4	0	0	451423	692	0	correct_rejection	NA	0
23	Correct	84	732	570	5	0	0	452131	692	0	correct_rejection	NA	0
23	Correct	85	733	571	6	0	0	452840	692	0	correct_rejection	NA	0
23	Correct	86	734	572	4	0	0	453549	691	0	correct_rejection	NA	0
23	Correct	87	735	573	5	0	0	454257	692	0	correct_rejection	NA	0
23	Correct	88	736	574	6	0	0	454966	691	0	correct_rejection	NA	0
23	Correct	89	737	575	6	0	0	455674	692	0	correct_rejection	NA	0
23	Correct	90	738	576	5	0	0	456383	692	0	correct_rejection	NA	0
23	Correct	91	739	577	4	0	0	457091	692	0	correct_rejection	NA	0
23	Correct	92	740	578	6	0	0	457800	692	0	correct_rejection	NA	0
23	Correct	93	741	579	0	1	1	458509	691	1	hit	341	0
23	Correct	94	742	580	5	0	0	459217	692	0	correct_rejection	NA	0
23	Correct	95	743	581	4	0	0	459926	691	0	correct_rejection	NA	0
23	Correct	96	744	582	6	0	0	460634	692	0	correct_rejection	NA	0
23	Correct	97	745	583	5	0	0	461343	691	0	correct_rejection	NA	0
23	Correct	98	746	584	4	0	0	462051	692	0	correct_rejection	NA	0
23	Correct	99	747	585	0	1	3	462760	692	1	hit	373	0
23	Correct	100	748	586	9	0	0	463469	691	0	correct_rejection	NA	0
23	Correct	101	749	587	8	0	0	464177	692	0	correct_rejection	NA	0
23	Correct	102	750	588	7	0	0	464886	691	0	correct_rejection	NA	0
23	Correct	103	751	589	9	0	0	465594	692	0	correct_rejection	NA	0
23	Correct	104	752	590	8	0	0	466303	691	0	correct_rejection	NA	0
23	Correct	105	753	591	7	0	0	467011	692	0	correct_rejection	NA	0
23	Correct	106	754	592	9	0	0	467720	692	0	correct_rejection	NA	0
23	Correct	107	755	593	8	0	0	468428	692	0	correct_rejection	NA	0
23	Correct	108	756	594	7	0	0	469137	692	0	correct_rejection	NA	0
23	Correct	109	757	595	0	1	3	469846	691	1	hit	374	0
23	Correct	110	758	596	7	0	0	470554	692	0	correct_rejection	NA	0
23	Correct	111	759	597	8	0	0	471263	691	0	correct_rejection	NA	0
23	Correct	112	760	598	9	0	0	471971	692	0	correct_rejection	NA	0
23	Correct	113	761	599	0	1	2	472680	692	1	hit	600	0
23	Correct	114	762	600	7	0	0	473388	692	0	correct_rejection	NA	0
23	Correct	115	763	601	8	0	0	474097	692	0	correct_rejection	NA	0
23	Correct	116	764	602	9	0	0	474806	691	0	correct_rejection	NA	0
23	Correct	117	765	603	7	0	0	475514	692	0	correct_rejection	NA	0
23	Correct	118	766	604	8	0	0	476223	691	0	correct_rejection	NA	0
23	Correct	119	767	605	9	0	0	476931	692	0	correct_rejection	NA	0
23	Correct	120	768	606	4	0	0	477640	691	0	correct_rejection	NA	0
23	Correct	121	769	607	0	1	1	478348	692	1	hit	345	0
23	Correct	122	770	608	5	0	0	479057	692	0	correct_rejection	NA	0
23	Correct	123	771	609	6	0	0	479766	691	0	correct_rejection	NA	0
23	Correct	124	772	610	4	0	0	480474	692	0	correct_rejection	NA	0
23	Correct	125	773	611	5	0	0	481183	691	0	correct_rejection	NA	0
23	Correct	126	774	612	0	1	1	481891	692	1	hit	387	0
23	Correct	127	775	613	6	0	0	482600	691	0	correct_rejection	NA	0
23	Correct	128	776	614	4	0	0	483308	692	0	correct_rejection	NA	0
23	Correct	129	777	615	5	0	0	484017	692	0	correct_rejection	NA	0
23	Correct	130	778	616	6	0	0	484725	692	0	correct_rejection	NA	0
23	Correct	131	779	617	6	0	0	485434	692	0	correct_rejection	NA	0
23	Correct	132	780	618	5	0	0	486143	691	0	correct_rejection	NA	0
23	Correct	133	781	619	0	1	1	486851	692	1	hit	347	0
23	Correct	134	782	620	4	0	0	487560	691	0	correct_rejection	NA	0
23	Correct	135	783	621	6	0	0	488268	692	0	correct_rejection	NA	0
23	Correct	136	784	622	0	1	1	488977	692	1	hit	417	0
23	Correct	137	785	623	5	0	0	489685	692	0	correct_rejection	NA	0
23	Correct	138	786	624	4	0	0	490394	692	0	correct_rejection	NA	0
23	Correct	139	787	625	6	0	0	491103	691	0	correct_rejection	NA	0
23	Correct	140	788	626	5	0	0	491811	692	0	correct_rejection	NA	0
23	Correct	141	789	627	4	0	0	492520	691	0	correct_rejection	NA	0
23	Correct	142	790	628	9	0	0	493228	692	0	correct_rejection	NA	0
23	Correct	143	791	629	8	0	0	493937	692	0	correct_rejection	NA	0
23	Correct	144	792	630	0	1	1	494645	692	1	hit	335	0
23	Correct	145	793	631	7	0	0	495354	692	0	correct_rejection	NA	0
23	Correct	146	794	632	9	0	0	496063	691	0	correct_rejection	NA	0
23	Correct	147	795	633	8	0	0	496771	692	0	correct_rejection	NA	0
23	Correct	148	796	634	7	0	0	497480	691	0	correct_rejection	NA	0
23	Correct	149	797	635	9	0	0	498188	692	0	correct_rejection	NA	0
23	Correct	150	798	636	8	0	0	498897	692	0	correct_rejection	NA	0
23	Correct	151	799	637	7	0	0	499605	692	0	correct_rejection	NA	0
23	Correct	152	800	638	7	0	0	500314	692	0	correct_rejection	NA	0
23	Correct	153	801	639	8	0	0	501023	691	0	correct_rejection	NA	0
23	Correct	154	802	640	9	0	0	501731	692	0	correct_rejection	NA	0
23	Correct	155	803	641	7	0	0	502440	691	0	correct_rejection	NA	0
23	Correct	156	804	642	8	0	0	503148	692	0	correct_rejection	NA	0
23	Correct	157	805	643	0	1	1	503857	691	1	hit	569	0
23	Correct	158	806	644	9	0	0	504565	692	0	correct_rejection	NA	0
23	Correct	159	807	645	7	0	0	505274	692	0	correct_rejection	NA	0
23	Correct	160	808	646	8	0	0	505982	692	0	correct_rejection	NA	0
23	Correct	161	809	647	0	1	1	506691	692	0	miss	NA	0
23	Correct	162	810	648	9	0	0	507400	691	1	false_alarm	129	0
23	Single	1	487	649	7	0	0	516519	692	0	correct_rejection	NA	7148
23	Single	2	488	650	4	0	0	517228	692	0	correct_rejection	NA	0
23	Single	3	489	651	5	0	0	517936	692	0	correct_rejection	NA	0
23	Single	4	490	652	0	1	1	518645	692	1	hit	329	0
23	Single	5	491	653	5	0	0	519354	691	0	correct_rejection	NA	0
23	Single	6	492	654	7	0	0	520062	692	0	correct_rejection	NA	0
23	Single	7	493	655	6	0	0	520771	691	0	correct_rejection	NA	0
23	Single	8	494	656	4	0	0	521479	692	0	correct_rejection	NA	0
23	Single	9	495	657	9	0	0	522188	691	0	correct_rejection	NA	0
23	Single	10	496	658	0	1	1	522896	692	1	hit	296	0
23	Single	11	497	659	5	0	0	523605	692	0	correct_rejection	NA	0
23	Single	12	498	660	9	0	0	524314	691	0	correct_rejection	NA	0
23	Single	13	499	661	0	1	1	525022	692	1	hit	437	0
23	Single	14	500	662	4	0	0	525731	691	0	correct_rejection	NA	0
23	Single	15	501	663	8	0	0	526439	692	0	correct_rejection	NA	0
23	Single	16	502	664	5	0	0	527148	691	0	correct_rejection	NA	0
23	Single	17	503	665	8	0	0	527856	692	0	correct_rejection	NA	0
23	Single	18	504	666	4	0	0	528565	692	0	correct_rejection	NA	0
23	Single	19	505	667	7	0	0	529273	692	0	correct_rejection	NA	0
23	Single	20	506	668	8	0	0	529982	692	0	correct_rejection	NA	0
23	Single	21	507	669	6	0	0	530691	691	0	correct_rejection	NA	0
23	Single	22	508	670	8	0	0	531399	692	0	correct_rejection	NA	0
23	Single	23	509	671	9	0	0	532108	691	0	correct_rejection	NA	0
23	Single	24	510	672	7	0	0	532816	692	0	correct_rejection	NA	0
23	Single	25	511	673	0	1	1	533525	692	1	hit	390	0
23	Single	26	512	674	5	0	0	534233	692	0	correct_rejection	NA	0
23	Single	27	513	675	6	0	0	534942	692	0	correct_rejection	NA	0
23	Single	28	514	676	9	0	0	535651	691	0	correct_rejection	NA	0
23	Single	29	515	677	6	0	0	536359	692	0	correct_rejection	NA	0
23	Single	30	516	678	6	0	0	537068	691	0	correct_rejection	NA	0
23	Single	31	517	679	5	0	0	537776	692	0	correct_rejection	NA	0
23	Single	32	518	680	4	0	0	538485	692	0	correct_rejection	NA	0
23	Single	33	519	681	4	0	0	539193	692	0	correct_rejection	NA	0
23	Single	34	520	682	0	1	1	539902	692	1	hit	451	0
23	Single	35	521	683	6	0	0	540611	691	0	correct_rejection	NA	0
23	Single	36	522	684	7	0	0	541319	692	0	correct_rejection	NA	0
23	Single	37	523	685	7	0	0	542028	691	0	correct_rejection	NA	0
23	Single	38	524	686	9	0	0	542736	692	0	correct_rejection	NA	0
23	Single	39	525	687	9	0	0	543445	691	0	correct_rejection	NA	0
23	Single	40	526	688	8	0	0	544153	692	0	correct_rejection	NA	0
23	Single	41	527	689	8	0	0	544862	692	0	correct_rejection	NA	0
23	Single	42	528	690	5	0	0	545570	692	0	correct_rejection	NA	0
23	Single	43	529	691	9	0	0	546279	692	0	correct_rejection	NA	0
23	Single	44	530	692	9	0	0	546988	691	0	correct_rejection	NA	0
23	Single	45	531	693	7	0	0	547696	692	0	correct_rejection	NA	0
23	Single	46	532	694	0	1	1	548405	691	1	hit	397	0
23	Single	47	533	695	9	0	0	549113	692	0	correct_rejection	NA	0
23	Single	48	534	696	5	0	0	549822	692	0	correct_rejection	NA	0
23	Single	49	535	697	5	0	0	550530	692	0	correct_rejection	NA	0
23	Single	50	536	698	0	1	1	551239	692	1	hit	302	0
23	Single	51	537	699	8	0	0	551948	691	0	correct_rejection	NA	0
23	Single	52	538	700	7	0	0	552656	692	0	correct_rejection	NA	0
23	Single	53	539	701	5	0	0	553365	691	0	correct_rejection	NA	0
23	Single	54	540	702	4	0	0	554073	692	0	correct_rejection	NA	0
23	Single	55	541	703	5	0	0	554782	692	0	correct_rejection	NA	0
23	Single	56	542	704	7	0	0	555490	692	0	correct_rejection	NA	0
23	Single	57	543	705	7	0	0	556199	692	0	correct_rejection	NA	0
23	Single	58	544	706	4	0	0	556908	691	0	correct_rejection	NA	0
23	Single	59	545	707	9	0	0	557616	692	0	correct_rejection	NA	0
23	Single	60	546	708	6	0	0	558325	691	0	correct_rejection	NA	0
23	Single	61	547	709	7	0	0	559033	692	0	correct_rejection	NA	0
23	Single	62	548	710	8	0	0	559742	692	0	correct_rejection	NA	0
23	Single	63	549	711	4	0	0	560450	692	0	correct_rejection	NA	0
23	Single	64	550	712	6	0	0	561159	692	0	correct_rejection	NA	0
23	Single	65	551	713	5	0	0	561868	691	0	correct_rejection	NA	0
23	Single	66	552	714	6	0	0	562576	692	0	correct_rejection	NA	0
23	Single	67	553	715	6	0	0	563285	691	0	correct_rejection	NA	0
23	Single	68	554	716	9	0	0	563993	692	0	correct_rejection	NA	0
23	Single	69	555	717	8	0	0	564702	691	0	correct_rejection	NA	0
23	Single	70	556	718	9	0	0	565410	692	0	correct_rejection	NA	0
23	Single	71	557	719	4	0	0	566119	692	0	correct_rejection	NA	0
23	Single	72	558	720	4	0	0	566827	692	0	correct_rejection	NA	0
23	Single	73	559	721	8	0	0	567536	692	0	correct_rejection	NA	0
23	Single	74	560	722	6	0	0	568245	691	0	correct_rejection	NA	0
23	Single	75	561	723	4	0	0	568953	692	0	correct_rejection	NA	0
23	Single	76	562	724	7	0	0	569662	691	0	correct_rejection	NA	0
23	Single	77	563	725	6	0	0	570370	692	0	correct_rejection	NA	0
23	Single	78	564	726	8	0	0	571079	692	0	correct_rejection	NA	0
23	Single	79	565	727	8	0	0	571787	692	0	correct_rejection	NA	0
23	Single	80	566	728	4	0	0	572496	692	0	correct_rejection	NA	0
23	Single	81	567	729	7	0	0	573205	691	0	correct_rejection	NA	0
23	Single	82	568	730	5	0	0	573913	692	0	correct_rejection	NA	0
23	Single	83	569	731	5	0	0	574622	691	0	correct_rejection	NA	0
23	Single	84	570	732	4	0	0	575330	692	0	correct_rejection	NA	0
23	Single	85	571	733	0	1	1	576039	692	1	hit	288	0
23	Single	86	572	734	8	0	0	576747	692	0	correct_rejection	NA	0
23	Single	87	573	735	9	0	0	577456	692	0	correct_rejection	NA	0
23	Single	88	574	736	0	1	1	578165	691	1	hit	316	0
23	Single	89	575	737	6	0	0	578873	692	0	correct_rejection	NA	0
23	Single	90	576	738	9	0	0	579582	691	0	correct_rejection	NA	0
23	Single	91	577	739	9	0	0	580290	692	0	correct_rejection	NA	0
23	Single	92	578	740	5	0	0	580999	691	0	correct_rejection	NA	0
23	Single	93	579	741	8	0	0	581707	692	0	correct_rejection	NA	0
23	Single	94	580	742	5	0	0	582416	692	0	correct_rejection	NA	0
23	Single	95	581	743	6	0	0	583125	691	0	correct_rejection	NA	0
23	Single	96	582	744	7	0	0	583833	692	0	correct_rejection	NA	0
23	Single	97	583	745	9	0	0	584542	691	0	correct_rejection	NA	0
23	Single	98	584	746	4	0	0	585250	692	0	correct_rejection	NA	0
23	Single	99	585	747	6	0	0	585959	691	0	correct_rejection	NA	0
23	Single	100	586	748	8	0	0	586667	692	0	correct_rejection	NA	0
23	Single	101	587	749	0	1	1	587376	692	1	hit	368	0
23	Single	102	588	750	4	0	0	588084	692	0	correct_rejection	NA	0
23	Single	103	589	751	5	0	0	588793	692	0	correct_rejection	NA	0
23	Single	104	590	752	9	0	0	589502	691	0	correct_rejection	NA	0
23	Single	105	591	753	8	0	0	590210	692	0	correct_rejection	NA	0
23	Single	106	592	754	7	0	0	590919	691	0	correct_rejection	NA	0
23	Single	107	593	755	0	1	1	591627	692	1	hit	345	0
23	Single	108	594	756	6	0	0	592336	692	0	correct_rejection	NA	0
23	Single	109	595	757	6	0	0	593044	692	0	correct_rejection	NA	0
23	Single	110	596	758	4	0	0	593753	692	0	correct_rejection	NA	0
23	Single	111	597	759	0	1	1	594462	691	1	hit	449	0
23	Single	112	598	760	4	0	0	595170	692	0	correct_rejection	NA	0
23	Single	113	599	761	9	0	0	595879	691	0	correct_rejection	NA	0
23	Single	114	600	762	7	0	0	596587	692	0	correct_rejection	NA	0
23	Single	115	601	763	7	0	0	597296	692	0	correct_rejection	NA	0
23	Single	116	602	764	0	1	1	598004	692	1	hit	365	0
23	Single	117	603	765	8	0	0	598713	692	0	correct_rejection	NA	0
23	Single	118	604	766	8	0	0	599422	691	0	correct_rejection	NA	0
23	Single	119	605	767	6	0	0	600130	692	0	correct_rejection	NA	0
23	Single	120	606	768	5	0	0	600839	691	0	correct_rejection	NA	0
23	Single	121	607	769	7	0	0	601547	692	0	correct_rejection	NA	0
23	Single	122	608	770	0	1	1	602256	691	1	hit	513	0
23	Single	123	609	771	7	0	0	602964	692	0	correct_rejection	NA	0
23	Single	124	610	772	8	0	0	603673	692	0	correct_rejection	NA	0
23	Single	125	611	773	5	0	0	604381	692	0	correct_rejection	NA	0
23	Single	126	612	774	0	1	1	605090	692	1	hit	291	0
23	Single	127	613	775	7	0	0	605799	691	0	correct_rejection	NA	0
23	Single	128	614	776	6	0	0	606507	692	0	correct_rejection	NA	0
23	Single	129	615	777	4	0	0	607216	691	0	correct_rejection	NA	0
23	Single	130	616	778	5	0	0	607924	692	0	correct_rejection	NA	0
23	Single	131	617	779	5	0	0	608633	692	0	correct_rejection	NA	0
23	Single	132	618	780	6	0	0	609341	692	0	correct_rejection	NA	0
23	Single	133	619	781	8	0	0	610050	692	0	correct_rejection	NA	0
23	Single	134	620	782	0	1	1	610759	691	1	hit	288	0
23	Single	135	621	783	6	0	0	611467	692	0	correct_rejection	NA	0
23	Single	136	622	784	9	0	0	612176	691	0	correct_rejection	NA	0
23	Single	137	623	785	4	0	0	612884	692	0	correct_rejection	NA	0
23	Single	138	624	786	8	0	0	613593	692	0	correct_rejection	NA	0
23	Single	139	625	787	7	0	0	614301	692	0	correct_rejection	NA	0
23	Single	140	626	788	0	1	1	615010	692	1	hit	426	0
23	Single	141	627	789	4	0	0	615719	691	0	correct_rejection	NA	0
23	Single	142	628	790	6	0	0	616427	692	0	correct_rejection	NA	0
23	Single	143	629	791	6	0	0	617136	691	0	correct_rejection	NA	0
23	Single	144	630	792	7	0	0	617844	692	0	correct_rejection	NA	0
23	Single	145	631	793	5	0	0	618553	692	0	correct_rejection	NA	0
23	Single	146	632	794	8	0	0	619261	692	0	correct_rejection	NA	0
23	Single	147	633	795	9	0	0	619970	692	0	correct_rejection	NA	0
23	Single	148	634	796	8	0	0	620679	691	0	correct_rejection	NA	0
23	Single	149	635	797	8	0	0	621387	692	0	correct_rejection	NA	0
23	Single	150	636	798	4	0	0	622096	691	0	correct_rejection	NA	0
23	Single	151	637	799	9	0	0	622804	692	0	correct_rejection	NA	0
23	Single	152	638	800	5	0	0	623513	691	0	correct_rejection	NA	0
23	Single	153	639	801	4	0	0	624221	692	0	correct_rejection	NA	0
23	Single	154	640	802	4	0	0	624930	692	0	correct_rejection	NA	0
23	Single	155	641	803	7	0	0	625638	692	0	correct_rejection	NA	0
23	Single	156	642	804	9	0	0	626347	692	0	correct_rejection	NA	0
23	Single	157	643	805	9	0	0	627056	691	0	correct_rejection	NA	0
23	Single	158	644	806	6	0	0	627764	692	0	correct_rejection	NA	0
23	Single	159	645	807	5	0	0	628473	691	0	correct_rejection	NA	0
23	Single	160	646	808	0	1	1	629181	692	1	hit	391	0
23	Single	161	647	809	9	0	0	629890	692	0	correct_rejection	NA	0
23	Single	162	648	810	7	0	0	630598	692	0	correct_rejection	NA	0
trigger nr 622 at 632334
trigger nr 626 at 707843
23	Correct	1	163	811	4	0	0	714368	691	0	correct_rejection	NA	6489
23	Correct	2	164	812	5	0	0	715076	692	0	correct_rejection	NA	0
23	Correct	3	165	813	6	0	0	715785	691	0	correct_rejection	NA	0
23	Correct	4	166	814	4	0	0	716493	692	0	correct_rejection	NA	0
23	Correct	5	167	815	5	0	0	717202	692	0	correct_rejection	NA	0
23	Correct	6	168	816	6	0	0	717910	692	0	correct_rejection	NA	0
23	Correct	7	169	817	4	0	0	718619	692	0	correct_rejection	NA	0
23	Correct	8	170	818	0	1	1	719328	691	1	hit	346	0
23	Correct	9	171	819	5	0	0	720036	692	0	correct_rejection	NA	0
23	Correct	10	172	820	6	0	0	720745	691	0	correct_rejection	NA	0
23	Correct	11	173	821	6	0	0	721453	692	0	correct_rejection	NA	0
23	Correct	12	174	822	5	0	0	722162	692	0	correct_rejection	NA	0
23	Correct	13	175	823	4	0	0	722870	692	0	correct_rejection	NA	0
23	Correct	14	176	824	0	1	2	723579	692	1	hit	391	0
23	Correct	15	177	825	6	0	0	724288	691	0	correct_rejection	NA	0
23	Correct	16	178	826	5	0	0	724996	692	0	correct_rejection	NA	0
23	Correct	17	179	827	4	0	0	725705	691	0	correct_rejection	NA	0
23	Correct	18	180	828	6	0	0	726413	692	0	correct_rejection	NA	0
23	Correct	19	181	829	5	0	0	727122	692	0	correct_rejection	NA	0
23	Correct	20	182	830	4	0	0	727830	692	0	correct_rejection	NA	0
23	Correct	21	183	831	0	1	3	728539	692	1	hit	329	0
23	Correct	22	184	832	9	0	0	729248	691	0	correct_rejection	NA	0
23	Correct	23	185	833	8	0	0	729956	692	0	correct_rejection	NA	0
23	Correct	24	186	834	7	0	0	730665	691	0	correct_rejection	NA	0
23	Correct	25	187	835	0	1	2	731373	692	1	hit	530	0
23	Correct	26	188	836	9	0	0	732082	691	0	correct_rejection	NA	0
23	Correct	27	189	837	8	0	0	732790	692	0	correct_rejection	NA	0
23	Correct	28	190	838	0	1	1	733499	692	1	hit	450	0
23	Correct	29	191	839	7	0	0	734208	691	0	correct_rejection	NA	0
23	Correct	30	192	840	9	0	0	734916	692	0	correct_rejection	NA	0
23	Correct	31	193	841	8	0	0	735625	691	0	correct_rejection	NA	0
23	Correct	32	194	842	7	0	0	736333	692	0	correct_rejection	NA	0
23	Correct	33	195	843	0	1	3	737042	691	1	hit	392	0
23	Correct	34	196	844	7	0	0	737750	692	0	correct_rejection	NA	0
23	Correct	35	197	845	8	0	0	738459	692	0	correct_rejection	NA	0
23	Correct	36	198	846	9	0	0	739167	692	0	correct_rejection	NA	0
23	Correct	37	199	847	7	0	0	739876	692	0	correct_rejection	NA	0
23	Correct	38	200	848	8	0	0	740585	691	0	correct_rejection	NA	0
23	Correct	39	201	849	9	0	0	741293	692	0	correct_rejection	NA	0
23	Correct	40	202	850	7	0	0	742002	691	0	correct_rejection	NA	0
23	Correct	41	203	851	8	0	0	742710	692	0	correct_rejection	NA	0
23	Correct	42	204	852	9	0	0	743419	692	0	correct_rejection	NA	0
23	Correct	43	205	853	4	0	0	744127	692	0	correct_rejection	NA	0
23	Correct	44	206	854	5	0	0	744836	692	0	correct_rejection	NA	0
23	Correct	45	207	855	6	0	0	745545	691	0	correct_rejection	NA	0
23	Correct	46	208	856	4	0	0	746253	692	0	correct_rejection	NA	0
23	Correct	47	209	857	5	0	0	746962	691	0	correct_rejection	NA	0
23	Correct	48	210	858	6	0	0	747670	692	0	correct_rejection	NA	0
23	Correct	49	211	859	4	0	0	748379	692	0	correct_rejection	NA	0
23	Correct	50	212	860	5	0	0	749087	692	0	correct_rejection	NA	0
23	Correct	51	213	861	6	0	0	749796	692	0	correct_rejection	NA	0
23	Correct	52	214	862	6	0	0	750505	691	0	correct_rejection	NA	0
23	Correct	53	215	863	5	0	0	751213	692	0	correct_rejection	NA	0
23	Correct	54	216	864	4	0	0	751922	691	0	correct_rejection	NA	0
23	Correct	55	217	865	6	0	0	752630	692	0	correct_rejection	NA	0
23	Correct	56	218	866	5	0	0	753339	691	0	correct_rejection	NA	0
23	Correct	57	219	867	4	0	0	754047	692	0	correct_rejection	NA	0
23	Correct	58	220	868	6	0	0	754756	692	0	correct_rejection	NA	0
23	Correct	59	221	869	5	0	0	755464	692	0	correct_rejection	NA	0
23	Correct	60	222	870	0	1	1	756173	692	1	hit	353	0
23	Correct	61	223	871	4	0	0	756882	691	0	correct_rejection	NA	0
23	Correct	62	224	872	9	0	0	757590	692	0	correct_rejection	NA	0
23	Correct	63	225	873	0	1	1	758299	691	1	hit	331	0
23	Correct	64	226	874	8	0	0	759007	692	0	correct_rejection	NA	0
23	Correct	65	227	875	7	0	0	759716	692	0	correct_rejection	NA	0
23	Correct	66	228	876	9	0	0	760424	692	0	correct_rejection	NA	0
23	Correct	67	229	877	8	0	0	761133	692	0	correct_rejection	NA	0
23	Correct	68	230	878	7	0	0	761842	691	0	correct_rejection	NA	0
23	Correct	69	231	879	9	0	0	762550	692	0	correct_rejection	NA	0
23	Correct	70	232	880	8	0	0	763259	691	0	correct_rejection	NA	0
23	Correct	71	233	881	7	0	0	763967	692	0	correct_rejection	NA	0
23	Correct	72	234	882	7	0	0	764676	692	0	correct_rejection	NA	0
23	Correct	73	235	883	8	0	0	765384	692	0	correct_rejection	NA	0
23	Correct	74	236	884	0	1	1	766093	692	1	hit	349	0
23	Correct	75	237	885	9	0	0	766802	691	0	correct_rejection	NA	0
23	Correct	76	238	886	7	0	0	767510	692	0	correct_rejection	NA	0
23	Correct	77	239	887	0	1	1	768219	691	1	hit	376	0
23	Correct	78	240	888	8	0	0	768927	692	0	correct_rejection	NA	0
23	Correct	79	241	889	9	0	0	769636	692	0	correct_rejection	NA	0
23	Correct	80	242	890	7	0	0	770344	692	0	correct_rejection	NA	0
23	Correct	81	243	891	0	1	1	771053	692	1	hit	344	0
23	Correct	82	244	892	8	0	0	771762	691	0	correct_rejection	NA	0
23	Correct	83	245	893	9	0	0	772470	692	0	correct_rejection	NA	0
23	Correct	84	246	894	4	0	0	773179	691	0	correct_rejection	NA	0
23	Correct	85	247	895	5	0	0	773887	692	0	correct_rejection	NA	0
23	Correct	86	248	896	6	0	0	774596	691	0	correct_rejection	NA	0
23	Correct	87	249	897	0	1	2	775304	692	1	hit	406	0
23	Correct	88	250	898	4	0	0	776013	692	0	correct_rejection	NA	0
23	Correct	89	251	899	5	0	0	776721	692	0	correct_rejection	NA	0
23	Correct	90	252	900	6	0	0	777430	692	0	correct_rejection	NA	0
23	Correct	91	253	901	4	0	0	778139	691	0	correct_rejection	NA	0
23	Correct	92	254	902	5	0	0	778847	692	0	correct_rejection	NA	0
23	Correct	93	255	903	6	0	0	779556	691	0	correct_rejection	NA	0
23	Correct	94	256	904	6	0	0	780264	692	0	correct_rejection	NA	0
23	Correct	95	257	905	0	1	1	780973	692	0	miss	NA	0
23	Correct	96	258	906	5	0	0	781681	692	1	false_alarm	84	0
23	Correct	97	259	907	4	0	0	782390	692	0	correct_rejection	NA	0
23	Correct	98	260	908	6	0	0	783099	691	0	correct_rejection	NA	0
23	Correct	99	261	909	5	0	0	783807	692	0	correct_rejection	NA	0
23	Correct	100	262	910	4	0	0	784516	691	0	correct_rejection	NA	0
23	Correct	101	263	911	6	0	0	785224	692	0	correct_rejection	NA	0
23	Correct	102	264	912	5	0	0	785933	692	0	correct_rejection	NA	0
23	Correct	103	265	913	4	0	0	786641	692	0	correct_rejection	NA	0
23	Correct	104	266	914	9	0	0	787350	692	0	correct_rejection	NA	0
23	Correct	105	267	915	8	0	0	788059	691	0	correct_rejection	NA	0
23	Correct	106	268	916	7	0	0	788767	692	0	correct_rejection	NA	0
23	Correct	107	269	917	9	0	0	789476	691	0	correct_rejection	NA	0
23	Correct	108	270	918	8	0	0	790184	692	0	correct_rejection	NA	0
23	Correct	109	271	919	7	0	0	790893	692	0	correct_rejection	NA	0
23	Correct	110	272	920	9	0	0	791601	692	0	correct_rejection	NA	0
23	Correct	111	273	921	8	0	0	792310	692	0	correct_rejection	NA	0
23	Correct	112	274	922	7	0	0	793019	691	0	correct_rejection	NA	0
23	Correct	113	275	923	7	0	0	793727	692	0	correct_rejection	NA	0
23	Correct	114	276	924	8	0	0	794436	691	0	correct_rejection	NA	0
23	Correct	115	277	925	0	1	1	795144	692	1	hit	349	0
23	Correct	116	278	926	9	0	0	795853	691	0	correct_rejection	NA	0
23	Correct	117	279	927	7	0	0	796561	692	0	correct_rejection	NA	0
23	Correct	118	280	928	8	0	0	797270	692	0	correct_rejection	NA	0
23	Correct	119	281	929	9	0	0	797978	692	0	correct_rejection	NA	0
23	Correct	120	282	930	0	1	2	798687	692	1	hit	386	0
23	Correct	121	283	931	7	0	0	799396	691	0	correct_rejection	NA	0
23	Correct	122	284	932	8	0	0	800104	692	0	correct_rejection	NA	0
23	Correct	123	285	933	9	0	0	800813	691	0	correct_rejection	NA	0
23	Correct	124	286	934	4	0	0	801521	692	0	correct_rejection	NA	0
23	Correct	125	287	935	5	0	0	802230	692	0	correct_rejection	NA	0
23	Correct	126	288	936	0	1	1	802938	692	1	hit	335	0
23	Correct	127	289	937	6	0	0	803647	692	0	correct_rejection	NA	0
23	Correct	128	290	938	4	0	0	804356	691	0	correct_rejection	NA	0
23	Correct	129	291	939	5	0	0	805064	692	0	correct_rejection	NA	0
23	Correct	130	292	940	6	0	0	805773	691	0	correct_rejection	NA	0
23	Correct	131	293	941	4	0	0	806481	692	0	correct_rejection	NA	0
23	Correct	132	294	942	5	0	0	807190	692	0	correct_rejection	NA	0
23	Correct	133	295	943	6	0	0	807898	692	0	correct_rejection	NA	0
23	Correct	134	296	944	6	0	0	808607	692	0	correct_rejection	NA	0
23	Correct	135	297	945	5	0	0	809316	691	0	correct_rejection	NA	0
23	Correct	136	298	946	4	0	0	810024	692	0	correct_rejection	NA	0
23	Correct	137	299	947	6	0	0	810733	691	0	correct_rejection	NA	0
23	Correct	138	300	948	5	0	0	811441	692	0	correct_rejection	NA	0
23	Correct	139	301	949	4	0	0	812150	691	0	correct_rejection	NA	0
23	Correct	140	302	950	6	0	0	812858	692	0	correct_rejection	NA	0
23	Correct	141	303	951	5	0	0	813567	692	0	correct_rejection	NA	0
23	Correct	142	304	952	4	0	0	814275	692	0	correct_rejection	NA	0
23	Correct	143	305	953	9	0	0	814984	692	0	correct_rejection	NA	0
23	Correct	144	306	954	8	0	0	815693	691	0	correct_rejection	NA	0
23	Correct	145	307	955	7	0	0	816401	692	0	correct_rejection	NA	0
23	Correct	146	308	956	9	0	0	817110	691	0	correct_rejection	NA	0
23	Correct	147	309	957	8	0	0	817818	692	0	correct_rejection	NA	0
23	Correct	148	310	958	0	1	1	818527	692	1	hit	504	0
23	Correct	149	311	959	7	0	0	819235	692	0	correct_rejection	NA	0
23	Correct	150	312	960	9	0	0	819944	692	0	correct_rejection	NA	0
23	Correct	151	313	961	8	0	0	820653	691	0	correct_rejection	NA	0
23	Correct	152	314	962	7	0	0	821361	692	0	correct_rejection	NA	0
23	Correct	153	315	963	7	0	0	822070	691	0	correct_rejection	NA	0
23	Correct	154	316	964	0	1	1	822778	692	1	hit	304	0
23	Correct	155	317	965	8	0	0	823487	692	0	correct_rejection	NA	0
23	Correct	156	318	966	9	0	0	824195	692	0	correct_rejection	NA	0
23	Correct	157	319	967	7	0	0	824904	692	0	correct_rejection	NA	0
23	Correct	158	320	968	8	0	0	825613	691	0	correct_rejection	NA	0
23	Correct	159	321	969	9	0	0	826321	692	0	correct_rejection	NA	0
23	Correct	160	322	970	7	0	0	827030	691	0	correct_rejection	NA	0
23	Correct	161	323	971	8	0	0	827738	692	0	correct_rejection	NA	0
23	Correct	162	324	972	9	0	0	828447	692	0	correct_rejection	NA	0
23	Nonet	1	163	973	4	0	0	838542	692	0	correct_rejection	NA	7659
23	Nonet	2	164	974	5	0	0	839250	692	0	correct_rejection	NA	0
23	Nonet	3	165	975	6	0	0	839959	692	0	correct_rejection	NA	0
23	Nonet	4	166	976	4	0	0	840667	692	0	correct_rejection	NA	0
23	Nonet	5	167	977	5	0	0	841376	692	0	correct_rejection	NA	0
23	Nonet	6	168	978	6	0	0	842085	691	0	correct_rejection	NA	0
23	Nonet	7	169	979	4	0	0	842793	692	0	correct_rejection	NA	0
23	Nonet	8	170	980	5	0	0	843502	691	0	correct_rejection	NA	0
23	Nonet	9	171	981	0	1	1	844210	692	1	hit	370	0
23	Nonet	10	172	982	6	0	0	844919	692	0	correct_rejection	NA	0
23	Nonet	11	173	983	4	0	0	845627	692	0	correct_rejection	NA	0
23	Nonet	12	174	984	5	0	0	846336	692	0	correct_rejection	NA	0
23	Nonet	13	175	985	6	0	0	847045	691	0	correct_rejection	NA	0
23	Nonet	14	176	986	4	0	0	847753	692	0	correct_rejection	NA	0
23	Nonet	15	177	987	5	0	0	848462	691	0	correct_rejection	NA	0
23	Nonet	16	178	988	6	0	0	849170	692	0	correct_rejection	NA	0
23	Nonet	17	179	989	4	0	0	849879	692	0	correct_rejection	NA	0
23	Nonet	18	180	990	5	0	0	850587	692	0	correct_rejection	NA	0
23	Nonet	19	181	991	6	0	0	851296	692	0	correct_rejection	NA	0
23	Nonet	20	182	992	7	0	0	852005	691	0	correct_rejection	NA	0
23	Nonet	21	183	993	8	0	0	852713	692	0	correct_rejection	NA	0
23	Nonet	22	184	994	9	0	0	853422	691	0	correct_rejection	NA	0
23	Nonet	23	185	995	7	0	0	854130	692	0	correct_rejection	NA	0
23	Nonet	24	186	996	8	0	0	854839	692	0	correct_rejection	NA	0
23	Nonet	25	187	997	9	0	0	855547	692	0	correct_rejection	NA	0
23	Nonet	26	188	998	7	0	0	856256	692	0	correct_rejection	NA	0
23	Nonet	27	189	999	0	1	1	856965	691	1	hit	369	0
23	Nonet	28	190	1000	8	0	0	857673	692	0	correct_rejection	NA	0
23	Nonet	29	191	1001	9	0	0	858382	691	0	correct_rejection	NA	0
23	Nonet	30	192	1002	0	1	3	859090	692	1	hit	341	0
23	Nonet	31	193	1003	7	0	0	859799	691	0	correct_rejection	NA	0
23	Nonet	32	194	1004	8	0	0	860507	692	0	correct_rejection	NA	0
23	Nonet	33	195	1005	9	0	0	861216	692	0	correct_rejection	NA	0
23	Nonet	34	196	1006	7	0	0	861924	692	0	correct_rejection	NA	0
23	Nonet	35	197	1007	0	1	1	862633	692	1	hit	376	0
23	Nonet	36	198	1008	8	0	0	863342	691	0	correct_rejection	NA	0
23	Nonet	37	199	1009	9	0	0	864050	692	0	correct_rejection	NA	0
23	Nonet	38	200	1010	7	0	0	864759	691	0	correct_rejection	NA	0
23	Nonet	39	201	1011	8	0	0	865467	692	0	correct_rejection	NA	0
23	Nonet	40	202	1012	9	0	0	866176	692	0	correct_rejection	NA	0
23	Nonet	41	203	1013	6	0	0	866884	692	0	correct_rejection	NA	0
23	Nonet	42	204	1014	5	0	0	867593	692	0	correct_rejection	NA	0
23	Nonet	43	205	1015	4	0	0	868302	691	0	correct_rejection	NA	0
23	Nonet	44	206	1016	6	0	0	869010	692	0	correct_rejection	NA	0
23	Nonet	45	207	1017	5	0	0	869719	691	0	correct_rejection	NA	0
23	Nonet	46	208	1018	4	0	0	870427	692	0	correct_rejection	NA	0
23	Nonet	47	209	1019	6	0	0	871136	692	0	correct_rejection	NA	0
23	Nonet	48	210	1020	5	0	0	871844	692	0	correct_rejection	NA	0
23	Nonet	49	211	1021	0	1	1	872553	692	1	hit	486	0
23	Nonet	50	212	1022	4	0	0	873262	691	0	correct_rejection	NA	0
23	Nonet	51	213	1023	6	0	0	873970	692	0	correct_rejection	NA	0
23	Nonet	52	214	1024	5	0	0	874679	691	0	correct_rejection	NA	0
23	Nonet	53	215	1025	4	0	0	875387	692	0	correct_rejection	NA	0
23	Nonet	54	216	1026	6	0	0	876096	692	0	correct_rejection	NA	0
23	Nonet	55	217	1027	0	1	1	876804	692	1	hit	477	0
23	Nonet	56	218	1028	5	0	0	877513	692	0	correct_rejection	NA	0
23	Nonet	57	219	1029	4	0	0	878222	691	0	correct_rejection	NA	0
23	Nonet	58	220	1030	6	0	0	878930	692	0	correct_rejection	NA	0
23	Nonet	59	221	1031	5	0	0	879639	691	0	correct_rejection	NA	0
23	Nonet	60	222	1032	4	0	0	880347	692	0	correct_rejection	NA	0
23	Nonet	61	223	1033	4	0	0	881056	691	0	correct_rejection	NA	0
23	Nonet	62	224	1034	0	1	1	881764	692	1	hit	510	0
23	Nonet	63	225	1035	5	0	0	882473	692	0	correct_rejection	NA	0
23	Nonet	64	226	1036	6	0	0	883181	692	0	correct_rejection	NA	0
23	Nonet	65	227	1037	4	0	0	883890	692	0	correct_rejection	NA	0
23	Nonet	66	228	1038	5	0	0	884599	691	0	correct_rejection	NA	0
23	Nonet	67	229	1039	6	0	0	885307	692	0	correct_rejection	NA	0
23	Nonet	68	230	1040	4	0	0	886016	691	0	correct_rejection	NA	0
23	Nonet	69	231	1041	5	0	0	886724	692	0	correct_rejection	NA	0
23	Nonet	70	232	1042	6	0	0	887433	692	0	correct_rejection	NA	0
23	Nonet	71	233	1043	6	0	0	888141	692	0	correct_rejection	NA	0
23	Nonet	72	234	1044	5	0	0	888850	692	0	correct_rejection	NA	0
23	Nonet	73	235	1045	4	0	0	889559	691	0	correct_rejection	NA	0
23	Nonet	74	236	1046	6	0	0	890267	692	0	correct_rejection	NA	0
23	Nonet	75	237	1047	0	1	1	890976	691	1	hit	563	0
23	Nonet	76	238	1048	5	0	0	891684	692	0	correct_rejection	NA	0
23	Nonet	77	239	1049	4	0	0	892393	692	0	correct_rejection	NA	0
23	Nonet	78	240	1050	0	1	2	893101	692	1	hit	399	0
23	Nonet	79	241	1051	6	0	0	893810	692	0	correct_rejection	NA	0
23	Nonet	80	242	1052	5	0	0	894519	691	0	correct_rejection	NA	0
23	Nonet	81	243	1053	4	0	0	895227	692	0	correct_rejection	NA	0
23	Nonet	82	244	1054	9	0	0	895936	691	0	correct_rejection	NA	0
23	Nonet	83	245	1055	0	1	1	896644	692	1	hit	324	0
23	Nonet	84	246	1056	8	0	0	897353	691	0	correct_rejection	NA	0
23	Nonet	85	247	1057	7	0	0	898061	692	0	correct_rejection	NA	0
23	Nonet	86	248	1058	9	0	0	898770	692	0	correct_rejection	NA	0
23	Nonet	87	249	1059	8	0	0	899478	692	0	correct_rejection	NA	0
23	Nonet	88	250	1060	7	0	0	900187	692	0	correct_rejection	NA	0
23	Nonet	89	251	1061	9	0	0	900896	691	0	correct_rejection	NA	0
23	Nonet	90	252	1062	8	0	0	901604	692	0	correct_rejection	NA	0
23	Nonet	91	253	1063	7	0	0	902313	691	0	correct_rejection	NA	0
23	Nonet	92	254	1064	4	0	0	903021	692	0	correct_rejection	NA	0
23	Nonet	93	255	1065	5	0	0	903730	692	0	correct_rejection	NA	0
23	Nonet	94	256	1066	6	0	0	904438	692	0	correct_rejection	NA	0
23	Nonet	95	257	1067	0	1	2	905147	692	1	hit	385	0
23	Nonet	96	258	1068	4	0	0	905856	691	0	correct_rejection	NA	0
23	Nonet	97	259	1069	5	0	0	906564	692	0	correct_rejection	NA	0
23	Nonet	98	260	1070	6	0	0	907273	691	0	correct_rejection	NA	0
23	Nonet	99	261	1071	4	0	0	907981	692	0	correct_rejection	NA	0
23	Nonet	100	262	1072	0	1	1	908690	692	1	hit	341	0
23	Nonet	101	263	1073	5	0	0	909398	692	0	correct_rejection	NA	0
23	Nonet	102	264	1074	6	0	0	910107	692	0	correct_rejection	NA	0
23	Nonet	103	265	1075	9	0	0	910816	691	0	correct_rejection	NA	0
23	Nonet	104	266	1076	0	1	1	911524	692	1	hit	384	0
23	Nonet	105	267	1077	8	0	0	912233	691	0	correct_rejection	NA	0
23	Nonet	106	268	1078	7	0	0	912941	692	0	correct_rejection	NA	0
23	Nonet	107	269	1079	9	0	0	913650	692	0	correct_rejection	NA	0
23	Nonet	108	270	1080	0	1	1	914358	692	1	hit	321	0
23	Nonet	109	271	1081	8	0	0	915067	692	0	correct_rejection	NA	0
23	Nonet	110	272	1082	7	0	0	915776	691	0	correct_rejection	NA	0
23	Nonet	111	273	1083	9	0	0	916484	692	0	correct_rejection	NA	0
23	Nonet	112	274	1084	8	0	0	917193	691	0	correct_rejection	NA	0
23	Nonet	113	275	1085	7	0	0	917901	692	0	correct_rejection	NA	0
23	Nonet	114	276	1086	0	1	3	918610	691	1	hit	291	0
23	Nonet	115	277	1087	7	0	0	919318	692	0	correct_rejection	NA	0
23	Nonet	116	278	1088	8	0	0	920027	692	0	correct_rejection	NA	0
23	Nonet	117	279	1089	9	0	0	920735	692	0	correct_rejection	NA	0
23	Nonet	118	280	1090	7	0	0	921444	692	0	correct_rejection	NA	0
23	Nonet	119	281	1091	8	0	0	922153	691	0	correct_rejection	NA	0
23	Nonet	120	282	1092	9	0	0	922861	692	0	correct_rejection	NA	0
23	Nonet	121	283	1093	7	0	0	923570	691	0	correct_rejection	NA	0
23	Nonet	122	284	1094	8	0	0	924278	692	0	correct_rejection	NA	0
23	Nonet	123	285	1095	9	0	0	924987	692	0	correct_rejection	NA	0
23	Nonet	124	286	1096	9	0	0	925695	692	0	correct_rejection	NA	0
23	Nonet	125	287	1097	8	0	0	926404	692	0	correct_rejection	NA	0
23	Nonet	126	288	1098	7	0	0	927113	691	0	correct_rejection	NA	0
23	Nonet	127	289	1099	9	0	0	927821	692	0	correct_rejection	NA	0
23	Nonet	128	290	1100	8	0	0	928530	691	0	correct_rejection	NA	0
23	Nonet	129	291	1101	7	0	0	929238	692	0	correct_rejection	NA	0
23	Nonet	130	292	1102	9	0	0	929947	692	0	correct_rejection	NA	0
23	Nonet	131	293	1103	8	0	0	930655	692	0	correct_rejection	NA	0
23	Nonet	132	294	1104	7	0	0	931364	692	0	correct_rejection	NA	0
23	Nonet	133	295	1105	0	1	3	932073	691	1	hit	401	0
23	Nonet	134	296	1106	9	0	0	932781	692	0	correct_rejection	NA	0
23	Nonet	135	297	1107	8	0	0	933490	691	0	correct_rejection	NA	0
23	Nonet	136	298	1108	7	0	0	934198	692	0	correct_rejection	NA	0
23	Nonet	137	299	1109	9	0	0	934907	691	0	correct_rejection	NA	0
23	Nonet	138	300	1110	8	0	0	935615	692	0	correct_rejection	NA	0
23	Nonet	139	301	1111	7	0	0	936324	692	0	correct_rejection	NA	0
23	Nonet	140	302	1112	9	0	0	937033	691	0	correct_rejection	NA	0
23	Nonet	141	303	1113	8	0	0	937741	692	0	correct_rejection	NA	0
23	Nonet	142	304	1114	7	0	0	938450	691	0	correct_rejection	NA	0
23	Nonet	143	305	1115	6	0	0	939158	692	0	correct_rejection	NA	0
23	Nonet	144	306	1116	5	0	0	939867	691	0	correct_rejection	NA	0
23	Nonet	145	307	1117	4	0	0	940575	692	0	correct_rejection	NA	0
23	Nonet	146	308	1118	0	1	2	941284	692	1	hit	510	0
23	Nonet	147	309	1119	6	0	0	941992	692	0	correct_rejection	NA	0
23	Nonet	148	310	1120	5	0	0	942701	692	0	correct_rejection	NA	0
23	Nonet	149	311	1121	4	0	0	943410	691	0	correct_rejection	NA	0
23	Nonet	150	312	1122	6	0	0	944118	692	0	correct_rejection	NA	0
23	Nonet	151	313	1123	5	0	0	944827	691	0	correct_rejection	NA	0
23	Nonet	152	314	1124	4	0	0	945535	692	0	correct_rejection	NA	0
23	Nonet	153	315	1125	7	0	0	946244	692	0	correct_rejection	NA	0
23	Nonet	154	316	1126	8	0	0	946952	692	0	correct_rejection	NA	0
23	Nonet	155	317	1127	0	1	1	947661	692	1	hit	338	0
23	Nonet	156	318	1128	9	0	0	948370	691	0	correct_rejection	NA	0
23	Nonet	157	319	1129	7	0	0	949078	692	0	correct_rejection	NA	0
23	Nonet	158	320	1130	8	0	0	949787	691	0	correct_rejection	NA	0
23	Nonet	159	321	1131	9	0	0	950495	692	0	correct_rejection	NA	0
23	Nonet	160	322	1132	7	0	0	951204	692	0	correct_rejection	NA	0
23	Nonet	161	323	1133	8	0	0	951912	692	0	correct_rejection	NA	0
23	Nonet	162	324	1134	9	0	0	952621	692	0	correct_rejection	NA	0
23	Triplet	1	1	1135	9	0	0	962708	691	0	correct_rejection	NA	7829
23	Triplet	2	2	1136	8	0	0	963416	692	0	correct_rejection	NA	0
23	Triplet	3	3	1137	7	0	0	964125	691	0	correct_rejection	NA	0
23	Triplet	4	4	1138	6	0	0	964833	692	0	correct_rejection	NA	0
23	Triplet	5	5	1139	5	0	0	965542	692	0	correct_rejection	NA	0
23	Triplet	6	6	1140	4	0	0	966250	692	0	correct_rejection	NA	0
23	Triplet	7	7	1141	7	0	0	966959	692	0	correct_rejection	NA	0
23	Triplet	8	8	1142	8	0	0	967668	691	0	correct_rejection	NA	0
23	Triplet	9	9	1143	9	0	0	968376	692	0	correct_rejection	NA	0
23	Triplet	10	10	1144	7	0	0	969085	691	0	correct_rejection	NA	0
23	Triplet	11	11	1145	8	0	0	969793	692	0	correct_rejection	NA	0
23	Triplet	12	12	1146	9	0	0	970502	692	0	correct_rejection	NA	0
23	Triplet	13	13	1147	0	1	2	971210	692	1	hit	374	0
23	Triplet	14	14	1148	4	0	0	971919	692	0	correct_rejection	NA	0
23	Triplet	15	15	1149	5	0	0	972628	691	0	correct_rejection	NA	0
23	Triplet	16	16	1150	0	1	1	973336	692	1	hit	511	0
23	Triplet	17	17	1151	6	0	0	974045	691	0	correct_rejection	NA	0
23	Triplet	18	18	1152	6	0	0	974753	692	0	correct_rejection	NA	0
23	Triplet	19	19	1153	0	1	1	975462	692	1	hit	416	0
23	Triplet	20	20	1154	5	0	0	976170	692	0	correct_rejection	NA	0
23	Triplet	21	21	1155	4	0	0	976879	692	0	correct_rejection	NA	0
23	Triplet	22	22	1156	4	0	0	977588	691	0	correct_rejection	NA	0
23	Triplet	23	23	1157	5	0	0	978296	692	0	correct_rejection	NA	0
23	Triplet	24	24	1158	6	0	0	979005	691	0	correct_rejection	NA	0
23	Triplet	25	25	1159	0	1	2	979713	692	1	hit	421	0
23	Triplet	26	26	1160	7	0	0	980422	691	0	correct_rejection	NA	0
23	Triplet	27	27	1161	8	0	0	981130	692	0	correct_rejection	NA	0
23	Triplet	28	28	1162	9	0	0	981839	692	0	correct_rejection	NA	0
23	Triplet	29	29	1163	9	0	0	982547	692	0	correct_rejection	NA	0
23	Triplet	30	30	1164	8	0	0	983256	692	0	correct_rejection	NA	0
23	Triplet	31	31	1165	7	0	0	983965	691	0	correct_rejection	NA	0
23	Triplet	32	32	1166	7	0	0	984673	692	0	correct_rejection	NA	0
23	Triplet	33	33	1167	8	0	0	985382	691	0	correct_rejection	NA	0
23	Triplet	34	34	1168	9	0	0	986090	692	0	correct_rejection	NA	0
23	Triplet	35	35	1169	6	0	0	986799	692	0	correct_rejection	NA	0
23	Triplet	36	36	1170	5	0	0	987507	692	0	correct_rejection	NA	0
23	Triplet	37	37	1171	4	0	0	988216	692	0	correct_rejection	NA	0
23	Triplet	38	38	1172	6	0	0	988925	691	0	correct_rejection	NA	0
23	Triplet	39	39	1173	5	0	0	989633	692	0	correct_rejection	NA	0
23	Triplet	40	40	1174	4	0	0	990342	691	0	correct_rejection	NA	0
23	Triplet	41	41	1175	9	0	0	991050	692	0	correct_rejection	NA	0
23	Triplet	42	42	1176	8	0	0	991759	692	0	correct_rejection	NA	0
23	Triplet	43	43	1177	7	0	0	992467	692	0	correct_rejection	NA	0
23	Triplet	44	44	1178	9	0	0	993176	692	0	correct_rejection	NA	0
23	Triplet	45	45	1179	8	0	0	993885	691	0	correct_rejection	NA	0
23	Triplet	46	46	1180	7	0	0	994593	692	0	correct_rejection	NA	0
23	Triplet	47	47	1181	0	1	2	995302	691	1	hit	518	0
23	Triplet	48	48	1182	4	0	0	996010	692	0	correct_rejection	NA	0
23	Triplet	49	49	1183	5	0	0	996719	691	0	correct_rejection	NA	0
23	Triplet	50	50	1184	0	1	1	997427	692	1	hit	344	0
23	Triplet	51	51	1185	6	0	0	998136	692	0	correct_rejection	NA	0
23	Triplet	52	52	1186	4	0	0	998844	692	0	correct_rejection	NA	0
23	Triplet	53	53	1187	5	0	0	999553	692	0	correct_rejection	NA	0
23	Triplet	54	54	1188	6	0	0	1000262	691	0	correct_rejection	NA	0
23	Triplet	55	55	1189	9	0	0	1000970	692	0	correct_rejection	NA	0
23	Triplet	56	56	1190	8	0	0	1001679	691	0	correct_rejection	NA	0
23	Triplet	57	57	1191	7	0	0	1002387	692	0	correct_rejection	NA	0
23	Triplet	58	58	1192	4	0	0	1003096	692	0	correct_rejection	NA	0
23	Triplet	59	59	1193	5	0	0	1003804	692	0	correct_rejection	NA	0
23	Triplet	60	60	1194	6	0	0	1004513	692	0	correct_rejection	NA	0
23	Triplet	61	61	1195	0	1	2	1005222	691	1	hit	400	0
23	Triplet	62	62	1196	6	0	0	1005930	692	0	correct_rejection	NA	0
23	Triplet	63	63	1197	5	0	0	1006639	691	0	correct_rejection	NA	0
23	Triplet	64	64	1198	0	1	1	1007347	692	1	hit	524	0
23	Triplet	65	65	1199	4	0	0	1008056	692	0	correct_rejection	NA	0
23	Triplet	66	66	1200	6	0	0	1008764	692	0	correct_rejection	NA	0
23	Triplet	67	67	1201	5	0	0	1009473	692	0	correct_rejection	NA	0
23	Triplet	68	68	1202	4	0	0	1010182	691	0	correct_rejection	NA	0
23	Triplet	69	69	1203	0	1	2	1010890	692	1	hit	626	0
23	Triplet	70	70	1204	7	0	0	1011599	691	0	correct_rejection	NA	0
23	Triplet	71	71	1205	8	0	0	1012307	692	0	correct_rejection	NA	0
23	Triplet	72	72	1206	0	1	1	1013016	692	1	hit	323	0
23	Triplet	73	73	1207	9	0	0	1013724	692	0	correct_rejection	NA	0
23	Triplet	74	74	1208	4	0	0	1014433	692	0	correct_rejection	NA	0
23	Triplet	75	75	1209	0	1	1	1015142	691	1	hit	319	0
23	Triplet	76	76	1210	5	0	0	1015850	692	0	correct_rejection	NA	0
23	Triplet	77	77	1211	6	0	0	1016559	691	0	correct_rejection	NA	0
23	Triplet	78	78	1212	9	0	0	1017267	692	0	correct_rejection	NA	0
23	Triplet	79	79	1213	8	0	0	1017976	691	0	correct_rejection	NA	0
23	Triplet	80	80	1214	7	0	0	1018684	692	0	correct_rejection	NA	0
23	Triplet	81	81	1215	7	0	0	1019393	692	0	correct_rejection	NA	0
23	Triplet	82	82	1216	8	0	0	1020101	692	0	correct_rejection	NA	0
23	Triplet	83	83	1217	9	0	0	1020810	692	0	correct_rejection	NA	0
23	Triplet	84	84	1218	0	1	2	1021519	691	1	hit	369	0
23	Triplet	85	85	1219	9	0	0	1022227	692	0	correct_rejection	NA	0
23	Triplet	86	86	1220	8	0	0	1022936	691	0	correct_rejection	NA	0
23	Triplet	87	87	1221	7	0	0	1023644	692	0	correct_rejection	NA	0
23	Triplet	88	88	1222	6	0	0	1024353	692	0	correct_rejection	NA	0
23	Triplet	89	89	1223	5	0	0	1025061	692	0	correct_rejection	NA	0
23	Triplet	90	90	1224	4	0	0	1025770	692	0	correct_rejection	NA	0
23	Triplet	91	91	1225	4	0	0	1026479	691	0	correct_rejection	NA	0
23	Triplet	92	92	1226	5	0	0	1027187	692	0	correct_rejection	NA	0
23	Triplet	93	93	1227	6	0	0	1027896	691	0	correct_rejection	NA	0
23	Triplet	94	94	1228	4	0	0	1028604	692	0	correct_rejection	NA	0
23	Triplet	95	95	1229	0	1	1	1029313	692	1	hit	569	0
23	Triplet	96	96	1230	5	0	0	1030021	692	0	correct_rejection	NA	0
23	Triplet	97	97	1231	6	0	0	1030730	692	0	correct_rejection	NA	0
23	Triplet	98	98	1232	7	0	0	1031439	691	0	correct_rejection	NA	0
23	Triplet	99	99	1233	8	0	0	1032147	692	0	correct_rejection	NA	0
23	Triplet	100	100	1234	9	0	0	1032856	691	0	correct_rejection	NA	0
23	Triplet	101	101	1235	7	0	0	1033564	692	0	correct_rejection	NA	0
23	Triplet	102	102	1236	8	0	0	1034273	691	0	correct_rejection	NA	0
23	Triplet	103	103	1237	9	0	0	1034981	692	0	correct_rejection	NA	0
23	Triplet	104	104	1238	6	0	0	1035690	692	0	correct_rejection	NA	0
23	Triplet	105	105	1239	5	0	0	1036398	692	0	correct_rejection	NA	0
23	Triplet	106	106	1240	4	0	0	1037107	692	0	correct_rejection	NA	0
23	Triplet	107	107	1241	9	0	0	1037816	691	0	correct_rejection	NA	0
23	Triplet	108	108	1242	8	0	0	1038524	692	0	correct_rejection	NA	0
23	Triplet	109	109	1243	0	1	1	1039233	691	1	hit	311	0
23	Triplet	110	110	1244	7	0	0	1039941	692	0	correct_rejection	NA	0
23	Triplet	111	111	1245	7	0	0	1040650	692	0	correct_rejection	NA	0
23	Triplet	112	112	1246	8	0	0	1041358	692	0	correct_rejection	NA	0
23	Triplet	113	113	1247	9	0	0	1042067	692	0	correct_rejection	NA	0
23	Triplet	114	114	1248	4	0	0	1042776	691	0	correct_rejection	NA	0
23	Triplet	115	115	1249	5	0	0	1043484	692	0	correct_rejection	NA	0
23	Triplet	116	116	1250	6	0	0	1044193	691	0	correct_rejection	NA	0
23	Triplet	117	117	1251	4	0	0	1044901	692	0	correct_rejection	NA	0
23	Triplet	118	118	1252	5	0	0	1045610	692	0	correct_rejection	NA	0
23	Triplet	119	119	1253	6	0	0	1046318	692	0	correct_rejection	NA	0
23	Triplet	120	120	1254	0	1	2	1047027	692	1	hit	567	0
23	Triplet	121	121	1255	9	0	0	1047736	691	0	correct_rejection	NA	0
23	Triplet	122	122	1256	8	0	0	1048444	692	0	correct_rejection	NA	0
23	Triplet	123	123	1257	7	0	0	1049153	691	0	correct_rejection	NA	0
23	Triplet	124	124	1258	4	0	0	1049861	692	0	correct_rejection	NA	0
23	Triplet	125	125	1259	5	0	0	1050570	692	0	correct_rejection	NA	0
23	Triplet	126	126	1260	6	0	0	1051278	692	0	correct_rejection	NA	0
23	Triplet	127	127	1261	7	0	0	1051987	692	0	correct_rejection	NA	0
23	Triplet	128	128	1262	8	0	0	1052696	691	0	correct_rejection	NA	0
23	Triplet	129	129	1263	0	1	1	1053404	692	1	hit	416	0
23	Triplet	130	130	1264	9	0	0	1054113	691	0	correct_rejection	NA	0
23	Triplet	131	131	1265	6	0	0	1054821	692	0	correct_rejection	NA	0
23	Triplet	132	132	1266	5	0	0	1055530	691	0	correct_rejection	NA	0
23	Triplet	133	133	1267	4	0	0	1056238	692	0	correct_rejection	NA	0
23	Triplet	134	134	1268	0	1	2	1056947	692	1	hit	341	0
23	Triplet	135	135	1269	4	0	0	1057655	692	0	correct_rejection	NA	0
23	Triplet	136	136	1270	5	0	0	1058364	692	0	correct_rejection	NA	0
23	Triplet	137	137	1271	6	0	0	1059073	691	0	correct_rejection	NA	0
23	Triplet	138	138	1272	6	0	0	1059781	692	0	correct_rejection	NA	0
23	Triplet	139	139	1273	5	0	0	1060490	691	0	correct_rejection	NA	0
23	Triplet	140	140	1274	4	0	0	1061198	692	0	correct_rejection	NA	0
23	Triplet	141	141	1275	9	0	0	1061907	692	0	correct_rejection	NA	0
23	Triplet	142	142	1276	8	0	0	1062615	692	0	correct_rejection	NA	0
23	Triplet	143	143	1277	7	0	0	1063324	692	0	correct_rejection	NA	0
23	Triplet	144	144	1278	7	0	0	1064033	691	0	correct_rejection	NA	0
23	Triplet	145	145	1279	8	0	0	1064741	692	0	correct_rejection	NA	0
23	Triplet	146	146	1280	9	0	0	1065450	691	0	correct_rejection	NA	0
23	Triplet	147	147	1281	7	0	0	1066158	692	0	correct_rejection	NA	0
23	Triplet	148	148	1282	8	0	0	1066867	692	0	correct_rejection	NA	0
23	Triplet	149	149	1283	9	0	0	1067575	692	0	correct_rejection	NA	0
23	Triplet	150	150	1284	9	0	0	1068284	692	0	correct_rejection	NA	0
23	Triplet	151	151	1285	0	1	1	1068993	691	1	hit	399	0
23	Triplet	152	152	1286	8	0	0	1069701	692	0	correct_rejection	NA	0
23	Triplet	153	153	1287	7	0	0	1070410	691	0	correct_rejection	NA	0
23	Triplet	154	154	1288	9	0	0	1071118	692	0	correct_rejection	NA	0
23	Triplet	155	155	1289	8	0	0	1071827	692	0	correct_rejection	NA	0
23	Triplet	156	156	1290	7	0	0	1072535	692	0	correct_rejection	NA	0
23	Triplet	157	157	1291	6	0	0	1073244	692	0	correct_rejection	NA	0
23	Triplet	158	158	1292	5	0	0	1073953	691	0	correct_rejection	NA	0
23	Triplet	159	159	1293	4	0	0	1074661	692	0	correct_rejection	NA	0
23	Triplet	160	160	1294	6	0	0	1075370	691	0	correct_rejection	NA	0
23	Triplet	161	161	1295	5	0	0	1076078	692	0	correct_rejection	NA	0
23	Triplet	162	162	1296	4	0	0	1076787	691	0	correct_rejection	NA	0
23	Nonet	1	487	1297	7	0	0	1086490	692	0	correct_rejection	NA	7619
23	Nonet	2	488	1298	8	0	0	1087199	691	0	correct_rejection	NA	0
23	Nonet	3	489	1299	9	0	0	1087907	692	0	correct_rejection	NA	0
23	Nonet	4	490	1300	0	1	2	1088616	691	1	hit	424	0
23	Nonet	5	491	1301	7	0	0	1089324	692	0	correct_rejection	NA	0
23	Nonet	6	492	1302	8	0	0	1090033	691	0	correct_rejection	NA	0
23	Nonet	7	493	1303	9	0	0	1090741	692	0	correct_rejection	NA	0
23	Nonet	8	494	1304	7	0	0	1091450	692	0	correct_rejection	NA	0
23	Nonet	9	495	1305	8	0	0	1092158	692	0	correct_rejection	NA	0
23	Nonet	10	496	1306	9	0	0	1092867	692	0	correct_rejection	NA	0
23	Nonet	11	497	1307	7	0	0	1093576	691	0	correct_rejection	NA	0
23	Nonet	12	498	1308	8	0	0	1094284	692	0	correct_rejection	NA	0
23	Nonet	13	499	1309	0	1	1	1094993	691	1	hit	415	0
23	Nonet	14	500	1310	9	0	0	1095701	692	0	correct_rejection	NA	0
23	Nonet	15	501	1311	7	0	0	1096410	692	0	correct_rejection	NA	0
23	Nonet	16	502	1312	0	1	1	1097118	692	1	hit	366	0
23	Nonet	17	503	1313	8	0	0	1097827	692	0	correct_rejection	NA	0
23	Nonet	18	504	1314	9	0	0	1098536	691	0	correct_rejection	NA	0
23	Nonet	19	505	1315	7	0	0	1099244	692	0	correct_rejection	NA	0
23	Nonet	20	506	1316	8	0	0	1099953	691	0	correct_rejection	NA	0
23	Nonet	21	507	1317	9	0	0	1100661	692	0	correct_rejection	NA	0
23	Nonet	22	508	1318	9	0	0	1101370	692	0	correct_rejection	NA	0
23	Nonet	23	509	1319	8	0	0	1102078	692	0	correct_rejection	NA	0
23	Nonet	24	510	1320	7	0	0	1102787	692	0	correct_rejection	NA	0
23	Nonet	25	511	1321	9	0	0	1103496	691	0	correct_rejection	NA	0
23	Nonet	26	512	1322	8	0	0	1104204	692	0	correct_rejection	NA	0
23	Nonet	27	513	1323	7	0	0	1104913	691	0	correct_rejection	NA	0
23	Nonet	28	514	1324	9	0	0	1105621	692	0	correct_rejection	NA	0
23	Nonet	29	515	1325	0	1	1	1106330	692	1	hit	383	0
23	Nonet	30	516	1326	8	0	0	1107038	692	0	correct_rejection	NA	0
23	Nonet	31	517	1327	7	0	0	1107747	692	0	correct_rejection	NA	0
23	Nonet	32	518	1328	9	0	0	1108456	691	0	correct_rejection	NA	0
23	Nonet	33	519	1329	8	0	0	1109164	692	0	correct_rejection	NA	0
23	Nonet	34	520	1330	7	0	0	1109873	691	0	correct_rejection	NA	0
23	Nonet	35	521	1331	9	0	0	1110581	692	0	correct_rejection	NA	0
23	Nonet	36	522	1332	0	1	1	1111290	691	1	hit	473	0
23	Nonet	37	523	1333	8	0	0	1111998	692	0	correct_rejection	NA	0
23	Nonet	38	524	1334	7	0	0	1112707	692	0	correct_rejection	NA	0
23	Nonet	39	525	1335	9	0	0	1113415	692	0	correct_rejection	NA	0
23	Nonet	40	526	1336	8	0	0	1114124	692	0	correct_rejection	NA	0
23	Nonet	41	527	1337	7	0	0	1114833	691	0	correct_rejection	NA	0
23	Nonet	42	528	1338	4	0	0	1115541	692	0	correct_rejection	NA	0
23	Nonet	43	529	1339	5	0	0	1116250	691	0	correct_rejection	NA	0
23	Nonet	44	530	1340	6	0	0	1116958	692	0	correct_rejection	NA	0
23	Nonet	45	531	1341	4	0	0	1117667	692	0	correct_rejection	NA	0
23	Nonet	46	532	1342	5	0	0	1118375	692	0	correct_rejection	NA	0
23	Nonet	47	533	1343	0	1	1	1119084	692	1	hit	451	0
23	Nonet	48	534	1344	6	0	0	1119793	691	0	correct_rejection	NA	0
23	Nonet	49	535	1345	4	0	0	1120501	692	0	correct_rejection	NA	0
23	Nonet	50	536	1346	5	0	0	1121210	691	0	correct_rejection	NA	0
23	Nonet	51	537	1347	6	0	0	1121918	692	0	correct_rejection	NA	0
23	Nonet	52	538	1348	6	0	0	1122627	692	0	correct_rejection	NA	0
23	Nonet	53	539	1349	5	0	0	1123335	692	0	correct_rejection	NA	0
23	Nonet	54	540	1350	4	0	0	1124044	692	0	correct_rejection	NA	0
23	Nonet	55	541	1351	6	0	0	1124753	691	0	correct_rejection	NA	0
23	Nonet	56	542	1352	5	0	0	1125461	692	0	correct_rejection	NA	0
23	Nonet	57	543	1353	4	0	0	1126170	691	0	correct_rejection	NA	0
23	Nonet	58	544	1354	6	0	0	1126878	692	0	correct_rejection	NA	0
23	Nonet	59	545	1355	5	0	0	1127587	692	0	correct_rejection	NA	0
23	Nonet	60	546	1356	4	0	0	1128295	692	0	correct_rejection	NA	0
23	Nonet	61	547	1357	4	0	0	1129004	692	0	correct_rejection	NA	0
23	Nonet	62	548	1358	5	0	0	1129713	691	0	correct_rejection	NA	0
23	Nonet	63	549	1359	6	0	0	1130421	692	0	correct_rejection	NA	0
23	Nonet	64	550	1360	4	0	0	1131130	691	0	correct_rejection	NA	0
23	Nonet	65	551	1361	5	0	0	1131838	692	0	correct_rejection	NA	0
23	Nonet	66	552	1362	6	0	0	1132547	691	0	correct_rejection	NA	0
23	Nonet	67	553	1363	0	1	2	1133255	692	1	hit	384	0
23	Nonet	68	554	1364	4	0	0	1133964	692	0	correct_rejection	NA	0
23	Nonet	69	555	1365	5	0	0	1134672	692	0	correct_rejection	NA	0
23	Nonet	70	556	1366	6	0	0	1135381	692	0	correct_rejection	NA	0
23	Nonet	71	557	1367	7	0	0	1136090	691	0	correct_rejection	NA	0
23	Nonet	72	558	1368	8	0	0	1136798	692	0	correct_rejection	NA	0
23	Nonet	73	559	1369	9	0	0	1137507	691	0	correct_rejection	NA	0
23	Nonet	74	560	1370	7	0	0	1138215	692	0	correct_rejection	NA	0
23	Nonet	75	561	1371	8	0	0	1138924	692	0	correct_rejection	NA	0
23	Nonet	76	562	1372	9	0	0	1139632	692	0	correct_rejection	NA	0
23	Nonet	77	563	1373	7	0	0	1140341	692	0	correct_rejection	NA	0
23	Nonet	78	564	1374	8	0	0	1141050	691	0	correct_rejection	NA	0
23	Nonet	79	565	1375	9	0	0	1141758	692	0	correct_rejection	NA	0
23	Nonet	80	566	1376	6	0	0	1142467	691	0	correct_rejection	NA	0
23	Nonet	81	567	1377	5	0	0	1143175	692	0	correct_rejection	NA	0
23	Nonet	82	568	1378	0	1	1	1143884	692	1	hit	511	0
23	Nonet	83	569	1379	4	0	0	1144592	692	0	correct_rejection	NA	0
23	Nonet	84	570	1380	6	0	0	1145301	692	0	correct_rejection	NA	0
23	Nonet	85	571	1381	5	0	0	1146010	691	0	correct_rejection	NA	0
23	Nonet	86	572	1382	4	0	0	1146718	692	0	correct_rejection	NA	0
23	Nonet	87	573	1383	0	1	2	1147427	691	1	hit	457	0
23	Nonet	88	574	1384	6	0	0	1148135	692	0	correct_rejection	NA	0
23	Nonet	89	575	1385	5	0	0	1148844	691	0	correct_rejection	NA	0
23	Nonet	90	576	1386	4	0	0	1149552	692	0	correct_rejection	NA	0
23	Nonet	91	577	1387	9	0	0	1150261	692	0	correct_rejection	NA	0
23	Nonet	92	578	1388	8	0	0	1150969	692	0	correct_rejection	NA	0
23	Nonet	93	579	1389	7	0	0	1151678	692	0	correct_rejection	NA	0
23	Nonet	94	580	1390	9	0	0	1152387	691	0	correct_rejection	NA	0
23	Nonet	95	581	1391	8	0	0	1153095	692	0	correct_rejection	NA	0
23	Nonet	96	582	1392	7	0	0	1153804	691	0	correct_rejection	NA	0
23	Nonet	97	583	1393	0	1	2	1154512	692	1	hit	545	0
23	Nonet	98	584	1394	9	0	0	1155221	692	0	correct_rejection	NA	0
23	Nonet	99	585	1395	8	0	0	1155929	692	0	correct_rejection	NA	0
23	Nonet	100	586	1396	7	0	0	1156638	692	0	correct_rejection	NA	0
23	Nonet	101	587	1397	6	0	0	1157347	691	0	correct_rejection	NA	0
23	Nonet	102	588	1398	5	0	0	1158055	692	0	correct_rejection	NA	0
23	Nonet	103	589	1399	0	1	1	1158764	691	1	hit	426	0
23	Nonet	104	590	1400	4	0	0	1159472	692	0	correct_rejection	NA	0
23	Nonet	105	591	1401	6	0	0	1160181	692	0	correct_rejection	NA	0
23	Nonet	106	592	1402	5	0	0	1160889	692	0	correct_rejection	NA	0
23	Nonet	107	593	1403	4	0	0	1161598	692	0	correct_rejection	NA	0
23	Nonet	108	594	1404	6	0	0	1162307	691	0	correct_rejection	NA	0
23	Nonet	109	595	1405	5	0	0	1163015	692	0	correct_rejection	NA	0
23	Nonet	110	596	1406	4	0	0	1163724	691	0	correct_rejection	NA	0
23	Nonet	111	597	1407	6	0	0	1164432	692	0	correct_rejection	NA	0
23	Nonet	112	598	1408	5	0	0	1165141	692	0	correct_rejection	NA	0
23	Nonet	113	599	1409	4	0	0	1165849	692	0	correct_rejection	NA	0
23	Nonet	114	600	1410	6	0	0	1166558	692	0	correct_rejection	NA	0
23	Nonet	115	601	1411	5	0	0	1167267	691	0	correct_rejection	NA	0
23	Nonet	116	602	1412	4	0	0	1167975	692	0	correct_rejection	NA	0
23	Nonet	117	603	1413	6	0	0	1168684	691	0	correct_rejection	NA	0
23	Nonet	118	604	1414	0	1	1	1169392	692	0	miss	NA	0
23	Nonet	119	605	1415	5	0	0	1170101	691	0	correct_rejection	NA	0
23	Nonet	120	606	1416	4	0	0	1170809	692	0	correct_rejection	NA	0
23	Nonet	121	607	1417	7	0	0	1171518	692	0	correct_rejection	NA	0
23	Nonet	122	608	1418	8	0	0	1172226	692	0	correct_rejection	NA	0
23	Nonet	123	609	1419	0	1	1	1172935	692	1	hit	408	0
23	Nonet	124	610	1420	9	0	0	1173644	691	0	correct_rejection	NA	0
23	Nonet	125	611	1421	7	0	0	1174352	692	0	correct_rejection	NA	0
23	Nonet	126	612	1422	0	1	1	1175061	691	1	hit	392	0
23	Nonet	127	613	1423	8	0	0	1175769	692	0	correct_rejection	NA	0
23	Nonet	128	614	1424	9	0	0	1176478	692	0	correct_rejection	NA	0
23	Nonet	129	615	1425	0	1	2	1177186	692	1	hit	327	0
23	Nonet	130	616	1426	7	0	0	1177895	692	0	correct_rejection	NA	0
23	Nonet	131	617	1427	8	0	0	1178604	691	0	correct_rejection	NA	0
23	Nonet	132	618	1428	9	0	0	1179312	692	0	correct_rejection	NA	0
23	Nonet	133	619	1429	4	0	0	1180021	691	1	false_alarm	256	0
23	Nonet	134	620	1430	5	0	0	1180729	692	0	correct_rejection	NA	0
23	Nonet	135	621	1431	6	0	0	1181438	692	0	correct_rejection	NA	0
23	Nonet	136	622	1432	4	0	0	1182146	692	0	correct_rejection	NA	0
23	Nonet	137	623	1433	5	0	0	1182855	692	0	correct_rejection	NA	0
23	Nonet	138	624	1434	6	0	0	1183564	691	0	correct_rejection	NA	0
23	Nonet	139	625	1435	4	0	0	1184272	692	0	correct_rejection	NA	0
23	Nonet	140	626	1436	5	0	0	1184981	691	0	correct_rejection	NA	0
23	Nonet	141	627	1437	6	0	0	1185689	692	0	correct_rejection	NA	0
23	Nonet	142	628	1438	4	0	0	1186398	692	0	correct_rejection	NA	0
23	Nonet	143	629	1439	5	0	0	1187106	692	0	correct_rejection	NA	0
23	Nonet	144	630	1440	6	0	0	1187815	692	0	correct_rejection	NA	0
23	Nonet	145	631	1441	4	0	0	1188524	691	0	correct_rejection	NA	0
23	Nonet	146	632	1442	0	1	1	1189232	692	1	hit	374	0
23	Nonet	147	633	1443	5	0	0	1189941	691	0	correct_rejection	NA	0
23	Nonet	148	634	1444	6	0	0	1190649	692	0	correct_rejection	NA	0
23	Nonet	149	635	1445	0	1	2	1191358	691	1	hit	386	0
23	Nonet	150	636	1446	4	0	0	1192066	692	0	correct_rejection	NA	0
23	Nonet	151	637	1447	5	0	0	1192775	692	0	correct_rejection	NA	0
23	Nonet	152	638	1448	6	0	0	1193483	692	0	correct_rejection	NA	0
23	Nonet	153	639	1449	9	0	0	1194192	692	0	correct_rejection	NA	0
23	Nonet	154	640	1450	8	0	0	1194901	691	0	correct_rejection	NA	0
23	Nonet	155	641	1451	7	0	0	1195609	692	0	correct_rejection	NA	0
23	Nonet	156	642	1452	9	0	0	1196318	691	0	correct_rejection	NA	0
23	Nonet	157	643	1453	8	0	0	1197026	692	0	correct_rejection	NA	0
23	Nonet	158	644	1454	7	0	0	1197735	692	0	correct_rejection	NA	0
23	Nonet	159	645	1455	9	0	0	1198443	692	0	correct_rejection	NA	0
23	Nonet	160	646	1456	8	0	0	1199152	692	0	correct_rejection	NA	0
23	Nonet	161	647	1457	0	1	1	1199861	691	1	hit	464	0
23	Nonet	162	648	1458	7	0	0	1200569	692	0	correct_rejection	NA	0
23	Single	1	649	1459	8	0	0	1210197	692	0	correct_rejection	NA	7328
23	Single	2	650	1460	9	0	0	1210906	692	0	correct_rejection	NA	0
23	Single	3	651	1461	8	0	0	1211614	692	0	correct_rejection	NA	0
23	Single	4	652	1462	5	0	0	1212323	692	0	correct_rejection	NA	0
23	Single	5	653	1463	4	0	0	1213032	691	0	correct_rejection	NA	0
23	Single	6	654	1464	4	0	0	1213740	692	0	correct_rejection	NA	0
23	Single	7	655	1465	9	0	0	1214449	691	0	correct_rejection	NA	0
23	Single	8	656	1466	9	0	0	1215157	692	0	correct_rejection	NA	0
23	Single	9	657	1467	4	0	0	1215866	692	0	correct_rejection	NA	0
23	Single	10	658	1468	7	0	0	1216574	692	0	correct_rejection	NA	0
23	Single	11	659	1469	4	0	0	1217283	692	0	correct_rejection	NA	0
23	Single	12	660	1470	5	0	0	1217992	691	0	correct_rejection	NA	0
23	Single	13	661	1471	7	0	0	1218700	692	0	correct_rejection	NA	0
23	Single	14	662	1472	6	0	0	1219409	691	0	correct_rejection	NA	0
23	Single	15	663	1473	8	0	0	1220117	692	0	correct_rejection	NA	0
23	Single	16	664	1474	7	0	0	1220826	691	0	correct_rejection	NA	0
23	Single	17	665	1475	5	0	0	1221534	692	0	correct_rejection	NA	0
23	Single	18	666	1476	5	0	0	1222243	692	0	correct_rejection	NA	0
23	Single	19	667	1477	9	0	0	1222951	692	0	correct_rejection	NA	0
23	Single	20	668	1478	5	0	0	1223660	692	0	correct_rejection	NA	0
23	Single	21	669	1479	0	1	1	1224369	691	1	hit	310	0
23	Single	22	670	1480	8	0	0	1225077	692	0	correct_rejection	NA	0
23	Single	23	671	1481	6	0	0	1225786	691	0	correct_rejection	NA	0
23	Single	24	672	1482	5	0	0	1226494	692	0	correct_rejection	NA	0
23	Single	25	673	1483	6	0	0	1227203	692	0	correct_rejection	NA	0
23	Single	26	674	1484	6	0	0	1227911	692	0	correct_rejection	NA	0
23	Single	27	675	1485	7	0	0	1228620	692	0	correct_rejection	NA	0
23	Single	28	676	1486	9	0	0	1229329	691	0	correct_rejection	NA	0
23	Single	29	677	1487	6	0	0	1230037	692	0	correct_rejection	NA	0
23	Single	30	678	1488	9	0	0	1230746	691	0	correct_rejection	NA	0
23	Single	31	679	1489	7	0	0	1231454	692	0	correct_rejection	NA	0
23	Single	32	680	1490	7	0	0	1232163	692	0	correct_rejection	NA	0
23	Single	33	681	1491	0	1	1	1232871	692	1	hit	360	0
23	Single	34	682	1492	8	0	0	1233580	692	0	correct_rejection	NA	0
23	Single	35	683	1493	8	0	0	1234289	691	0	correct_rejection	NA	0
23	Single	36	684	1494	4	0	0	1234997	692	0	correct_rejection	NA	0
23	Single	37	685	1495	6	0	0	1235706	691	0	correct_rejection	NA	0
23	Single	38	686	1496	4	0	0	1236414	692	0	correct_rejection	NA	0
23	Single	39	687	1497	7	0	0	1237123	692	0	correct_rejection	NA	0
23	Single	40	688	1498	9	0	0	1237831	692	0	correct_rejection	NA	0
23	Single	41	689	1499	5	0	0	1238540	692	0	correct_rejection	NA	0
23	Single	42	690	1500	9	0	0	1239249	691	0	correct_rejection	NA	0
23	Single	43	691	1501	4	0	0	1239957	692	0	correct_rejection	NA	0
23	Single	44	692	1502	8	0	0	1240666	691	0	correct_rejection	NA	0
23	Single	45	693	1503	4	0	0	1241374	692	0	correct_rejection	NA	0
23	Single	46	694	1504	9	0	0	1242083	691	0	correct_rejection	NA	0
23	Single	47	695	1505	7	0	0	1242791	692	0	correct_rejection	NA	0
23	Single	48	696	1506	8	0	0	1243500	692	0	correct_rejection	NA	0
23	Single	49	697	1507	9	0	0	1244208	692	0	correct_rejection	NA	0
23	Single	50	698	1508	6	0	0	1244917	692	0	correct_rejection	NA	0
23	Single	51	699	1509	8	0	0	1245626	691	0	correct_rejection	NA	0
23	Single	52	700	1510	8	0	0	1246334	692	0	correct_rejection	NA	0
23	Single	53	701	1511	5	0	0	1247043	691	0	correct_rejection	NA	0
23	Single	54	702	1512	8	0	0	1247751	692	0	correct_rejection	NA	0
23	Single	55	703	1513	7	0	0	1248460	692	0	correct_rejection	NA	0
23	Single	56	704	1514	7	0	0	1249168	692	0	correct_rejection	NA	0
23	Single	57	705	1515	4	0	0	1249877	692	0	correct_rejection	NA	0
23	Single	58	706	1516	0	1	1	1250586	691	1	hit	402	0
23	Single	59	707	1517	4	0	0	1251294	692	0	correct_rejection	NA	0
23	Single	60	708	1518	6	0	0	1252003	691	0	correct_rejection	NA	0
23	Single	61	709	1519	5	0	0	1252711	692	0	correct_rejection	NA	0
23	Single	62	710	1520	4	0	0	1253420	692	0	correct_rejection	NA	0
23	Single	63	711	1521	7	0	0	1254128	692	0	correct_rejection	NA	0
23	Single	64	712	1522	6	0	0	1254837	692	0	correct_rejection	NA	0
23	Single	65	713	1523	6	0	0	1255546	691	0	correct_rejection	NA	0
23	Single	66	714	1524	9	0	0	1256254	692	0	correct_rejection	NA	0
23	Single	67	715	1525	0	1	1	1256963	691	1	hit	454	0
23	Single	68	716	1526	9	0	0	1257671	692	0	correct_rejection	NA	0
23	Single	69	717	1527	8	0	0	1258380	691	0	correct_rejection	NA	0
23	Single	70	718	1528	0	1	1	1259088	692	1	hit	330	0
23	Single	71	719	1529	6	0	0	1259797	692	0	correct_rejection	NA	0
23	Single	72	720	1530	4	0	0	1260506	691	0	correct_rejection	NA	0
23	Single	73	721	1531	5	0	0	1261214	692	0	correct_rejection	NA	0
23	Single	74	722	1532	5	0	0	1261923	691	0	correct_rejection	NA	0
23	Single	75	723	1533	0	1	1	1262631	692	1	hit	407	0
23	Single	76	724	1534	6	0	0	1263340	691	0	correct_rejection	NA	0
23	Single	77	725	1535	7	0	0	1264048	692	0	correct_rejection	NA	0
23	Single	78	726	1536	0	1	1	1264757	692	1	hit	440	0
23	Single	79	727	1537	5	0	0	1265465	692	0	correct_rejection	NA	0
23	Single	80	728	1538	5	0	0	1266174	692	0	correct_rejection	NA	0
23	Single	81	729	1539	4	0	0	1266883	691	0	correct_rejection	NA	0
23	Single	82	730	1540	0	1	1	1267591	692	1	hit	354	0
23	Single	83	731	1541	9	0	0	1268300	691	0	correct_rejection	NA	0
23	Single	84	732	1542	5	0	0	1269008	692	0	correct_rejection	NA	0
23	Single	85	733	1543	6	0	0	1269717	692	0	correct_rejection	NA	0
23	Single	86	734	1544	4	0	0	1270425	692	0	correct_rejection	NA	0
23	Single	87	735	1545	0	1	1	1271134	692	1	hit	413	0
23	Single	88	736	1546	7	0	0	1271843	691	0	correct_rejection	NA	0
23	Single	89	737	1547	9	0	0	1272551	692	0	correct_rejection	NA	0
23	Single	90	738	1548	8	0	0	1273260	691	0	correct_rejection	NA	0
23	Single	91	739	1549	8	0	0	1273968	692	0	correct_rejection	NA	0
23	Single	92	740	1550	7	0	0	1274677	692	0	correct_rejection	NA	0
23	Single	93	741	1551	8	0	0	1275385	692	0	correct_rejection	NA	0
23	Single	94	742	1552	0	1	1	1276094	692	1	hit	307	0
23	Single	95	743	1553	4	0	0	1276803	691	0	correct_rejection	NA	0
23	Single	96	744	1554	8	0	0	1277511	692	0	correct_rejection	NA	0
23	Single	97	745	1555	5	0	0	1278220	691	0	correct_rejection	NA	0
23	Single	98	746	1556	5	0	0	1278928	692	0	correct_rejection	NA	0
23	Single	99	747	1557	8	0	0	1279637	691	0	correct_rejection	NA	0
23	Single	100	748	1558	9	0	0	1280345	692	0	correct_rejection	NA	0
23	Single	101	749	1559	4	0	0	1281054	692	0	correct_rejection	NA	0
23	Single	102	750	1560	4	0	0	1281762	692	0	correct_rejection	NA	0
23	Single	103	751	1561	0	1	1	1282471	692	1	hit	373	0
23	Single	104	752	1562	5	0	0	1283180	691	0	correct_rejection	NA	0
23	Single	105	753	1563	9	0	0	1283888	692	0	correct_rejection	NA	0
23	Single	106	754	1564	9	0	0	1284597	691	0	correct_rejection	NA	0
23	Single	107	755	1565	7	0	0	1285305	692	0	correct_rejection	NA	0
23	Single	108	756	1566	6	0	0	1286014	692	0	correct_rejection	NA	0
23	Single	109	757	1567	7	0	0	1286722	692	0	correct_rejection	NA	0
23	Single	110	758	1568	7	0	0	1287431	692	0	correct_rejection	NA	0
23	Single	111	759	1569	5	0	0	1288140	691	0	correct_rejection	NA	0
23	Single	112	760	1570	0	1	1	1288848	692	1	hit	352	0
23	Single	113	761	1571	7	0	0	1289557	691	0	correct_rejection	NA	0
23	Single	114	762	1572	4	0	0	1290265	692	0	correct_rejection	NA	0
23	Single	115	763	1573	6	0	0	1290974	692	0	correct_rejection	NA	0
23	Single	116	764	1574	9	0	0	1291682	692	0	correct_rejection	NA	0
23	Single	117	765	1575	6	0	0	1292391	692	0	correct_rejection	NA	0
23	Single	118	766	1576	6	0	0	1293100	691	0	correct_rejection	NA	0
23	Single	119	767	1577	8	0	0	1293808	692	0	correct_rejection	NA	0
23	Single	120	768	1578	6	0	0	1294517	691	0	correct_rejection	NA	0
23	Single	121	769	1579	0	1	1	1295225	692	1	hit	523	0
23	Single	122	770	1580	7	0	0	1295934	692	0	correct_rejection	NA	0
23	Single	123	771	1581	7	0	0	1296642	692	0	correct_rejection	NA	0
23	Single	124	772	1582	8	0	0	1297351	692	0	correct_rejection	NA	0
23	Single	125	773	1583	7	0	0	1298060	691	0	correct_rejection	NA	0
23	Single	126	774	1584	6	0	0	1298768	692	0	correct_rejection	NA	0
23	Single	127	775	1585	9	0	0	1299477	691	0	correct_rejection	NA	0
23	Single	128	776	1586	7	0	0	1300185	692	0	correct_rejection	NA	0
23	Single	129	777	1587	0	1	1	1300894	691	1	hit	403	0
23	Single	130	778	1588	4	0	0	1301602	692	0	correct_rejection	NA	0
23	Single	131	779	1589	9	0	0	1302311	692	0	correct_rejection	NA	0
23	Single	132	780	1590	6	0	0	1303019	692	0	correct_rejection	NA	0
23	Single	133	781	1591	5	0	0	1303728	692	0	correct_rejection	NA	0
23	Single	134	782	1592	6	0	0	1304437	691	0	correct_rejection	NA	0
23	Single	135	783	1593	0	1	1	1305145	692	1	hit	338	0
23	Single	136	784	1594	6	0	0	1305854	691	0	correct_rejection	NA	0
23	Single	137	785	1595	7	0	0	1306562	692	0	correct_rejection	NA	0
23	Single	138	786	1596	9	0	0	1307271	692	0	correct_rejection	NA	0
23	Single	139	787	1597	9	0	0	1307979	692	0	correct_rejection	NA	0
23	Single	140	788	1598	4	0	0	1308688	692	0	correct_rejection	NA	0
23	Single	141	789	1599	5	0	0	1309397	691	0	correct_rejection	NA	0
