ID	block	trial_block	trial_cat	trial_total	number	violation	level_violation	onset	duration	Response	Hit_Miss	RT	pre_trial_fixcross_ISI
first_trigger_at: 11167
trigger nr 7 at 17167
24	Correct	1	163	1	4	0	0	23691	691	0	correct_rejection	NA	6489
24	Correct	2	164	2	5	0	0	24399	692	0	correct_rejection	NA	0
24	Correct	3	165	3	6	0	0	25108	691	0	correct_rejection	NA	0
24	Correct	4	166	4	4	0	0	25816	692	0	correct_rejection	NA	0
24	Correct	5	167	5	5	0	0	26525	692	0	correct_rejection	NA	0
24	Correct	6	168	6	6	0	0	27233	692	0	correct_rejection	NA	0
24	Correct	7	169	7	4	0	0	27942	692	0	correct_rejection	NA	0
24	Correct	8	170	8	0	1	1	28651	691	1	hit	467	0
24	Correct	9	171	9	5	0	0	29359	692	0	correct_rejection	NA	0
24	Correct	10	172	10	6	0	0	30068	691	0	correct_rejection	NA	0
24	Correct	11	173	11	6	0	0	30776	692	0	correct_rejection	NA	0
24	Correct	12	174	12	5	0	0	31485	692	0	correct_rejection	NA	0
24	Correct	13	175	13	4	0	0	32193	692	0	correct_rejection	NA	0
24	Correct	14	176	14	0	1	2	32902	692	1	hit	327	0
24	Correct	15	177	15	6	0	0	33611	691	0	correct_rejection	NA	0
24	Correct	16	178	16	5	0	0	34319	692	0	correct_rejection	NA	0
24	Correct	17	179	17	4	0	0	35028	691	0	correct_rejection	NA	0
24	Correct	18	180	18	6	0	0	35736	692	0	correct_rejection	NA	0
24	Correct	19	181	19	5	0	0	36445	692	0	correct_rejection	NA	0
24	Correct	20	182	20	4	0	0	37153	692	0	correct_rejection	NA	0
24	Correct	21	183	21	0	1	3	37862	692	1	hit	302	0
24	Correct	22	184	22	9	0	0	38571	691	0	correct_rejection	NA	0
24	Correct	23	185	23	8	0	0	39279	692	0	correct_rejection	NA	0
24	Correct	24	186	24	7	0	0	39988	691	0	correct_rejection	NA	0
24	Correct	25	187	25	0	1	2	40696	692	1	hit	419	0
24	Correct	26	188	26	9	0	0	41405	692	0	correct_rejection	NA	0
24	Correct	27	189	27	8	0	0	42113	692	0	correct_rejection	NA	0
24	Correct	28	190	28	0	1	1	42822	692	1	hit	423	0
24	Correct	29	191	29	7	0	0	43531	691	0	correct_rejection	NA	0
24	Correct	30	192	30	9	0	0	44239	692	0	correct_rejection	NA	0
24	Correct	31	193	31	8	0	0	44948	691	0	correct_rejection	NA	0
24	Correct	32	194	32	7	0	0	45656	692	0	correct_rejection	NA	0
24	Correct	33	195	33	0	1	3	46365	692	1	hit	325	0
24	Correct	34	196	34	7	0	0	47073	692	0	correct_rejection	NA	0
24	Correct	35	197	35	8	0	0	47782	692	0	correct_rejection	NA	0
24	Correct	36	198	36	9	0	0	48491	691	0	correct_rejection	NA	0
24	Correct	37	199	37	7	0	0	49199	692	0	correct_rejection	NA	0
24	Correct	38	200	38	8	0	0	49908	691	0	correct_rejection	NA	0
24	Correct	39	201	39	9	0	0	50616	692	0	correct_rejection	NA	0
24	Correct	40	202	40	7	0	0	51325	691	0	correct_rejection	NA	0
24	Correct	41	203	41	8	0	0	52033	692	0	correct_rejection	NA	0
24	Correct	42	204	42	9	0	0	52742	692	0	correct_rejection	NA	0
24	Correct	43	205	43	4	0	0	53450	692	0	correct_rejection	NA	0
24	Correct	44	206	44	5	0	0	54159	692	0	correct_rejection	NA	0
24	Correct	45	207	45	6	0	0	54868	691	0	correct_rejection	NA	0
24	Correct	46	208	46	4	0	0	55576	692	0	correct_rejection	NA	0
24	Correct	47	209	47	5	0	0	56285	691	0	correct_rejection	NA	0
24	Correct	48	210	48	6	0	0	56993	692	0	correct_rejection	NA	0
24	Correct	49	211	49	4	0	0	57702	692	0	correct_rejection	NA	0
24	Correct	50	212	50	5	0	0	58410	692	0	correct_rejection	NA	0
24	Correct	51	213	51	6	0	0	59119	692	0	correct_rejection	NA	0
24	Correct	52	214	52	6	0	0	59828	691	0	correct_rejection	NA	0
24	Correct	53	215	53	5	0	0	60536	692	0	correct_rejection	NA	0
24	Correct	54	216	54	4	0	0	61245	691	0	correct_rejection	NA	0
24	Correct	55	217	55	6	0	0	61953	692	0	correct_rejection	NA	0
24	Correct	56	218	56	5	0	0	62662	692	0	correct_rejection	NA	0
24	Correct	57	219	57	4	0	0	63370	692	0	correct_rejection	NA	0
24	Correct	58	220	58	6	0	0	64079	692	0	correct_rejection	NA	0
24	Correct	59	221	59	5	0	0	64788	691	0	correct_rejection	NA	0
24	Correct	60	222	60	0	1	1	65496	692	1	hit	421	0
24	Correct	61	223	61	4	0	0	66205	691	0	correct_rejection	NA	0
24	Correct	62	224	62	9	0	0	66913	692	0	correct_rejection	NA	0
24	Correct	63	225	63	0	1	1	67622	692	1	hit	514	0
24	Correct	64	226	64	8	0	0	68330	692	0	correct_rejection	NA	0
24	Correct	65	227	65	7	0	0	69039	692	0	correct_rejection	NA	0
24	Correct	66	228	66	9	0	0	69748	691	0	correct_rejection	NA	0
24	Correct	67	229	67	8	0	0	70456	692	0	correct_rejection	NA	0
24	Correct	68	230	68	7	0	0	71165	691	0	correct_rejection	NA	0
24	Correct	69	231	69	9	0	0	71873	692	0	correct_rejection	NA	0
24	Correct	70	232	70	8	0	0	72582	692	0	correct_rejection	NA	0
24	Correct	71	233	71	7	0	0	73290	692	0	correct_rejection	NA	0
24	Correct	72	234	72	7	0	0	73999	692	0	correct_rejection	NA	0
24	Correct	73	235	73	8	0	0	74708	691	0	correct_rejection	NA	0
24	Correct	74	236	74	0	1	1	75416	692	1	hit	429	0
24	Correct	75	237	75	9	0	0	76125	691	0	correct_rejection	NA	0
24	Correct	76	238	76	7	0	0	76833	692	0	correct_rejection	NA	0
24	Correct	77	239	77	0	1	1	77542	691	1	hit	380	0
24	Correct	78	240	78	8	0	0	78250	692	0	correct_rejection	NA	0
24	Correct	79	241	79	9	0	0	78959	692	0	correct_rejection	NA	0
24	Correct	80	242	80	7	0	0	79667	692	0	correct_rejection	NA	0
24	Correct	81	243	81	0	1	1	80376	692	1	hit	326	0
24	Correct	82	244	82	8	0	0	81085	691	0	correct_rejection	NA	0
24	Correct	83	245	83	9	0	0	81793	692	0	correct_rejection	NA	0
24	Correct	84	246	84	4	0	0	82502	691	0	correct_rejection	NA	0
24	Correct	85	247	85	5	0	0	83210	692	0	correct_rejection	NA	0
24	Correct	86	248	86	6	0	0	83919	692	0	correct_rejection	NA	0
24	Correct	87	249	87	0	1	2	84627	692	1	hit	320	0
24	Correct	88	250	88	4	0	0	85336	692	0	correct_rejection	NA	0
24	Correct	89	251	89	5	0	0	86045	691	0	correct_rejection	NA	0
24	Correct	90	252	90	6	0	0	86753	692	0	correct_rejection	NA	0
24	Correct	91	253	91	4	0	0	87462	691	0	correct_rejection	NA	0
24	Correct	92	254	92	5	0	0	88170	692	0	correct_rejection	NA	0
24	Correct	93	255	93	6	0	0	88879	692	0	correct_rejection	NA	0
24	Correct	94	256	94	6	0	0	89587	692	0	correct_rejection	NA	0
24	Correct	95	257	95	0	1	1	90296	692	1	hit	366	0
24	Correct	96	258	96	5	0	0	91005	691	0	correct_rejection	NA	0
24	Correct	97	259	97	4	0	0	91713	692	0	correct_rejection	NA	0
24	Correct	98	260	98	6	0	0	92422	691	0	correct_rejection	NA	0
24	Correct	99	261	99	5	0	0	93130	692	0	correct_rejection	NA	0
24	Correct	100	262	100	4	0	0	93839	692	0	correct_rejection	NA	0
24	Correct	101	263	101	6	0	0	94547	692	0	correct_rejection	NA	0
24	Correct	102	264	102	5	0	0	95256	692	0	correct_rejection	NA	0
24	Correct	103	265	103	4	0	0	95965	691	0	correct_rejection	NA	0
24	Correct	104	266	104	9	0	0	96673	692	0	correct_rejection	NA	0
24	Correct	105	267	105	8	0	0	97382	691	0	correct_rejection	NA	0
24	Correct	106	268	106	7	0	0	98090	692	0	correct_rejection	NA	0
24	Correct	107	269	107	9	0	0	98799	692	0	correct_rejection	NA	0
24	Correct	108	270	108	8	0	0	99507	692	0	correct_rejection	NA	0
24	Correct	109	271	109	7	0	0	100216	692	0	correct_rejection	NA	0
24	Correct	110	272	110	9	0	0	100925	691	0	correct_rejection	NA	0
24	Correct	111	273	111	8	0	0	101633	692	0	correct_rejection	NA	0
24	Correct	112	274	112	7	0	0	102342	691	0	correct_rejection	NA	0
24	Correct	113	275	113	7	0	0	103050	692	0	correct_rejection	NA	0
24	Correct	114	276	114	8	0	0	103759	692	0	correct_rejection	NA	0
24	Correct	115	277	115	0	1	1	104467	692	1	hit	326	0
24	Correct	116	278	116	9	0	0	105176	692	0	correct_rejection	NA	0
24	Correct	117	279	117	7	0	0	105885	691	0	correct_rejection	NA	0
24	Correct	118	280	118	8	0	0	106593	692	0	correct_rejection	NA	0
24	Correct	119	281	119	9	0	0	107302	691	0	correct_rejection	NA	0
24	Correct	120	282	120	0	1	2	108010	692	1	hit	451	0
24	Correct	121	283	121	7	0	0	108719	691	0	correct_rejection	NA	0
24	Correct	122	284	122	8	0	0	109427	692	0	correct_rejection	NA	0
24	Correct	123	285	123	9	0	0	110136	692	0	correct_rejection	NA	0
24	Correct	124	286	124	4	0	0	110844	692	0	correct_rejection	NA	0
24	Correct	125	287	125	5	0	0	111553	692	0	correct_rejection	NA	0
24	Correct	126	288	126	0	1	1	112262	691	1	hit	339	0
24	Correct	127	289	127	6	0	0	112970	692	0	correct_rejection	NA	0
24	Correct	128	290	128	4	0	0	113679	691	0	correct_rejection	NA	0
24	Correct	129	291	129	5	0	0	114387	692	0	correct_rejection	NA	0
24	Correct	130	292	130	6	0	0	115096	692	0	correct_rejection	NA	0
24	Correct	131	293	131	4	0	0	115804	692	0	correct_rejection	NA	0
24	Correct	132	294	132	5	0	0	116513	692	0	correct_rejection	NA	0
24	Correct	133	295	133	6	0	0	117222	691	0	correct_rejection	NA	0
24	Correct	134	296	134	6	0	0	117930	692	0	correct_rejection	NA	0
24	Correct	135	297	135	5	0	0	118639	691	0	correct_rejection	NA	0
24	Correct	136	298	136	4	0	0	119347	692	0	correct_rejection	NA	0
24	Correct	137	299	137	6	0	0	120056	692	0	correct_rejection	NA	0
24	Correct	138	300	138	5	0	0	120764	692	0	correct_rejection	NA	0
24	Correct	139	301	139	4	0	0	121473	692	0	correct_rejection	NA	0
24	Correct	140	302	140	6	0	0	122182	691	0	correct_rejection	NA	0
24	Correct	141	303	141	5	0	0	122890	692	0	correct_rejection	NA	0
24	Correct	142	304	142	4	0	0	123599	691	0	correct_rejection	NA	0
24	Correct	143	305	143	9	0	0	124307	692	0	correct_rejection	NA	0
24	Correct	144	306	144	8	0	0	125016	692	0	correct_rejection	NA	0
24	Correct	145	307	145	7	0	0	125724	692	0	correct_rejection	NA	0
24	Correct	146	308	146	9	0	0	126433	692	0	correct_rejection	NA	0
24	Correct	147	309	147	8	0	0	127142	691	0	correct_rejection	NA	0
24	Correct	148	310	148	0	1	1	127850	692	1	hit	431	0
24	Correct	149	311	149	7	0	0	128559	691	0	correct_rejection	NA	0
24	Correct	150	312	150	9	0	0	129267	692	0	correct_rejection	NA	0
24	Correct	151	313	151	8	0	0	129976	692	0	correct_rejection	NA	0
24	Correct	152	314	152	7	0	0	130684	692	0	correct_rejection	NA	0
24	Correct	153	315	153	7	0	0	131393	692	0	correct_rejection	NA	0
24	Correct	154	316	154	0	1	1	132102	691	1	hit	380	0
24	Correct	155	317	155	8	0	0	132810	692	0	correct_rejection	NA	0
24	Correct	156	318	156	9	0	0	133519	691	0	correct_rejection	NA	0
24	Correct	157	319	157	7	0	0	134227	692	0	correct_rejection	NA	0
24	Correct	158	320	158	8	0	0	134936	691	0	correct_rejection	NA	0
24	Correct	159	321	159	9	0	0	135644	692	0	correct_rejection	NA	0
24	Correct	160	322	160	7	0	0	136353	692	0	correct_rejection	NA	0
24	Correct	161	323	161	8	0	0	137061	692	0	correct_rejection	NA	0
24	Correct	162	324	162	9	0	0	137770	692	0	correct_rejection	NA	0
24	Triplet	1	649	163	4	0	0	147923	692	0	correct_rejection	NA	7719
24	Triplet	2	650	164	5	0	0	148632	692	0	correct_rejection	NA	0
24	Triplet	3	651	165	6	0	0	149341	691	0	correct_rejection	NA	0
24	Triplet	4	652	166	6	0	0	150049	692	0	correct_rejection	NA	0
24	Triplet	5	653	167	5	0	0	150758	691	0	correct_rejection	NA	0
24	Triplet	6	654	168	4	0	0	151466	692	0	correct_rejection	NA	0
24	Triplet	7	655	169	4	0	0	152175	692	0	correct_rejection	NA	0
24	Triplet	8	656	170	5	0	0	152883	692	0	correct_rejection	NA	0
24	Triplet	9	657	171	6	0	0	153592	692	0	correct_rejection	NA	0
24	Triplet	10	658	172	9	0	0	154301	691	0	correct_rejection	NA	0
24	Triplet	11	659	173	0	1	1	155009	692	1	hit	362	0
24	Triplet	12	660	174	8	0	0	155718	691	0	correct_rejection	NA	0
24	Triplet	13	661	175	7	0	0	156426	692	0	correct_rejection	NA	0
24	Triplet	14	662	176	6	0	0	157135	691	0	correct_rejection	NA	0
24	Triplet	15	663	177	0	1	1	157843	692	1	hit	480	0
24	Triplet	16	664	178	5	0	0	158552	692	0	correct_rejection	NA	0
24	Triplet	17	665	179	4	0	0	159261	691	0	correct_rejection	NA	0
24	Triplet	18	666	180	6	0	0	159969	692	0	correct_rejection	NA	0
24	Triplet	19	667	181	5	0	0	160678	691	0	correct_rejection	NA	0
24	Triplet	20	668	182	4	0	0	161386	692	0	correct_rejection	NA	0
24	Triplet	21	669	183	7	0	0	162095	691	0	correct_rejection	NA	0
24	Triplet	22	670	184	8	0	0	162803	692	0	correct_rejection	NA	0
24	Triplet	23	671	185	9	0	0	163512	692	0	correct_rejection	NA	0
24	Triplet	24	672	186	6	0	0	164220	692	0	correct_rejection	NA	0
24	Triplet	25	673	187	0	1	1	164929	692	1	hit	480	0
24	Triplet	26	674	188	5	0	0	165638	691	0	correct_rejection	NA	0
24	Triplet	27	675	189	4	0	0	166346	692	0	correct_rejection	NA	0
24	Triplet	28	676	190	9	0	0	167055	691	0	correct_rejection	NA	0
24	Triplet	29	677	191	8	0	0	167763	692	0	correct_rejection	NA	0
24	Triplet	30	678	192	7	0	0	168472	692	0	correct_rejection	NA	0
24	Triplet	31	679	193	7	0	0	169180	692	0	correct_rejection	NA	0
24	Triplet	32	680	194	8	0	0	169889	692	0	correct_rejection	NA	0
24	Triplet	33	681	195	9	0	0	170598	691	0	correct_rejection	NA	0
24	Triplet	34	682	196	4	0	0	171306	692	0	correct_rejection	NA	0
24	Triplet	35	683	197	5	0	0	172015	691	0	correct_rejection	NA	0
24	Triplet	36	684	198	6	0	0	172723	692	0	correct_rejection	NA	0
24	Triplet	37	685	199	4	0	0	173432	692	0	correct_rejection	NA	0
24	Triplet	38	686	200	5	0	0	174140	692	0	correct_rejection	NA	0
24	Triplet	39	687	201	0	1	1	174849	692	1	hit	342	0
24	Triplet	40	688	202	6	0	0	175558	691	0	correct_rejection	NA	0
24	Triplet	41	689	203	7	0	0	176266	692	0	correct_rejection	NA	0
24	Triplet	42	690	204	8	0	0	176975	691	0	correct_rejection	NA	0
24	Triplet	43	691	205	9	0	0	177683	692	0	correct_rejection	NA	0
24	Triplet	44	692	206	7	0	0	178392	692	0	correct_rejection	NA	0
24	Triplet	45	693	207	8	0	0	179100	692	0	correct_rejection	NA	0
24	Triplet	46	694	208	9	0	0	179809	692	0	correct_rejection	NA	0
24	Triplet	47	695	209	9	0	0	180518	691	0	correct_rejection	NA	0
24	Triplet	48	696	210	8	0	0	181226	692	0	correct_rejection	NA	0
24	Triplet	49	697	211	0	1	1	181935	691	1	hit	427	0
24	Triplet	50	698	212	7	0	0	182643	692	0	correct_rejection	NA	0
24	Triplet	51	699	213	9	0	0	183352	692	0	correct_rejection	NA	0
24	Triplet	52	700	214	8	0	0	184060	692	0	correct_rejection	NA	0
24	Triplet	53	701	215	7	0	0	184769	692	0	correct_rejection	NA	0
24	Triplet	54	702	216	7	0	0	185478	691	0	correct_rejection	NA	0
24	Triplet	55	703	217	0	1	1	186186	692	1	hit	357	0
24	Triplet	56	704	218	8	0	0	186895	691	0	correct_rejection	NA	0
24	Triplet	57	705	219	9	0	0	187603	692	0	correct_rejection	NA	0
24	Triplet	58	706	220	7	0	0	188312	691	0	correct_rejection	NA	0
24	Triplet	59	707	221	8	0	0	189020	692	0	correct_rejection	NA	0
24	Triplet	60	708	222	0	1	1	189729	692	1	hit	289	0
24	Triplet	61	709	223	9	0	0	190437	692	0	correct_rejection	NA	0
24	Triplet	62	710	224	6	0	0	191146	692	0	correct_rejection	NA	0
24	Triplet	63	711	225	5	0	0	191855	691	0	correct_rejection	NA	0
24	Triplet	64	712	226	4	0	0	192563	692	0	correct_rejection	NA	0
24	Triplet	65	713	227	6	0	0	193272	691	0	correct_rejection	NA	0
24	Triplet	66	714	228	5	0	0	193980	692	0	correct_rejection	NA	0
24	Triplet	67	715	229	4	0	0	194689	692	0	correct_rejection	NA	0
24	Triplet	68	716	230	0	1	2	195397	692	1	hit	322	0
24	Triplet	69	717	231	4	0	0	196106	692	0	correct_rejection	NA	0
24	Triplet	70	718	232	5	0	0	196815	691	0	correct_rejection	NA	0
24	Triplet	71	719	233	6	0	0	197523	692	0	correct_rejection	NA	0
24	Triplet	72	720	234	4	0	0	198232	691	0	correct_rejection	NA	0
24	Triplet	73	721	235	5	0	0	198940	692	0	correct_rejection	NA	0
24	Triplet	74	722	236	6	0	0	199649	692	0	correct_rejection	NA	0
24	Triplet	75	723	237	6	0	0	200357	692	0	correct_rejection	NA	0
24	Triplet	76	724	238	5	0	0	201066	692	0	correct_rejection	NA	0
24	Triplet	77	725	239	0	1	1	201775	691	1	hit	354	0
24	Triplet	78	726	240	4	0	0	202483	692	0	correct_rejection	NA	0
24	Triplet	79	727	241	7	0	0	203192	691	0	correct_rejection	NA	0
24	Triplet	80	728	242	8	0	0	203900	692	0	correct_rejection	NA	0
24	Triplet	81	729	243	9	0	0	204609	692	0	correct_rejection	NA	0
24	Triplet	82	730	244	4	0	0	205317	692	0	correct_rejection	NA	0
24	Triplet	83	731	245	5	0	0	206026	692	0	correct_rejection	NA	0
24	Triplet	84	732	246	6	0	0	206735	691	0	correct_rejection	NA	0
24	Triplet	85	733	247	9	0	0	207443	692	0	correct_rejection	NA	0
24	Triplet	86	734	248	8	0	0	208152	691	0	correct_rejection	NA	0
24	Triplet	87	735	249	7	0	0	208860	692	0	correct_rejection	NA	0
24	Triplet	88	736	250	9	0	0	209569	692	0	correct_rejection	NA	0
24	Triplet	89	737	251	8	0	0	210277	692	0	correct_rejection	NA	0
24	Triplet	90	738	252	7	0	0	210986	692	0	correct_rejection	NA	0
24	Triplet	91	739	253	7	0	0	211695	691	0	correct_rejection	NA	0
24	Triplet	92	740	254	8	0	0	212403	692	0	correct_rejection	NA	0
24	Triplet	93	741	255	9	0	0	213112	691	0	correct_rejection	NA	0
24	Triplet	94	742	256	9	0	0	213820	692	0	correct_rejection	NA	0
24	Triplet	95	743	257	8	0	0	214529	691	0	correct_rejection	NA	0
24	Triplet	96	744	258	7	0	0	215237	692	0	correct_rejection	NA	0
24	Triplet	97	745	259	6	0	0	215946	692	0	correct_rejection	NA	0
24	Triplet	98	746	260	5	0	0	216654	692	0	correct_rejection	NA	0
24	Triplet	99	747	261	4	0	0	217363	692	0	correct_rejection	NA	0
24	Triplet	100	748	262	9	0	0	218072	691	0	correct_rejection	NA	0
24	Triplet	101	749	263	8	0	0	218780	692	0	correct_rejection	NA	0
24	Triplet	102	750	264	0	1	1	219489	691	1	hit	484	0
24	Triplet	103	751	265	7	0	0	220197	692	0	correct_rejection	NA	0
24	Triplet	104	752	266	4	0	0	220906	692	0	correct_rejection	NA	0
24	Triplet	105	753	267	5	0	0	221614	692	0	correct_rejection	NA	0
24	Triplet	106	754	268	6	0	0	222323	692	0	correct_rejection	NA	0
24	Triplet	107	755	269	7	0	0	223032	691	0	correct_rejection	NA	0
24	Triplet	108	756	270	8	0	0	223740	692	0	correct_rejection	NA	0
24	Triplet	109	757	271	9	0	0	224449	691	0	correct_rejection	NA	0
24	Triplet	110	758	272	0	1	2	225157	692	1	hit	393	0
24	Triplet	111	759	273	9	0	0	225866	692	0	correct_rejection	NA	0
24	Triplet	112	760	274	8	0	0	226574	692	0	correct_rejection	NA	0
24	Triplet	113	761	275	7	0	0	227283	692	0	correct_rejection	NA	0
24	Triplet	114	762	276	4	0	0	227992	691	0	correct_rejection	NA	0
24	Triplet	115	763	277	5	0	0	228700	692	0	correct_rejection	NA	0
24	Triplet	116	764	278	6	0	0	229409	691	0	correct_rejection	NA	0
24	Triplet	117	765	279	0	1	2	230117	692	1	hit	380	0
24	Triplet	118	766	280	4	0	0	230826	692	0	correct_rejection	NA	0
24	Triplet	119	767	281	5	0	0	231534	692	0	correct_rejection	NA	0
24	Triplet	120	768	282	6	0	0	232243	692	0	correct_rejection	NA	0
24	Triplet	121	769	283	9	0	0	232952	691	0	correct_rejection	NA	0
24	Triplet	122	770	284	8	0	0	233660	692	0	correct_rejection	NA	0
24	Triplet	123	771	285	0	1	1	234369	691	1	hit	410	0
24	Triplet	124	772	286	7	0	0	235077	692	0	correct_rejection	NA	0
24	Triplet	125	773	287	7	0	0	235786	692	0	correct_rejection	NA	0
24	Triplet	126	774	288	8	0	0	236494	692	0	correct_rejection	NA	0
24	Triplet	127	775	289	9	0	0	237203	692	0	correct_rejection	NA	0
24	Triplet	128	776	290	0	1	2	237912	691	1	hit	428	0
24	Triplet	129	777	291	6	0	0	238620	692	0	correct_rejection	NA	0
24	Triplet	130	778	292	5	0	0	239329	691	0	correct_rejection	NA	0
24	Triplet	131	779	293	4	0	0	240037	692	0	correct_rejection	NA	0
24	Triplet	132	780	294	7	0	0	240746	692	0	correct_rejection	NA	0
24	Triplet	133	781	295	8	0	0	241454	692	0	correct_rejection	NA	0
24	Triplet	134	782	296	9	0	0	242163	692	0	correct_rejection	NA	0
24	Triplet	135	783	297	7	0	0	242872	691	0	correct_rejection	NA	0
24	Triplet	136	784	298	8	0	0	243580	692	0	correct_rejection	NA	0
24	Triplet	137	785	299	9	0	0	244289	691	0	correct_rejection	NA	0
24	Triplet	138	786	300	4	0	0	244997	692	0	correct_rejection	NA	0
24	Triplet	139	787	301	0	1	1	245706	691	1	hit	357	0
24	Triplet	140	788	302	5	0	0	246414	692	0	correct_rejection	NA	0
24	Triplet	141	789	303	6	0	0	247123	692	0	correct_rejection	NA	0
24	Triplet	142	790	304	0	1	2	247831	692	1	hit	451	0
24	Triplet	143	791	305	6	0	0	248540	692	0	correct_rejection	NA	0
24	Triplet	144	792	306	5	0	0	249249	691	0	correct_rejection	NA	0
24	Triplet	145	793	307	4	0	0	249957	692	0	correct_rejection	NA	0
24	Triplet	146	794	308	6	0	0	250666	691	0	correct_rejection	NA	0
24	Triplet	147	795	309	5	0	0	251374	692	0	correct_rejection	NA	0
24	Triplet	148	796	310	4	0	0	252083	692	0	correct_rejection	NA	0
24	Triplet	149	797	311	0	1	2	252791	692	1	hit	297	0
24	Triplet	150	798	312	9	0	0	253500	692	0	correct_rejection	NA	0
24	Triplet	151	799	313	8	0	0	254209	691	0	correct_rejection	NA	0
24	Triplet	152	800	314	7	0	0	254917	692	0	correct_rejection	NA	0
24	Triplet	153	801	315	0	1	2	255626	691	1	hit	386	0
24	Triplet	154	802	316	9	0	0	256334	692	0	correct_rejection	NA	0
24	Triplet	155	803	317	8	0	0	257043	692	0	correct_rejection	NA	0
24	Triplet	156	804	318	7	0	0	257751	692	0	correct_rejection	NA	0
24	Triplet	157	805	319	6	0	0	258460	692	0	correct_rejection	NA	0
24	Triplet	158	806	320	5	0	0	259169	691	0	correct_rejection	NA	0
24	Triplet	159	807	321	4	0	0	259877	692	0	correct_rejection	NA	0
24	Triplet	160	808	322	4	0	0	260586	691	0	correct_rejection	NA	0
24	Triplet	161	809	323	5	0	0	261294	692	0	correct_rejection	NA	0
24	Triplet	162	810	324	6	0	0	262003	692	0	correct_rejection	NA	0
24	Single	1	325	325	9	0	0	271814	692	0	correct_rejection	NA	7609
24	Single	2	326	326	5	0	0	272523	692	0	correct_rejection	NA	0
24	Single	3	327	327	7	0	0	273232	691	0	correct_rejection	NA	0
24	Single	4	328	328	6	0	0	273940	692	0	correct_rejection	NA	0
24	Single	5	329	329	0	1	1	274649	691	1	hit	415	0
24	Single	6	330	330	9	0	0	275357	692	0	correct_rejection	NA	0
24	Single	7	331	331	4	0	0	276066	692	0	correct_rejection	NA	0
24	Single	8	332	332	4	0	0	276774	692	0	correct_rejection	NA	0
24	Single	9	333	333	7	0	0	277483	692	0	correct_rejection	NA	0
24	Single	10	334	334	8	0	0	278192	691	0	correct_rejection	NA	0
24	Single	11	335	335	5	0	0	278900	692	0	correct_rejection	NA	0
24	Single	12	336	336	9	0	0	279609	691	0	correct_rejection	NA	0
24	Single	13	337	337	0	1	1	280317	692	1	hit	301	0
24	Single	14	338	338	8	0	0	281026	691	0	correct_rejection	NA	0
24	Single	15	339	339	6	0	0	281734	692	0	correct_rejection	NA	0
24	Single	16	340	340	7	0	0	282443	692	0	correct_rejection	NA	0
24	Single	17	341	341	4	0	0	283152	691	0	correct_rejection	NA	0
24	Single	18	342	342	0	1	1	283860	692	1	hit	423	0
24	Single	19	343	343	5	0	0	284569	691	0	correct_rejection	NA	0
24	Single	20	344	344	8	0	0	285277	692	0	correct_rejection	NA	0
24	Single	21	345	345	8	0	0	285986	691	0	correct_rejection	NA	0
24	Single	22	346	346	9	0	0	286694	692	0	correct_rejection	NA	0
24	Single	23	347	347	7	0	0	287403	692	0	correct_rejection	NA	0
24	Single	24	348	348	5	0	0	288111	692	0	correct_rejection	NA	0
24	Single	25	349	349	5	0	0	288820	692	0	correct_rejection	NA	0
24	Single	26	350	350	4	0	0	289529	691	0	correct_rejection	NA	0
24	Single	27	351	351	9	0	0	290237	692	0	correct_rejection	NA	0
24	Single	28	352	352	9	0	0	290946	691	0	correct_rejection	NA	0
24	Single	29	353	353	6	0	0	291654	692	0	correct_rejection	NA	0
24	Single	30	354	354	8	0	0	292363	692	0	correct_rejection	NA	0
24	Single	31	355	355	4	0	0	293071	692	0	correct_rejection	NA	0
24	Single	32	356	356	6	0	0	293780	692	0	correct_rejection	NA	0
24	Single	33	357	357	0	1	1	294489	691	1	hit	438	0
24	Single	34	358	358	6	0	0	295197	692	0	correct_rejection	NA	0
24	Single	35	359	359	5	0	0	295906	691	0	correct_rejection	NA	0
24	Single	36	360	360	6	0	0	296614	692	0	correct_rejection	NA	0
24	Single	37	361	361	4	0	0	297323	692	0	correct_rejection	NA	0
24	Single	38	362	362	8	0	0	298031	692	0	correct_rejection	NA	0
24	Single	39	363	363	7	0	0	298740	692	0	correct_rejection	NA	0
24	Single	40	364	364	7	0	0	299449	691	0	correct_rejection	NA	0
24	Single	41	365	365	5	0	0	300157	692	0	correct_rejection	NA	0
24	Single	42	366	366	8	0	0	300866	691	0	correct_rejection	NA	0
24	Single	43	367	367	4	0	0	301574	692	0	correct_rejection	NA	0
24	Single	44	368	368	5	0	0	302283	692	0	correct_rejection	NA	0
24	Single	45	369	369	6	0	0	302991	692	0	correct_rejection	NA	0
24	Single	46	370	370	8	0	0	303700	692	0	correct_rejection	NA	0
24	Single	47	371	371	6	0	0	304409	691	0	correct_rejection	NA	0
24	Single	48	372	372	6	0	0	305117	692	0	correct_rejection	NA	0
24	Single	49	373	373	0	1	1	305826	691	1	hit	545	0
24	Single	50	374	374	4	0	0	306534	692	0	correct_rejection	NA	0
24	Single	51	375	375	7	0	0	307243	692	0	correct_rejection	NA	0
24	Single	52	376	376	9	0	0	307951	692	0	correct_rejection	NA	0
24	Single	53	377	377	0	1	1	308660	692	1	hit	398	0
24	Single	54	378	378	7	0	0	309369	691	0	correct_rejection	NA	0
24	Single	55	379	379	7	0	0	310077	692	0	correct_rejection	NA	0
24	Single	56	380	380	8	0	0	310786	691	0	correct_rejection	NA	0
24	Single	57	381	381	0	1	1	311494	692	1	hit	311	0
24	Single	58	382	382	7	0	0	312203	691	0	correct_rejection	NA	0
24	Single	59	383	383	4	0	0	312911	692	0	correct_rejection	NA	0
24	Single	60	384	384	0	1	1	313620	692	1	hit	338	0
24	Single	61	385	385	9	0	0	314328	692	0	correct_rejection	NA	0
24	Single	62	386	386	8	0	0	315037	692	0	correct_rejection	NA	0
24	Single	63	387	387	9	0	0	315746	691	0	correct_rejection	NA	0
24	Single	64	388	388	5	0	0	316454	692	0	correct_rejection	NA	0
24	Single	65	389	389	5	0	0	317163	691	0	correct_rejection	NA	0
24	Single	66	390	390	7	0	0	317871	692	0	correct_rejection	NA	0
24	Single	67	391	391	5	0	0	318580	692	0	correct_rejection	NA	0
24	Single	68	392	392	9	0	0	319288	692	0	correct_rejection	NA	0
24	Single	69	393	393	6	0	0	319997	692	0	correct_rejection	NA	0
24	Single	70	394	394	9	0	0	320706	691	0	correct_rejection	NA	0
24	Single	71	395	395	9	0	0	321414	692	0	correct_rejection	NA	0
24	Single	72	396	396	4	0	0	322123	691	0	correct_rejection	NA	0
24	Single	73	397	397	6	0	0	322831	692	0	correct_rejection	NA	0
24	Single	74	398	398	7	0	0	323540	692	0	correct_rejection	NA	0
24	Single	75	399	399	6	0	0	324248	692	0	correct_rejection	NA	0
24	Single	76	400	400	5	0	0	324957	692	0	correct_rejection	NA	0
24	Single	77	401	401	0	1	1	325666	691	1	hit	440	0
24	Single	78	402	402	4	0	0	326374	692	0	correct_rejection	NA	0
24	Single	79	403	403	4	0	0	327083	691	0	correct_rejection	NA	0
24	Single	80	404	404	8	0	0	327791	692	0	correct_rejection	NA	0
24	Single	81	405	405	8	0	0	328500	692	0	correct_rejection	NA	0
24	Single	82	406	406	0	1	1	329208	692	1	hit	429	0
24	Single	83	407	407	8	0	0	329917	692	0	correct_rejection	NA	0
24	Single	84	408	408	4	0	0	330626	691	0	correct_rejection	NA	0
24	Single	85	409	409	9	0	0	331334	692	0	correct_rejection	NA	0
24	Single	86	410	410	7	0	0	332043	691	0	correct_rejection	NA	0
24	Single	87	411	411	4	0	0	332751	692	0	correct_rejection	NA	0
24	Single	88	412	412	8	0	0	333460	692	0	correct_rejection	NA	0
24	Single	89	413	413	9	0	0	334168	692	0	correct_rejection	NA	0
24	Single	90	414	414	4	0	0	334877	692	0	correct_rejection	NA	0
24	Single	91	415	415	7	0	0	335586	691	0	correct_rejection	NA	0
24	Single	92	416	416	6	0	0	336294	692	0	correct_rejection	NA	0
24	Single	93	417	417	6	0	0	337003	691	0	correct_rejection	NA	0
24	Single	94	418	418	0	1	1	337711	692	1	hit	507	0
24	Single	95	419	419	8	0	0	338420	691	0	correct_rejection	NA	0
24	Single	96	420	420	8	0	0	339128	692	0	correct_rejection	NA	0
24	Single	97	421	421	5	0	0	339837	692	0	correct_rejection	NA	0
24	Single	98	422	422	5	0	0	340546	691	0	correct_rejection	NA	0
24	Single	99	423	423	6	0	0	341254	692	0	correct_rejection	NA	0
24	Single	100	424	424	0	1	1	341963	691	1	hit	345	0
24	Single	101	425	425	7	0	0	342671	692	0	correct_rejection	NA	0
24	Single	102	426	426	9	0	0	343380	691	0	correct_rejection	NA	0
24	Single	103	427	427	6	0	0	344088	692	0	correct_rejection	NA	0
24	Single	104	428	428	4	0	0	344797	692	0	correct_rejection	NA	0
24	Single	105	429	429	4	0	0	345505	692	0	correct_rejection	NA	0
24	Single	106	430	430	6	0	0	346214	692	0	correct_rejection	NA	0
24	Single	107	431	431	9	0	0	346923	691	0	correct_rejection	NA	0
24	Single	108	432	432	5	0	0	347631	692	0	correct_rejection	NA	0
24	Single	109	433	433	4	0	0	348340	691	0	correct_rejection	NA	0
24	Single	110	434	434	5	0	0	349048	692	0	correct_rejection	NA	0
24	Single	111	435	435	9	0	0	349757	692	0	correct_rejection	NA	0
24	Single	112	436	436	9	0	0	350465	692	0	correct_rejection	NA	0
24	Single	113	437	437	8	0	0	351174	692	0	correct_rejection	NA	0
24	Single	114	438	438	7	0	0	351883	691	0	correct_rejection	NA	0
24	Single	115	439	439	8	0	0	352591	692	0	correct_rejection	NA	0
24	Single	116	440	440	6	0	0	353300	691	0	correct_rejection	NA	0
24	Single	117	441	441	5	0	0	354008	692	0	correct_rejection	NA	0
24	Single	118	442	442	7	0	0	354717	692	0	correct_rejection	NA	0
24	Single	119	443	443	7	0	0	355425	692	0	correct_rejection	NA	0
24	Single	120	444	444	5	0	0	356134	692	0	correct_rejection	NA	0
24	Single	121	445	445	8	0	0	356843	691	0	correct_rejection	NA	0
24	Single	122	446	446	7	0	0	357551	692	0	correct_rejection	NA	0
24	Single	123	447	447	9	0	0	358260	691	0	correct_rejection	NA	0
24	Single	124	448	448	0	1	1	358968	692	1	hit	378	0
24	Single	125	449	449	9	0	0	359677	692	0	correct_rejection	NA	0
24	Single	126	450	450	6	0	0	360385	692	0	correct_rejection	NA	0
24	Single	127	451	451	0	1	1	361094	692	1	hit	447	0
24	Single	128	452	452	5	0	0	361803	691	0	correct_rejection	NA	0
24	Single	129	453	453	5	0	0	362511	692	0	correct_rejection	NA	0
24	Single	130	454	454	9	0	0	363220	691	0	correct_rejection	NA	0
24	Single	131	455	455	4	0	0	363928	692	0	correct_rejection	NA	0
24	Single	132	456	456	9	0	0	364637	692	0	correct_rejection	NA	0
24	Single	133	457	457	5	0	0	365345	692	0	correct_rejection	NA	0
24	Single	134	458	458	7	0	0	366054	692	0	correct_rejection	NA	0
24	Single	135	459	459	4	0	0	366763	691	0	correct_rejection	NA	0
24	Single	136	460	460	4	0	0	367471	692	0	correct_rejection	NA	0
24	Single	137	461	461	5	0	0	368180	691	0	correct_rejection	NA	0
24	Single	138	462	462	8	0	0	368888	692	0	correct_rejection	NA	0
24	Single	139	463	463	8	0	0	369597	691	0	correct_rejection	NA	0
24	Single	140	464	464	0	1	1	370305	692	1	hit	466	0
24	Single	141	465	465	9	0	0	371014	692	0	correct_rejection	NA	0
24	Single	142	466	466	7	0	0	371722	692	0	correct_rejection	NA	0
24	Single	143	467	467	8	0	0	372431	692	0	correct_rejection	NA	0
24	Single	144	468	468	4	0	0	373140	691	0	correct_rejection	NA	0
24	Single	145	469	469	8	0	0	373848	692	0	correct_rejection	NA	0
24	Single	146	470	470	6	0	0	374557	691	0	correct_rejection	NA	0
24	Single	147	471	471	9	0	0	375265	692	0	correct_rejection	NA	0
24	Single	148	472	472	8	0	0	375974	692	0	correct_rejection	NA	0
24	Single	149	473	473	0	1	1	376682	692	1	hit	481	0
24	Single	150	474	474	5	0	0	377391	692	0	correct_rejection	NA	0
24	Single	151	475	475	4	0	0	378100	691	0	correct_rejection	NA	0
24	Single	152	476	476	0	1	1	378808	692	1	hit	424	0
24	Single	153	477	477	7	0	0	379517	691	0	correct_rejection	NA	0
24	Single	154	478	478	5	0	0	380225	692	0	correct_rejection	NA	0
24	Single	155	479	479	0	1	1	380934	692	1	hit	358	0
24	Single	156	480	480	6	0	0	381642	692	0	correct_rejection	NA	0
24	Single	157	481	481	6	0	0	382351	692	0	correct_rejection	NA	0
24	Single	158	482	482	7	0	0	383060	691	0	correct_rejection	NA	0
24	Single	159	483	483	7	0	0	383768	692	0	correct_rejection	NA	0
24	Single	160	484	484	6	0	0	384477	691	0	correct_rejection	NA	0
24	Single	161	485	485	4	0	0	385185	692	0	correct_rejection	NA	0
24	Single	162	486	486	6	0	0	385894	692	0	correct_rejection	NA	0
24	Nonet	1	487	487	7	0	0	395814	691	0	correct_rejection	NA	7619
24	Nonet	2	488	488	8	0	0	396522	692	0	correct_rejection	NA	0
24	Nonet	3	489	489	9	0	0	397231	692	0	correct_rejection	NA	0
24	Nonet	4	490	490	0	1	2	397939	692	1	hit	314	0
24	Nonet	5	491	491	7	0	0	398648	692	0	correct_rejection	NA	0
24	Nonet	6	492	492	8	0	0	399357	691	0	correct_rejection	NA	0
24	Nonet	7	493	493	9	0	0	400065	692	0	correct_rejection	NA	0
24	Nonet	8	494	494	7	0	0	400774	691	0	correct_rejection	NA	0
24	Nonet	9	495	495	8	0	0	401482	692	0	correct_rejection	NA	0
24	Nonet	10	496	496	9	0	0	402191	692	0	correct_rejection	NA	0
24	Nonet	11	497	497	7	0	0	402899	692	0	correct_rejection	NA	0
24	Nonet	12	498	498	8	0	0	403608	692	0	correct_rejection	NA	0
24	Nonet	13	499	499	0	1	1	404317	691	1	hit	349	0
24	Nonet	14	500	500	9	0	0	405025	692	0	correct_rejection	NA	0
24	Nonet	15	501	501	7	0	0	405734	691	0	correct_rejection	NA	0
24	Nonet	16	502	502	0	1	1	406442	692	1	hit	486	0
24	Nonet	17	503	503	8	0	0	407151	692	0	correct_rejection	NA	0
24	Nonet	18	504	504	9	0	0	407859	692	0	correct_rejection	NA	0
24	Nonet	19	505	505	7	0	0	408568	692	0	correct_rejection	NA	0
24	Nonet	20	506	506	8	0	0	409277	691	0	correct_rejection	NA	0
24	Nonet	21	507	507	9	0	0	409985	692	0	correct_rejection	NA	0
24	Nonet	22	508	508	9	0	0	410694	691	0	correct_rejection	NA	0
24	Nonet	23	509	509	8	0	0	411402	692	0	correct_rejection	NA	0
24	Nonet	24	510	510	7	0	0	412111	692	0	correct_rejection	NA	0
24	Nonet	25	511	511	9	0	0	412819	692	0	correct_rejection	NA	0
24	Nonet	26	512	512	8	0	0	413528	692	0	correct_rejection	NA	0
24	Nonet	27	513	513	7	0	0	414237	691	0	correct_rejection	NA	0
24	Nonet	28	514	514	9	0	0	414945	692	0	correct_rejection	NA	0
24	Nonet	29	515	515	0	1	1	415654	691	1	hit	399	0
24	Nonet	30	516	516	8	0	0	416362	692	0	correct_rejection	NA	0
24	Nonet	31	517	517	7	0	0	417071	692	0	correct_rejection	NA	0
24	Nonet	32	518	518	9	0	0	417779	692	0	correct_rejection	NA	0
24	Nonet	33	519	519	8	0	0	418488	692	0	correct_rejection	NA	0
24	Nonet	34	520	520	7	0	0	419197	691	0	correct_rejection	NA	0
24	Nonet	35	521	521	9	0	0	419905	692	0	correct_rejection	NA	0
24	Nonet	36	522	522	0	1	1	420614	691	1	hit	425	0
24	Nonet	37	523	523	8	0	0	421322	692	0	correct_rejection	NA	0
24	Nonet	38	524	524	7	0	0	422031	691	0	correct_rejection	NA	0
24	Nonet	39	525	525	9	0	0	422739	692	0	correct_rejection	NA	0
24	Nonet	40	526	526	8	0	0	423448	692	0	correct_rejection	NA	0
24	Nonet	41	527	527	7	0	0	424157	691	0	correct_rejection	NA	0
24	Nonet	42	528	528	4	0	0	424865	692	0	correct_rejection	NA	0
24	Nonet	43	529	529	5	0	0	425574	691	0	correct_rejection	NA	0
24	Nonet	44	530	530	6	0	0	426282	692	0	correct_rejection	NA	0
24	Nonet	45	531	531	4	0	0	426991	691	0	correct_rejection	NA	0
24	Nonet	46	532	532	5	0	0	427699	692	0	correct_rejection	NA	0
24	Nonet	47	533	533	0	1	1	428408	692	1	hit	444	0
24	Nonet	48	534	534	6	0	0	429116	692	0	correct_rejection	NA	0
24	Nonet	49	535	535	4	0	0	429825	692	0	correct_rejection	NA	0
24	Nonet	50	536	536	5	0	0	430534	691	0	correct_rejection	NA	0
24	Nonet	51	537	537	6	0	0	431242	692	0	correct_rejection	NA	0
24	Nonet	52	538	538	6	0	0	431951	691	0	correct_rejection	NA	0
24	Nonet	53	539	539	5	0	0	432659	692	0	correct_rejection	NA	0
24	Nonet	54	540	540	4	0	0	433368	692	0	correct_rejection	NA	0
24	Nonet	55	541	541	6	0	0	434076	692	0	correct_rejection	NA	0
24	Nonet	56	542	542	5	0	0	434785	692	0	correct_rejection	NA	0
24	Nonet	57	543	543	4	0	0	435494	691	0	correct_rejection	NA	0
24	Nonet	58	544	544	6	0	0	436202	692	0	correct_rejection	NA	0
24	Nonet	59	545	545	5	0	0	436911	691	0	correct_rejection	NA	0
24	Nonet	60	546	546	4	0	0	437619	692	0	correct_rejection	NA	0
24	Nonet	61	547	547	4	0	0	438328	692	0	correct_rejection	NA	0
24	Nonet	62	548	548	5	0	0	439036	692	0	correct_rejection	NA	0
24	Nonet	63	549	549	6	0	0	439745	692	0	correct_rejection	NA	0
24	Nonet	64	550	550	4	0	0	440454	691	0	correct_rejection	NA	0
24	Nonet	65	551	551	5	0	0	441162	692	0	correct_rejection	NA	0
24	Nonet	66	552	552	6	0	0	441871	691	0	correct_rejection	NA	0
24	Nonet	67	553	553	0	1	2	442579	692	1	hit	409	0
24	Nonet	68	554	554	4	0	0	443288	692	0	correct_rejection	NA	0
24	Nonet	69	555	555	5	0	0	443996	692	0	correct_rejection	NA	0
24	Nonet	70	556	556	6	0	0	444705	692	0	correct_rejection	NA	0
24	Nonet	71	557	557	7	0	0	445414	691	0	correct_rejection	NA	0
24	Nonet	72	558	558	8	0	0	446122	692	0	correct_rejection	NA	0
24	Nonet	73	559	559	9	0	0	446831	691	0	correct_rejection	NA	0
24	Nonet	74	560	560	7	0	0	447539	692	0	correct_rejection	NA	0
24	Nonet	75	561	561	8	0	0	448248	692	0	correct_rejection	NA	0
24	Nonet	76	562	562	9	0	0	448956	692	0	correct_rejection	NA	0
24	Nonet	77	563	563	7	0	0	449665	692	0	correct_rejection	NA	0
24	Nonet	78	564	564	8	0	0	450374	691	0	correct_rejection	NA	0
24	Nonet	79	565	565	9	0	0	451082	692	0	correct_rejection	NA	0
24	Nonet	80	566	566	6	0	0	451791	691	0	correct_rejection	NA	0
24	Nonet	81	567	567	5	0	0	452499	692	0	correct_rejection	NA	0
24	Nonet	82	568	568	0	1	1	453208	691	1	hit	420	0
24	Nonet	83	569	569	4	0	0	453916	692	0	correct_rejection	NA	0
24	Nonet	84	570	570	6	0	0	454625	692	0	correct_rejection	NA	0
24	Nonet	85	571	571	5	0	0	455333	692	0	correct_rejection	NA	0
24	Nonet	86	572	572	4	0	0	456042	692	0	correct_rejection	NA	0
24	Nonet	87	573	573	0	1	2	456751	691	1	hit	528	0
24	Nonet	88	574	574	6	0	0	457459	692	0	correct_rejection	NA	0
24	Nonet	89	575	575	5	0	0	458168	691	0	correct_rejection	NA	0
24	Nonet	90	576	576	4	0	0	458876	692	0	correct_rejection	NA	0
24	Nonet	91	577	577	9	0	0	459585	692	0	correct_rejection	NA	0
24	Nonet	92	578	578	8	0	0	460293	692	0	correct_rejection	NA	0
24	Nonet	93	579	579	7	0	0	461002	692	0	correct_rejection	NA	0
24	Nonet	94	580	580	9	0	0	461711	691	0	correct_rejection	NA	0
24	Nonet	95	581	581	8	0	0	462419	692	0	correct_rejection	NA	0
24	Nonet	96	582	582	7	0	0	463128	691	0	correct_rejection	NA	0
24	Nonet	97	583	583	0	1	2	463836	692	1	hit	436	0
24	Nonet	98	584	584	9	0	0	464545	692	0	correct_rejection	NA	0
24	Nonet	99	585	585	8	0	0	465253	692	0	correct_rejection	NA	0
24	Nonet	100	586	586	7	0	0	465962	692	0	correct_rejection	NA	0
24	Nonet	101	587	587	6	0	0	466671	691	0	correct_rejection	NA	0
24	Nonet	102	588	588	5	0	0	467379	692	0	correct_rejection	NA	0
24	Nonet	103	589	589	0	1	1	468088	691	1	hit	386	0
24	Nonet	104	590	590	4	0	0	468796	692	0	correct_rejection	NA	0
24	Nonet	105	591	591	6	0	0	469505	692	0	correct_rejection	NA	0
24	Nonet	106	592	592	5	0	0	470213	692	0	correct_rejection	NA	0
24	Nonet	107	593	593	4	0	0	470922	692	0	correct_rejection	NA	0
24	Nonet	108	594	594	6	0	0	471631	691	0	correct_rejection	NA	0
24	Nonet	109	595	595	5	0	0	472339	692	0	correct_rejection	NA	0
24	Nonet	110	596	596	4	0	0	473048	691	0	correct_rejection	NA	0
24	Nonet	111	597	597	6	0	0	473756	692	0	correct_rejection	NA	0
24	Nonet	112	598	598	5	0	0	474465	692	0	correct_rejection	NA	0
24	Nonet	113	599	599	4	0	0	475173	692	0	correct_rejection	NA	0
24	Nonet	114	600	600	6	0	0	475882	692	0	correct_rejection	NA	0
24	Nonet	115	601	601	5	0	0	476591	691	0	correct_rejection	NA	0
24	Nonet	116	602	602	4	0	0	477299	692	0	correct_rejection	NA	0
24	Nonet	117	603	603	6	0	0	478008	691	0	correct_rejection	NA	0
24	Nonet	118	604	604	0	1	1	478716	692	1	hit	462	0
24	Nonet	119	605	605	5	0	0	479425	691	0	correct_rejection	NA	0
24	Nonet	120	606	606	4	0	0	480133	692	0	correct_rejection	NA	0
24	Nonet	121	607	607	7	0	0	480842	692	0	correct_rejection	NA	0
24	Nonet	122	608	608	8	0	0	481551	691	0	correct_rejection	NA	0
24	Nonet	123	609	609	0	1	1	482259	692	1	hit	467	0
24	Nonet	124	610	610	9	0	0	482968	691	0	correct_rejection	NA	0
24	Nonet	125	611	611	7	0	0	483676	692	0	correct_rejection	NA	0
24	Nonet	126	612	612	0	1	1	484385	691	1	hit	318	0
24	Nonet	127	613	613	8	0	0	485093	692	0	correct_rejection	NA	0
24	Nonet	128	614	614	9	0	0	485802	692	0	correct_rejection	NA	0
24	Nonet	129	615	615	0	1	2	486510	692	1	hit	270	0
24	Nonet	130	616	616	7	0	0	487219	692	0	correct_rejection	NA	0
24	Nonet	131	617	617	8	0	0	487928	691	0	correct_rejection	NA	0
24	Nonet	132	618	618	9	0	0	488636	692	0	correct_rejection	NA	0
24	Nonet	133	619	619	4	0	0	489345	691	0	correct_rejection	NA	0
24	Nonet	134	620	620	5	0	0	490053	692	0	correct_rejection	NA	0
24	Nonet	135	621	621	6	0	0	490762	692	0	correct_rejection	NA	0
24	Nonet	136	622	622	4	0	0	491470	692	0	correct_rejection	NA	0
24	Nonet	137	623	623	5	0	0	492179	692	0	correct_rejection	NA	0
24	Nonet	138	624	624	6	0	0	492888	691	0	correct_rejection	NA	0
24	Nonet	139	625	625	4	0	0	493596	692	0	correct_rejection	NA	0
24	Nonet	140	626	626	5	0	0	494305	691	0	correct_rejection	NA	0
24	Nonet	141	627	627	6	0	0	495013	692	0	correct_rejection	NA	0
24	Nonet	142	628	628	4	0	0	495722	692	0	correct_rejection	NA	0
24	Nonet	143	629	629	5	0	0	496430	692	0	correct_rejection	NA	0
24	Nonet	144	630	630	6	0	0	497139	692	0	correct_rejection	NA	0
24	Nonet	145	631	631	4	0	0	497848	691	0	correct_rejection	NA	0
24	Nonet	146	632	632	0	1	1	498556	692	1	hit	433	0
24	Nonet	147	633	633	5	0	0	499265	691	0	correct_rejection	NA	0
24	Nonet	148	634	634	6	0	0	499973	692	0	correct_rejection	NA	0
24	Nonet	149	635	635	0	1	2	500682	692	1	hit	432	0
24	Nonet	150	636	636	4	0	0	501390	692	0	correct_rejection	NA	0
24	Nonet	151	637	637	5	0	0	502099	692	0	correct_rejection	NA	0
24	Nonet	152	638	638	6	0	0	502808	691	0	correct_rejection	NA	0
24	Nonet	153	639	639	9	0	0	503516	692	0	correct_rejection	NA	0
24	Nonet	154	640	640	8	0	0	504225	691	0	correct_rejection	NA	0
24	Nonet	155	641	641	7	0	0	504933	692	0	correct_rejection	NA	0
24	Nonet	156	642	642	9	0	0	505642	692	0	correct_rejection	NA	0
24	Nonet	157	643	643	8	0	0	506350	692	0	correct_rejection	NA	0
24	Nonet	158	644	644	7	0	0	507059	692	0	correct_rejection	NA	0
24	Nonet	159	645	645	9	0	0	507768	691	0	correct_rejection	NA	0
24	Nonet	160	646	646	8	0	0	508476	692	0	correct_rejection	NA	0
24	Nonet	161	647	647	0	1	1	509185	691	1	hit	501	0
24	Nonet	162	648	648	7	0	0	509893	692	0	correct_rejection	NA	0
24	Triplet	1	325	649	6	0	0	518571	692	0	correct_rejection	NA	6379
24	Triplet	2	326	650	5	0	0	519280	691	0	correct_rejection	NA	0
24	Triplet	3	327	651	4	0	0	519988	692	0	correct_rejection	NA	0
24	Triplet	4	328	652	6	0	0	520697	691	0	correct_rejection	NA	0
24	Triplet	5	329	653	5	0	0	521405	692	0	correct_rejection	NA	0
24	Triplet	6	330	654	4	0	0	522114	692	0	correct_rejection	NA	0
24	Triplet	7	331	655	9	0	0	522822	692	0	correct_rejection	NA	0
24	Triplet	8	332	656	8	0	0	523531	692	0	correct_rejection	NA	0
24	Triplet	9	333	657	7	0	0	524240	691	0	correct_rejection	NA	0
24	Triplet	10	334	658	9	0	0	524948	692	0	correct_rejection	NA	0
24	Triplet	11	335	659	8	0	0	525657	691	0	correct_rejection	NA	0
24	Triplet	12	336	660	7	0	0	526365	692	0	correct_rejection	NA	0
24	Triplet	13	337	661	7	0	0	527074	692	0	correct_rejection	NA	0
24	Triplet	14	338	662	0	1	1	527782	692	1	hit	507	0
24	Triplet	15	339	663	8	0	0	528491	692	0	correct_rejection	NA	0
24	Triplet	16	340	664	9	0	0	529200	691	0	correct_rejection	NA	0
24	Triplet	17	341	665	9	0	0	529908	692	0	correct_rejection	NA	0
24	Triplet	18	342	666	8	0	0	530617	691	0	correct_rejection	NA	0
24	Triplet	19	343	667	7	0	0	531325	692	0	correct_rejection	NA	0
24	Triplet	20	344	668	6	0	0	532034	692	0	correct_rejection	NA	0
24	Triplet	21	345	669	5	0	0	532742	692	0	correct_rejection	NA	0
24	Triplet	22	346	670	4	0	0	533451	692	0	correct_rejection	NA	0
24	Triplet	23	347	671	7	0	0	534160	691	0	correct_rejection	NA	0
24	Triplet	24	348	672	8	0	0	534868	692	0	correct_rejection	NA	0
24	Triplet	25	349	673	9	0	0	535577	691	0	correct_rejection	NA	0
24	Triplet	26	350	674	4	0	0	536285	692	0	correct_rejection	NA	0
24	Triplet	27	351	675	5	0	0	536994	692	0	correct_rejection	NA	0
24	Triplet	28	352	676	6	0	0	537702	692	0	correct_rejection	NA	0
24	Triplet	29	353	677	6	0	0	538411	692	0	correct_rejection	NA	0
24	Triplet	30	354	678	0	1	1	539120	691	1	hit	396	0
24	Triplet	31	355	679	5	0	0	539828	692	0	correct_rejection	NA	0
24	Triplet	32	356	680	4	0	0	540537	691	0	correct_rejection	NA	0
24	Triplet	33	357	681	4	0	0	541245	692	0	correct_rejection	NA	0
24	Triplet	34	358	682	5	0	0	541954	692	0	correct_rejection	NA	0
24	Triplet	35	359	683	6	0	0	542662	692	0	correct_rejection	NA	0
24	Triplet	36	360	684	9	0	0	543371	692	0	correct_rejection	NA	0
24	Triplet	37	361	685	8	0	0	544080	691	0	correct_rejection	NA	0
24	Triplet	38	362	686	7	0	0	544788	692	0	correct_rejection	NA	0
24	Triplet	39	363	687	4	0	0	545497	691	0	correct_rejection	NA	0
24	Triplet	40	364	688	5	0	0	546205	692	0	correct_rejection	NA	0
24	Triplet	41	365	689	6	0	0	546914	691	0	correct_rejection	NA	0
24	Triplet	42	366	690	4	0	0	547622	692	0	correct_rejection	NA	0
24	Triplet	43	367	691	0	1	1	548331	692	1	hit	513	0
24	Triplet	44	368	692	5	0	0	549039	692	0	correct_rejection	NA	0
24	Triplet	45	369	693	6	0	0	549748	692	0	correct_rejection	NA	0
24	Triplet	46	370	694	7	0	0	550457	691	0	correct_rejection	NA	0
24	Triplet	47	371	695	8	0	0	551165	692	0	correct_rejection	NA	0
24	Triplet	48	372	696	9	0	0	551874	691	0	correct_rejection	NA	0
24	Triplet	49	373	697	7	0	0	552582	692	0	correct_rejection	NA	0
24	Triplet	50	374	698	8	0	0	553291	692	0	correct_rejection	NA	0
24	Triplet	51	375	699	9	0	0	553999	692	0	correct_rejection	NA	0
24	Triplet	52	376	700	0	1	2	554708	692	1	hit	671	0
24	Triplet	53	377	701	6	0	0	555417	691	0	correct_rejection	NA	0
24	Triplet	54	378	702	5	0	0	556125	692	0	correct_rejection	NA	0
24	Triplet	55	379	703	4	0	0	556834	691	0	correct_rejection	NA	0
24	Triplet	56	380	704	0	1	2	557542	692	1	hit	373	0
24	Triplet	57	381	705	7	0	0	558251	692	0	correct_rejection	NA	0
24	Triplet	58	382	706	8	0	0	558959	692	0	correct_rejection	NA	0
24	Triplet	59	383	707	9	0	0	559668	692	0	correct_rejection	NA	0
24	Triplet	60	384	708	9	0	0	560377	691	0	correct_rejection	NA	0
24	Triplet	61	385	709	8	0	0	561085	692	0	correct_rejection	NA	0
24	Triplet	62	386	710	7	0	0	561794	691	0	correct_rejection	NA	0
24	Triplet	63	387	711	4	0	0	562502	692	0	correct_rejection	NA	0
24	Triplet	64	388	712	5	0	0	563211	692	0	correct_rejection	NA	0
24	Triplet	65	389	713	6	0	0	563919	692	0	correct_rejection	NA	0
24	Triplet	66	390	714	7	0	0	564628	692	0	correct_rejection	NA	0
24	Triplet	67	391	715	8	0	0	565337	691	0	correct_rejection	NA	0
24	Triplet	68	392	716	0	1	1	566045	692	1	hit	647	0
24	Triplet	69	393	717	9	0	0	566754	691	0	correct_rejection	NA	0
24	Triplet	70	394	718	4	0	0	567462	692	0	correct_rejection	NA	0
24	Triplet	71	395	719	5	0	0	568171	692	0	correct_rejection	NA	0
24	Triplet	72	396	720	0	1	1	568879	692	1	hit	679	0
24	Triplet	73	397	721	6	0	0	569588	692	0	correct_rejection	NA	0
24	Triplet	74	398	722	4	0	0	570297	691	0	correct_rejection	NA	0
24	Triplet	75	399	723	0	1	1	571005	692	1	hit	345	0
24	Triplet	76	400	724	5	0	0	571714	691	0	correct_rejection	NA	0
24	Triplet	77	401	725	6	0	0	572422	692	0	correct_rejection	NA	0
24	Triplet	78	402	726	9	0	0	573131	691	0	correct_rejection	NA	0
24	Triplet	79	403	727	0	1	1	573839	692	1	hit	328	0
24	Triplet	80	404	728	8	0	0	574548	692	0	correct_rejection	NA	0
24	Triplet	81	405	729	7	0	0	575257	691	0	correct_rejection	NA	0
24	Triplet	82	406	730	9	0	0	575965	692	0	correct_rejection	NA	0
24	Triplet	83	407	731	8	0	0	576674	691	0	correct_rejection	NA	0
24	Triplet	84	408	732	7	0	0	577382	692	0	correct_rejection	NA	0
24	Triplet	85	409	733	6	0	0	578091	691	0	correct_rejection	NA	0
24	Triplet	86	410	734	5	0	0	578799	692	0	correct_rejection	NA	0
24	Triplet	87	411	735	4	0	0	579508	692	0	correct_rejection	NA	0
24	Triplet	88	412	736	4	0	0	580216	692	0	correct_rejection	NA	0
24	Triplet	89	413	737	5	0	0	580925	692	0	correct_rejection	NA	0
24	Triplet	90	414	738	6	0	0	581634	691	0	correct_rejection	NA	0
24	Triplet	91	415	739	6	0	0	582342	692	0	correct_rejection	NA	0
24	Triplet	92	416	740	5	0	0	583051	691	0	correct_rejection	NA	0
24	Triplet	93	417	741	4	0	0	583759	692	0	correct_rejection	NA	0
24	Triplet	94	418	742	9	0	0	584468	692	0	correct_rejection	NA	0
24	Triplet	95	419	743	8	0	0	585176	692	0	correct_rejection	NA	0
24	Triplet	96	420	744	7	0	0	585885	692	0	correct_rejection	NA	0
24	Triplet	97	421	745	0	1	2	586594	691	1	hit	379	0
24	Triplet	98	422	746	7	0	0	587302	692	0	correct_rejection	NA	0
24	Triplet	99	423	747	8	0	0	588011	691	0	correct_rejection	NA	0
24	Triplet	100	424	748	9	0	0	588719	692	0	correct_rejection	NA	0
24	Triplet	101	425	749	7	0	0	589428	692	0	correct_rejection	NA	0
24	Triplet	102	426	750	8	0	0	590136	692	0	correct_rejection	NA	0
24	Triplet	103	427	751	9	0	0	590845	692	0	correct_rejection	NA	0
24	Triplet	104	428	752	6	0	0	591554	691	0	correct_rejection	NA	0
24	Triplet	105	429	753	5	0	0	592262	692	0	correct_rejection	NA	0
24	Triplet	106	430	754	4	0	0	592971	691	0	correct_rejection	NA	0
24	Triplet	107	431	755	0	1	2	593679	692	1	hit	442	0
24	Triplet	108	432	756	6	0	0	594388	692	0	correct_rejection	NA	0
24	Triplet	109	433	757	5	0	0	595096	692	0	correct_rejection	NA	0
24	Triplet	110	434	758	0	1	1	595805	692	1	hit	397	0
24	Triplet	111	435	759	4	0	0	596514	691	0	correct_rejection	NA	0
24	Triplet	112	436	760	9	0	0	597222	692	0	correct_rejection	NA	0
24	Triplet	113	437	761	8	0	0	597931	691	0	correct_rejection	NA	0
24	Triplet	114	438	762	7	0	0	598639	692	0	correct_rejection	NA	0
24	Triplet	115	439	763	4	0	0	599348	692	0	correct_rejection	NA	0
24	Triplet	116	440	764	5	0	0	600056	692	0	correct_rejection	NA	0
24	Triplet	117	441	765	6	0	0	600765	692	0	correct_rejection	NA	0
24	Triplet	118	442	766	9	0	0	601474	691	0	correct_rejection	NA	0
24	Triplet	119	443	767	8	0	0	602182	692	0	correct_rejection	NA	0
24	Triplet	120	444	768	7	0	0	602891	691	0	correct_rejection	NA	0
24	Triplet	121	445	769	7	0	0	603599	692	0	correct_rejection	NA	0
24	Triplet	122	446	770	8	0	0	604308	691	0	correct_rejection	NA	0
24	Triplet	123	447	771	9	0	0	605016	692	0	correct_rejection	NA	0
24	Triplet	124	448	772	6	0	0	605725	692	0	correct_rejection	NA	0
24	Triplet	125	449	773	5	0	0	606433	692	0	correct_rejection	NA	0
24	Triplet	126	450	774	4	0	0	607142	692	0	correct_rejection	NA	0
24	Triplet	127	451	775	4	0	0	607851	691	0	correct_rejection	NA	0
24	Triplet	128	452	776	0	1	1	608559	692	0	miss	NA	0
24	Triplet	129	453	777	5	0	0	609268	691	1	false_alarm	114	0
24	Triplet	130	454	778	6	0	0	609976	692	0	correct_rejection	NA	0
24	Triplet	131	455	779	0	1	2	610685	692	1	hit	391	0
24	Triplet	132	456	780	4	0	0	611393	692	0	correct_rejection	NA	0
24	Triplet	133	457	781	5	0	0	612102	692	0	correct_rejection	NA	0
24	Triplet	134	458	782	6	0	0	612811	691	0	correct_rejection	NA	0
24	Triplet	135	459	783	6	0	0	613519	692	0	correct_rejection	NA	0
24	Triplet	136	460	784	5	0	0	614228	691	0	correct_rejection	NA	0
24	Triplet	137	461	785	4	0	0	614936	692	0	correct_rejection	NA	0
24	Triplet	138	462	786	6	0	0	615645	692	0	correct_rejection	NA	0
24	Triplet	139	463	787	5	0	0	616353	692	0	correct_rejection	NA	0
24	Triplet	140	464	788	0	1	1	617062	692	1	hit	457	0
24	Triplet	141	465	789	4	0	0	617771	691	0	correct_rejection	NA	0
24	Triplet	142	466	790	7	0	0	618479	692	0	correct_rejection	NA	0
24	Triplet	143	467	791	8	0	0	619188	691	0	correct_rejection	NA	0
24	Triplet	144	468	792	9	0	0	619896	692	0	correct_rejection	NA	0
24	Triplet	145	469	793	7	0	0	620605	692	0	correct_rejection	NA	0
24	Triplet	146	470	794	8	0	0	621313	692	0	correct_rejection	NA	0
24	Triplet	147	471	795	9	0	0	622022	692	0	correct_rejection	NA	0
24	Triplet	148	472	796	4	0	0	622731	691	0	correct_rejection	NA	0
24	Triplet	149	473	797	5	0	0	623439	692	0	correct_rejection	NA	0
24	Triplet	150	474	798	6	0	0	624148	691	0	correct_rejection	NA	0
24	Triplet	151	475	799	0	1	2	624856	692	1	hit	358	0
24	Triplet	152	476	800	7	0	0	625565	692	0	correct_rejection	NA	0
24	Triplet	153	477	801	8	0	0	626273	692	0	correct_rejection	NA	0
24	Triplet	154	478	802	0	1	1	626982	692	1	hit	370	0
24	Triplet	155	479	803	9	0	0	627691	691	0	correct_rejection	NA	0
24	Triplet	156	480	804	9	0	0	628399	692	0	correct_rejection	NA	0
24	Triplet	157	481	805	8	0	0	629108	691	0	correct_rejection	NA	0
24	Triplet	158	482	806	7	0	0	629816	692	0	correct_rejection	NA	0
24	Triplet	159	483	807	9	0	0	630525	692	0	correct_rejection	NA	0
24	Triplet	160	484	808	0	1	1	631233	692	1	hit	473	0
24	Triplet	161	485	809	8	0	0	631942	692	0	correct_rejection	NA	0
24	Triplet	162	486	810	7	0	0	632651	691	0	correct_rejection	NA	0
trigger nr 625 at 635153
trigger nr 630 at 712155
24	Nonet	1	1	811	9	0	0	718621	691	0	correct_rejection	NA	6429
24	Nonet	2	2	812	8	0	0	719329	692	0	correct_rejection	NA	0
24	Nonet	3	3	813	7	0	0	720038	691	0	correct_rejection	NA	0
24	Nonet	4	4	814	9	0	0	720746	692	0	correct_rejection	NA	0
24	Nonet	5	5	815	8	0	0	721455	692	0	correct_rejection	NA	0
24	Nonet	6	6	816	7	0	0	722163	692	0	correct_rejection	NA	0
24	Nonet	7	7	817	9	0	0	722872	692	0	correct_rejection	NA	0
24	Nonet	8	8	818	8	0	0	723581	691	0	correct_rejection	NA	0
24	Nonet	9	9	819	7	0	0	724289	692	0	correct_rejection	NA	0
24	Nonet	10	10	820	6	0	0	724998	691	0	correct_rejection	NA	0
24	Nonet	11	11	821	5	0	0	725706	692	0	correct_rejection	NA	0
24	Nonet	12	12	822	4	0	0	726415	692	0	correct_rejection	NA	0
24	Nonet	13	13	823	6	0	0	727123	692	0	correct_rejection	NA	0
24	Nonet	14	14	824	5	0	0	727832	692	0	correct_rejection	NA	0
24	Nonet	15	15	825	4	0	0	728541	691	0	correct_rejection	NA	0
24	Nonet	16	16	826	6	0	0	729249	692	0	correct_rejection	NA	0
24	Nonet	17	17	827	0	1	1	729958	691	1	hit	367	0
24	Nonet	18	18	828	5	0	0	730666	692	0	correct_rejection	NA	0
24	Nonet	19	19	829	4	0	0	731375	692	0	correct_rejection	NA	0
24	Nonet	20	20	830	6	0	0	732083	692	0	correct_rejection	NA	0
24	Nonet	21	21	831	5	0	0	732792	692	0	correct_rejection	NA	0
24	Nonet	22	22	832	0	1	1	733501	691	1	hit	350	0
24	Nonet	23	23	833	4	0	0	734209	692	0	correct_rejection	NA	0
24	Nonet	24	24	834	6	0	0	734918	691	0	correct_rejection	NA	0
24	Nonet	25	25	835	5	0	0	735626	692	0	correct_rejection	NA	0
24	Nonet	26	26	836	4	0	0	736335	692	0	correct_rejection	NA	0
24	Nonet	27	27	837	6	0	0	737043	692	0	correct_rejection	NA	0
24	Nonet	28	28	838	5	0	0	737752	692	0	correct_rejection	NA	0
24	Nonet	29	29	839	4	0	0	738461	691	0	correct_rejection	NA	0
24	Nonet	30	30	840	9	0	0	739169	692	0	correct_rejection	NA	0
24	Nonet	31	31	841	8	0	0	739878	691	0	correct_rejection	NA	0
24	Nonet	32	32	842	0	1	1	740586	692	1	hit	323	0
24	Nonet	33	33	843	7	0	0	741295	691	0	correct_rejection	NA	0
24	Nonet	34	34	844	9	0	0	742003	692	0	correct_rejection	NA	0
24	Nonet	35	35	845	8	0	0	742712	692	0	correct_rejection	NA	0
24	Nonet	36	36	846	7	0	0	743421	691	0	correct_rejection	NA	0
24	Nonet	37	37	847	9	0	0	744129	692	0	correct_rejection	NA	0
24	Nonet	38	38	848	8	0	0	744838	691	0	correct_rejection	NA	0
24	Nonet	39	39	849	7	0	0	745546	692	0	correct_rejection	NA	0
24	Nonet	40	40	850	4	0	0	746255	691	0	correct_rejection	NA	0
24	Nonet	41	41	851	5	0	0	746963	692	0	correct_rejection	NA	0
24	Nonet	42	42	852	6	0	0	747672	692	0	correct_rejection	NA	0
24	Nonet	43	43	853	0	1	2	748380	692	1	hit	364	0
24	Nonet	44	44	854	4	0	0	749089	692	0	correct_rejection	NA	0
24	Nonet	45	45	855	5	0	0	749798	691	0	correct_rejection	NA	0
24	Nonet	46	46	856	6	0	0	750506	692	0	correct_rejection	NA	0
24	Nonet	47	47	857	0	1	2	751215	691	1	hit	516	0
24	Nonet	48	48	858	4	0	0	751923	692	0	correct_rejection	NA	0
24	Nonet	49	49	859	5	0	0	752632	692	0	correct_rejection	NA	0
24	Nonet	50	50	860	6	0	0	753340	692	0	correct_rejection	NA	0
24	Nonet	51	51	861	4	0	0	754049	692	0	correct_rejection	NA	0
24	Nonet	52	52	862	5	0	0	754758	691	0	correct_rejection	NA	0
24	Nonet	53	53	863	0	1	1	755466	692	1	hit	360	0
24	Nonet	54	54	864	6	0	0	756175	691	0	correct_rejection	NA	0
24	Nonet	55	55	865	4	0	0	756883	692	0	correct_rejection	NA	0
24	Nonet	56	56	866	5	0	0	757592	692	0	correct_rejection	NA	0
24	Nonet	57	57	867	6	0	0	758300	692	0	correct_rejection	NA	0
24	Nonet	58	58	868	4	0	0	759009	692	0	correct_rejection	NA	0
24	Nonet	59	59	869	5	0	0	759718	691	0	correct_rejection	NA	0
24	Nonet	60	60	870	6	0	0	760426	692	0	correct_rejection	NA	0
24	Nonet	61	61	871	7	0	0	761135	691	0	correct_rejection	NA	0
24	Nonet	62	62	872	8	0	0	761843	692	0	correct_rejection	NA	0
24	Nonet	63	63	873	9	0	0	762552	692	0	correct_rejection	NA	0
24	Nonet	64	64	874	7	0	0	763260	692	0	correct_rejection	NA	0
24	Nonet	65	65	875	8	0	0	763969	692	0	correct_rejection	NA	0
24	Nonet	66	66	876	0	1	1	764678	691	1	hit	382	0
24	Nonet	67	67	877	9	0	0	765386	692	0	correct_rejection	NA	0
24	Nonet	68	68	878	7	0	0	766095	691	0	correct_rejection	NA	0
24	Nonet	69	69	879	8	0	0	766803	692	0	correct_rejection	NA	0
24	Nonet	70	70	880	9	0	0	767512	692	0	correct_rejection	NA	0
24	Nonet	71	71	881	4	0	0	768220	692	0	correct_rejection	NA	0
24	Nonet	72	72	882	5	0	0	768929	692	0	correct_rejection	NA	0
24	Nonet	73	73	883	6	0	0	769638	691	0	correct_rejection	NA	0
24	Nonet	74	74	884	4	0	0	770346	692	0	correct_rejection	NA	0
24	Nonet	75	75	885	5	0	0	771055	691	0	correct_rejection	NA	0
24	Nonet	76	76	886	6	0	0	771763	692	0	correct_rejection	NA	0
24	Nonet	77	77	887	4	0	0	772472	691	0	correct_rejection	NA	0
24	Nonet	78	78	888	5	0	0	773180	692	0	correct_rejection	NA	0
24	Nonet	79	79	889	6	0	0	773889	692	0	correct_rejection	NA	0
24	Nonet	80	80	890	9	0	0	774597	692	0	correct_rejection	NA	0
24	Nonet	81	81	891	8	0	0	775306	692	0	correct_rejection	NA	0
24	Nonet	82	82	892	0	1	1	776015	691	1	hit	495	0
24	Nonet	83	83	893	7	0	0	776723	692	0	correct_rejection	NA	0
24	Nonet	84	84	894	9	0	0	777432	691	0	correct_rejection	NA	0
24	Nonet	85	85	895	8	0	0	778140	692	0	correct_rejection	NA	0
24	Nonet	86	86	896	0	1	1	778849	692	1	hit	400	0
24	Nonet	87	87	897	7	0	0	779557	692	0	correct_rejection	NA	0
24	Nonet	88	88	898	9	0	0	780266	692	0	correct_rejection	NA	0
24	Nonet	89	89	899	8	0	0	780975	691	0	correct_rejection	NA	0
24	Nonet	90	90	900	7	0	0	781683	692	0	correct_rejection	NA	0
24	Nonet	91	91	901	0	1	3	782392	691	1	hit	452	0
24	Nonet	92	92	902	9	0	0	783100	692	0	correct_rejection	NA	0
24	Nonet	93	93	903	8	0	0	783809	692	0	correct_rejection	NA	0
24	Nonet	94	94	904	7	0	0	784517	692	0	correct_rejection	NA	0
24	Nonet	95	95	905	9	0	0	785226	692	0	correct_rejection	NA	0
24	Nonet	96	96	906	8	0	0	785935	691	0	correct_rejection	NA	0
24	Nonet	97	97	907	7	0	0	786643	692	0	correct_rejection	NA	0
24	Nonet	98	98	908	9	0	0	787352	691	0	correct_rejection	NA	0
24	Nonet	99	99	909	8	0	0	788060	692	0	correct_rejection	NA	0
24	Nonet	100	100	910	7	0	0	788769	692	0	correct_rejection	NA	0
24	Nonet	101	101	911	7	0	0	789477	692	0	correct_rejection	NA	0
24	Nonet	102	102	912	0	1	1	790186	692	1	hit	429	0
24	Nonet	103	103	913	8	0	0	790895	691	0	correct_rejection	NA	0
24	Nonet	104	104	914	9	0	0	791603	692	0	correct_rejection	NA	0
24	Nonet	105	105	915	7	0	0	792312	691	0	correct_rejection	NA	0
24	Nonet	106	106	916	8	0	0	793020	692	0	correct_rejection	NA	0
24	Nonet	107	107	917	9	0	0	793729	692	0	correct_rejection	NA	0
24	Nonet	108	108	918	7	0	0	794437	692	0	correct_rejection	NA	0
24	Nonet	109	109	919	8	0	0	795146	692	0	correct_rejection	NA	0
24	Nonet	110	110	920	9	0	0	795855	691	0	correct_rejection	NA	0
24	Nonet	111	111	921	6	0	0	796563	692	0	correct_rejection	NA	0
24	Nonet	112	112	922	5	0	0	797272	691	0	correct_rejection	NA	0
24	Nonet	113	113	923	0	1	1	797980	692	1	hit	500	0
24	Nonet	114	114	924	4	0	0	798689	691	0	correct_rejection	NA	0
24	Nonet	115	115	925	6	0	0	799397	692	0	correct_rejection	NA	0
24	Nonet	116	116	926	5	0	0	800106	692	0	correct_rejection	NA	0
24	Nonet	117	117	927	4	0	0	800814	692	0	correct_rejection	NA	0
24	Nonet	118	118	928	0	1	2	801523	692	1	hit	374	0
24	Nonet	119	119	929	6	0	0	802232	691	0	correct_rejection	NA	0
24	Nonet	120	120	930	5	0	0	802940	692	0	correct_rejection	NA	0
24	Nonet	121	121	931	4	0	0	803649	691	0	correct_rejection	NA	0
24	Nonet	122	122	932	4	0	0	804357	692	0	correct_rejection	NA	0
24	Nonet	123	123	933	5	0	0	805066	692	0	correct_rejection	NA	0
24	Nonet	124	124	934	6	0	0	805774	692	0	correct_rejection	NA	0
24	Nonet	125	125	935	4	0	0	806483	692	0	correct_rejection	NA	0
24	Nonet	126	126	936	5	0	0	807192	691	0	correct_rejection	NA	0
24	Nonet	127	127	937	0	1	1	807900	692	1	hit	383	0
24	Nonet	128	128	938	6	0	0	808609	691	0	correct_rejection	NA	0
24	Nonet	129	129	939	4	0	0	809317	692	0	correct_rejection	NA	0
24	Nonet	130	130	940	0	1	1	810026	692	1	hit	482	0
24	Nonet	131	131	941	5	0	0	810734	692	0	correct_rejection	NA	0
24	Nonet	132	132	942	6	0	0	811443	692	0	correct_rejection	NA	0
24	Nonet	133	133	943	6	0	0	812152	691	0	correct_rejection	NA	0
24	Nonet	134	134	944	5	0	0	812860	692	0	correct_rejection	NA	0
24	Nonet	135	135	945	4	0	0	813569	691	0	correct_rejection	NA	0
24	Nonet	136	136	946	6	0	0	814277	692	0	correct_rejection	NA	0
24	Nonet	137	137	947	5	0	0	814986	692	0	correct_rejection	NA	0
24	Nonet	138	138	948	4	0	0	815694	692	0	correct_rejection	NA	0
24	Nonet	139	139	949	6	0	0	816403	692	0	correct_rejection	NA	0
24	Nonet	140	140	950	5	0	0	817112	691	0	correct_rejection	NA	0
24	Nonet	141	141	951	4	0	0	817820	692	0	correct_rejection	NA	0
24	Nonet	142	142	952	7	0	0	818529	691	0	correct_rejection	NA	0
24	Nonet	143	143	953	8	0	0	819237	692	0	correct_rejection	NA	0
24	Nonet	144	144	954	0	1	1	819946	692	1	hit	425	0
24	Nonet	145	145	955	9	0	0	820654	692	0	correct_rejection	NA	0
24	Nonet	146	146	956	7	0	0	821363	692	0	correct_rejection	NA	0
24	Nonet	147	147	957	8	0	0	822072	691	0	correct_rejection	NA	0
24	Nonet	148	148	958	9	0	0	822780	692	0	correct_rejection	NA	0
24	Nonet	149	149	959	0	1	2	823489	691	1	hit	473	0
24	Nonet	150	150	960	7	0	0	824197	692	0	correct_rejection	NA	0
24	Nonet	151	151	961	8	0	0	824906	692	0	correct_rejection	NA	0
24	Nonet	152	152	962	9	0	0	825614	692	0	correct_rejection	NA	0
24	Nonet	153	153	963	7	0	0	826323	692	0	correct_rejection	NA	0
24	Nonet	154	154	964	8	0	0	827032	691	0	correct_rejection	NA	0
24	Nonet	155	155	965	9	0	0	827740	692	0	correct_rejection	NA	0
24	Nonet	156	156	966	7	0	0	828449	691	0	correct_rejection	NA	0
24	Nonet	157	157	967	8	0	0	829157	692	1	false_alarm	434	0
24	Nonet	158	158	968	9	0	0	829866	691	0	correct_rejection	NA	0
24	Nonet	159	159	969	0	1	2	830574	692	1	hit	537	0
24	Nonet	160	160	970	7	0	0	831283	692	0	correct_rejection	NA	0
24	Nonet	161	161	971	8	0	0	831991	692	0	correct_rejection	NA	0
24	Nonet	162	162	972	9	0	0	832700	692	0	correct_rejection	NA	0
24	Correct	1	487	973	4	0	0	842903	692	0	correct_rejection	NA	7709
24	Correct	2	488	974	5	0	0	843612	692	0	correct_rejection	NA	0
24	Correct	3	489	975	6	0	0	844321	691	0	correct_rejection	NA	0
24	Correct	4	490	976	4	0	0	845029	692	0	correct_rejection	NA	0
24	Correct	5	491	977	0	1	1	845738	691	1	hit	551	0
24	Correct	6	492	978	5	0	0	846446	692	0	correct_rejection	NA	0
24	Correct	7	493	979	6	0	0	847155	692	0	correct_rejection	NA	0
24	Correct	8	494	980	0	1	2	847863	692	1	hit	384	0
24	Correct	9	495	981	4	0	0	848572	692	0	correct_rejection	NA	0
24	Correct	10	496	982	5	0	0	849281	691	0	correct_rejection	NA	0
24	Correct	11	497	983	6	0	0	849989	692	0	correct_rejection	NA	0
24	Correct	12	498	984	6	0	0	850698	691	0	correct_rejection	NA	0
24	Correct	13	499	985	5	0	0	851406	692	0	correct_rejection	NA	0
24	Correct	14	500	986	4	0	0	852115	692	0	correct_rejection	NA	0
24	Correct	15	501	987	0	1	2	852823	692	1	hit	330	0
24	Correct	16	502	988	6	0	0	853532	692	0	correct_rejection	NA	0
24	Correct	17	503	989	5	0	0	854241	691	0	correct_rejection	NA	0
24	Correct	18	504	990	4	0	0	854949	692	0	correct_rejection	NA	0
24	Correct	19	505	991	6	0	0	855658	691	0	correct_rejection	NA	0
24	Correct	20	506	992	0	1	1	856366	692	1	hit	396	0
24	Correct	21	507	993	5	0	0	857075	691	0	correct_rejection	NA	0
24	Correct	22	508	994	4	0	0	857783	692	0	correct_rejection	NA	0
24	Correct	23	509	995	9	0	0	858492	692	0	correct_rejection	NA	0
24	Correct	24	510	996	8	0	0	859200	692	0	correct_rejection	NA	0
24	Correct	25	511	997	7	0	0	859909	692	0	correct_rejection	NA	0
24	Correct	26	512	998	9	0	0	860618	691	0	correct_rejection	NA	0
24	Correct	27	513	999	0	1	1	861326	692	1	hit	375	0
24	Correct	28	514	1000	8	0	0	862035	691	0	correct_rejection	NA	0
24	Correct	29	515	1001	7	0	0	862743	692	0	correct_rejection	NA	0
24	Correct	30	516	1002	9	0	0	863452	692	0	correct_rejection	NA	0
24	Correct	31	517	1003	8	0	0	864160	692	0	correct_rejection	NA	0
24	Correct	32	518	1004	0	1	1	864869	692	1	hit	416	0
24	Correct	33	519	1005	7	0	0	865578	691	0	correct_rejection	NA	0
24	Correct	34	520	1006	7	0	0	866286	692	0	correct_rejection	NA	0
24	Correct	35	521	1007	8	0	0	866995	691	0	correct_rejection	NA	0
24	Correct	36	522	1008	9	0	0	867703	692	0	correct_rejection	NA	0
24	Correct	37	523	1009	7	0	0	868412	692	0	correct_rejection	NA	0
24	Correct	38	524	1010	8	0	0	869120	692	0	correct_rejection	NA	0
24	Correct	39	525	1011	9	0	0	869829	692	0	correct_rejection	NA	0
24	Correct	40	526	1012	7	0	0	870538	691	0	correct_rejection	NA	0
24	Correct	41	527	1013	8	0	0	871246	692	0	correct_rejection	NA	0
24	Correct	42	528	1014	9	0	0	871955	691	0	correct_rejection	NA	0
24	Correct	43	529	1015	4	0	0	872663	692	0	correct_rejection	NA	0
24	Correct	44	530	1016	5	0	0	873372	692	0	correct_rejection	NA	0
24	Correct	45	531	1017	6	0	0	874080	692	0	correct_rejection	NA	0
24	Correct	46	532	1018	4	0	0	874789	692	0	correct_rejection	NA	0
24	Correct	47	533	1019	5	0	0	875498	691	0	correct_rejection	NA	0
24	Correct	48	534	1020	6	0	0	876206	692	0	correct_rejection	NA	0
24	Correct	49	535	1021	4	0	0	876915	691	0	correct_rejection	NA	0
24	Correct	50	536	1022	5	0	0	877623	692	0	correct_rejection	NA	0
24	Correct	51	537	1023	0	1	1	878332	692	1	hit	466	0
24	Correct	52	538	1024	6	0	0	879040	692	0	correct_rejection	NA	0
24	Correct	53	539	1025	6	0	0	879749	692	0	correct_rejection	NA	0
24	Correct	54	540	1026	5	0	0	880458	691	0	correct_rejection	NA	0
24	Correct	55	541	1027	4	0	0	881166	692	0	correct_rejection	NA	0
24	Correct	56	542	1028	6	0	0	881875	691	0	correct_rejection	NA	0
24	Correct	57	543	1029	5	0	0	882583	692	0	correct_rejection	NA	0
24	Correct	58	544	1030	4	0	0	883292	691	0	correct_rejection	NA	0
24	Correct	59	545	1031	0	1	2	884000	692	1	hit	589	0
24	Correct	60	546	1032	6	0	0	884709	692	0	correct_rejection	NA	0
24	Correct	61	547	1033	5	0	0	885417	692	0	correct_rejection	NA	0
24	Correct	62	548	1034	0	1	1	886126	692	1	hit	392	0
24	Correct	63	549	1035	4	0	0	886835	691	0	correct_rejection	NA	0
24	Correct	64	550	1036	9	0	0	887543	692	0	correct_rejection	NA	0
24	Correct	65	551	1037	0	1	1	888252	691	1	hit	387	0
24	Correct	66	552	1038	8	0	0	888960	692	0	correct_rejection	NA	0
24	Correct	67	553	1039	7	0	0	889669	692	0	correct_rejection	NA	0
24	Correct	68	554	1040	9	0	0	890377	692	0	correct_rejection	NA	0
24	Correct	69	555	1041	8	0	0	891086	692	0	correct_rejection	NA	0
24	Correct	70	556	1042	0	1	1	891795	691	1	hit	333	0
24	Correct	71	557	1043	7	0	0	892503	692	0	correct_rejection	NA	0
24	Correct	72	558	1044	9	0	0	893212	691	0	correct_rejection	NA	0
24	Correct	73	559	1045	8	0	0	893920	692	0	correct_rejection	NA	0
24	Correct	74	560	1046	7	0	0	894629	692	0	correct_rejection	NA	0
24	Correct	75	561	1047	7	0	0	895337	692	0	correct_rejection	NA	0
24	Correct	76	562	1048	8	0	0	896046	692	0	correct_rejection	NA	0
24	Correct	77	563	1049	9	0	0	896755	691	0	correct_rejection	NA	0
24	Correct	78	564	1050	7	0	0	897463	692	0	correct_rejection	NA	0
24	Correct	79	565	1051	8	0	0	898172	691	0	correct_rejection	NA	0
24	Correct	80	566	1052	9	0	0	898880	692	0	correct_rejection	NA	0
24	Correct	81	567	1053	7	0	0	899589	692	0	correct_rejection	NA	0
24	Correct	82	568	1054	8	0	0	900297	692	0	correct_rejection	NA	0
24	Correct	83	569	1055	9	0	0	901006	692	0	correct_rejection	NA	0
24	Correct	84	570	1056	4	0	0	901715	691	0	correct_rejection	NA	0
24	Correct	85	571	1057	5	0	0	902423	692	0	correct_rejection	NA	0
24	Correct	86	572	1058	6	0	0	903132	691	0	correct_rejection	NA	0
24	Correct	87	573	1059	4	0	0	903840	692	0	correct_rejection	NA	0
24	Correct	88	574	1060	5	0	0	904549	692	0	correct_rejection	NA	0
24	Correct	89	575	1061	0	1	1	905257	692	1	hit	540	0
24	Correct	90	576	1062	6	0	0	905966	692	0	correct_rejection	NA	0
24	Correct	91	577	1063	4	0	0	906675	691	0	correct_rejection	NA	0
24	Correct	92	578	1064	5	0	0	907383	692	0	correct_rejection	NA	0
24	Correct	93	579	1065	6	0	0	908092	691	0	correct_rejection	NA	0
24	Correct	94	580	1066	6	0	0	908800	692	0	correct_rejection	NA	0
24	Correct	95	581	1067	0	1	1	909509	691	1	hit	389	0
24	Correct	96	582	1068	5	0	0	910217	692	0	correct_rejection	NA	0
24	Correct	97	583	1069	4	0	0	910926	692	0	correct_rejection	NA	0
24	Correct	98	584	1070	6	0	0	911635	691	0	correct_rejection	NA	0
24	Correct	99	585	1071	5	0	0	912343	692	0	correct_rejection	NA	0
24	Correct	100	586	1072	4	0	0	913052	691	0	correct_rejection	NA	0
24	Correct	101	587	1073	6	0	0	913760	692	0	correct_rejection	NA	0
24	Correct	102	588	1074	5	0	0	914469	691	0	correct_rejection	NA	0
24	Correct	103	589	1075	4	0	0	915177	692	0	correct_rejection	NA	0
24	Correct	104	590	1076	9	0	0	915886	692	0	correct_rejection	NA	0
24	Correct	105	591	1077	8	0	0	916594	692	0	correct_rejection	NA	0
24	Correct	106	592	1078	7	0	0	917303	692	0	correct_rejection	NA	0
24	Correct	107	593	1079	9	0	0	918012	691	0	correct_rejection	NA	0
24	Correct	108	594	1080	8	0	0	918720	692	0	correct_rejection	NA	0
24	Correct	109	595	1081	7	0	0	919429	691	0	correct_rejection	NA	0
24	Correct	110	596	1082	9	0	0	920137	692	0	correct_rejection	NA	0
24	Correct	111	597	1083	8	0	0	920846	692	0	correct_rejection	NA	0
24	Correct	112	598	1084	7	0	0	921554	692	0	correct_rejection	NA	0
24	Correct	113	599	1085	7	0	0	922263	692	0	correct_rejection	NA	0
24	Correct	114	600	1086	8	0	0	922972	691	0	correct_rejection	NA	0
24	Correct	115	601	1087	0	1	1	923680	692	1	hit	372	0
24	Correct	116	602	1088	9	0	0	924389	691	0	correct_rejection	NA	0
24	Correct	117	603	1089	7	0	0	925097	692	0	correct_rejection	NA	0
24	Correct	118	604	1090	8	0	0	925806	692	0	correct_rejection	NA	0
24	Correct	119	605	1091	9	0	0	926514	692	0	correct_rejection	NA	0
24	Correct	120	606	1092	7	0	0	927223	692	0	correct_rejection	NA	0
24	Correct	121	607	1093	8	0	0	927932	691	0	correct_rejection	NA	0
24	Correct	122	608	1094	9	0	0	928640	692	0	correct_rejection	NA	0
24	Correct	123	609	1095	0	1	4	929349	691	1	hit	349	0
24	Correct	124	610	1096	4	0	0	930057	692	0	correct_rejection	NA	0
24	Correct	125	611	1097	5	0	0	930766	692	0	correct_rejection	NA	0
24	Correct	126	612	1098	6	0	0	931474	692	0	correct_rejection	NA	0
24	Correct	127	613	1099	4	0	0	932183	692	0	correct_rejection	NA	0
24	Correct	128	614	1100	5	0	0	932892	691	0	correct_rejection	NA	0
24	Correct	129	615	1101	6	0	0	933600	692	0	correct_rejection	NA	0
24	Correct	130	616	1102	0	1	2	934309	691	1	hit	382	0
24	Correct	131	617	1103	4	0	0	935017	692	0	correct_rejection	NA	0
24	Correct	132	618	1104	5	0	0	935726	692	0	correct_rejection	NA	0
24	Correct	133	619	1105	6	0	0	936434	692	0	correct_rejection	NA	0
24	Correct	134	620	1106	6	0	0	937143	692	0	correct_rejection	NA	0
24	Correct	135	621	1107	5	0	0	937852	691	0	correct_rejection	NA	0
24	Correct	136	622	1108	4	0	0	938560	692	0	correct_rejection	NA	0
24	Correct	137	623	1109	6	0	0	939269	691	0	correct_rejection	NA	0
24	Correct	138	624	1110	5	0	0	939977	692	0	correct_rejection	NA	0
24	Correct	139	625	1111	0	1	1	940686	692	1	hit	414	0
24	Correct	140	626	1112	4	0	0	941394	692	0	correct_rejection	NA	0
24	Correct	141	627	1113	6	0	0	942103	692	0	correct_rejection	NA	0
24	Correct	142	628	1114	5	0	0	942811	692	0	correct_rejection	NA	0
24	Correct	143	629	1115	4	0	0	943520	692	0	correct_rejection	NA	0
24	Correct	144	630	1116	0	1	3	944229	691	1	hit	412	0
24	Correct	145	631	1117	9	0	0	944937	692	0	correct_rejection	NA	0
24	Correct	146	632	1118	8	0	0	945646	691	0	correct_rejection	NA	0
24	Correct	147	633	1119	7	0	0	946354	692	0	correct_rejection	NA	0
24	Correct	148	634	1120	9	0	0	947063	692	0	correct_rejection	NA	0
24	Correct	149	635	1121	8	0	0	947771	692	0	correct_rejection	NA	0
24	Correct	150	636	1122	7	0	0	948480	692	0	correct_rejection	NA	0
24	Correct	151	637	1123	9	0	0	949189	691	0	correct_rejection	NA	0
24	Correct	152	638	1124	8	0	0	949897	692	0	correct_rejection	NA	0
24	Correct	153	639	1125	7	0	0	950606	691	0	correct_rejection	NA	0
24	Correct	154	640	1126	7	0	0	951314	692	0	correct_rejection	NA	0
24	Correct	155	641	1127	8	0	0	952023	692	0	correct_rejection	NA	0
24	Correct	156	642	1128	9	0	0	952731	692	0	correct_rejection	NA	0
24	Correct	157	643	1129	7	0	0	953440	692	0	correct_rejection	NA	0
24	Correct	158	644	1130	8	0	0	954149	691	0	correct_rejection	NA	0
24	Correct	159	645	1131	9	0	0	954857	692	0	correct_rejection	NA	0
24	Correct	160	646	1132	7	0	0	955566	691	0	correct_rejection	NA	0
24	Correct	161	647	1133	8	0	0	956274	692	0	correct_rejection	NA	0
24	Correct	162	648	1134	9	0	0	956983	692	0	correct_rejection	NA	0
24	Single	1	163	1135	8	0	0	966186	692	0	correct_rejection	NA	6999
24	Single	2	164	1136	6	0	0	966894	692	0	correct_rejection	NA	0
24	Single	3	165	1137	7	0	0	967603	692	0	correct_rejection	NA	0
24	Single	4	166	1138	5	0	0	968312	691	0	correct_rejection	NA	0
24	Single	5	167	1139	0	1	1	969020	692	1	hit	435	0
24	Single	6	168	1140	5	0	0	969729	691	0	correct_rejection	NA	0
24	Single	7	169	1141	7	0	0	970437	692	0	correct_rejection	NA	0
24	Single	8	170	1142	6	0	0	971146	692	0	correct_rejection	NA	0
24	Single	9	171	1143	0	1	1	971854	692	1	hit	368	0
24	Single	10	172	1144	8	0	0	972563	692	0	correct_rejection	NA	0
24	Single	11	173	1145	7	0	0	973272	691	0	correct_rejection	NA	0
24	Single	12	174	1146	7	0	0	973980	692	0	correct_rejection	NA	0
24	Single	13	175	1147	8	0	0	974689	691	0	correct_rejection	NA	0
24	Single	14	176	1148	8	0	0	975397	692	0	correct_rejection	NA	0
24	Single	15	177	1149	4	0	0	976106	692	0	correct_rejection	NA	0
24	Single	16	178	1150	7	0	0	976814	692	0	correct_rejection	NA	0
24	Single	17	179	1151	0	1	1	977523	692	1	hit	361	0
24	Single	18	180	1152	9	0	0	978232	691	0	correct_rejection	NA	0
24	Single	19	181	1153	6	0	0	978940	692	0	correct_rejection	NA	0
24	Single	20	182	1154	5	0	0	979649	691	0	correct_rejection	NA	0
24	Single	21	183	1155	9	0	0	980357	692	0	correct_rejection	NA	0
24	Single	22	184	1156	7	0	0	981066	692	0	correct_rejection	NA	0
24	Single	23	185	1157	4	0	0	981774	692	0	correct_rejection	NA	0
24	Single	24	186	1158	4	0	0	982483	692	0	correct_rejection	NA	0
24	Single	25	187	1159	0	1	1	983192	691	1	hit	361	0
24	Single	26	188	1160	6	0	0	983900	692	0	correct_rejection	NA	0
24	Single	27	189	1161	9	0	0	984609	691	0	correct_rejection	NA	0
24	Single	28	190	1162	9	0	0	985317	692	0	correct_rejection	NA	0
24	Single	29	191	1163	5	0	0	986026	691	0	correct_rejection	NA	0
24	Single	30	192	1164	6	0	0	986734	692	0	correct_rejection	NA	0
24	Single	31	193	1165	6	0	0	987443	692	0	correct_rejection	NA	0
24	Single	32	194	1166	0	1	1	988151	692	1	hit	625	0
24	Single	33	195	1167	4	0	0	988860	692	0	correct_rejection	NA	0
24	Single	34	196	1168	8	0	0	989569	691	0	correct_rejection	NA	0
24	Single	35	197	1169	5	0	0	990277	692	0	correct_rejection	NA	0
24	Single	36	198	1170	4	0	0	990986	691	0	correct_rejection	NA	0
24	Single	37	199	1171	9	0	0	991694	692	0	correct_rejection	NA	0
24	Single	38	200	1172	4	0	0	992403	692	0	correct_rejection	NA	0
24	Single	39	201	1173	5	0	0	993111	692	0	correct_rejection	NA	0
24	Single	40	202	1174	8	0	0	993820	692	0	correct_rejection	NA	0
24	Single	41	203	1175	9	0	0	994529	691	0	correct_rejection	NA	0
24	Single	42	204	1176	9	0	0	995237	692	0	correct_rejection	NA	0
24	Single	43	205	1177	7	0	0	995946	691	0	correct_rejection	NA	0
24	Single	44	206	1178	6	0	0	996654	692	0	correct_rejection	NA	0
24	Single	45	207	1179	9	0	0	997363	692	0	correct_rejection	NA	0
24	Single	46	208	1180	6	0	0	998071	692	0	correct_rejection	NA	0
24	Single	47	209	1181	8	0	0	998780	692	0	correct_rejection	NA	0
24	Single	48	210	1182	0	1	1	999489	691	1	hit	369	0
24	Single	49	211	1183	4	0	0	1000197	692	0	correct_rejection	NA	0
24	Single	50	212	1184	8	0	0	1000906	691	0	correct_rejection	NA	0
24	Single	51	213	1185	8	0	0	1001614	692	0	correct_rejection	NA	0
24	Single	52	214	1186	0	1	1	1002323	692	1	hit	387	0
24	Single	53	215	1187	5	0	0	1003031	692	0	correct_rejection	NA	0
24	Single	54	216	1188	7	0	0	1003740	692	0	correct_rejection	NA	0
24	Single	55	217	1189	7	0	0	1004449	691	0	correct_rejection	NA	0
24	Single	56	218	1190	5	0	0	1005157	692	0	correct_rejection	NA	0
24	Single	57	219	1191	6	0	0	1005866	691	0	correct_rejection	NA	0
24	Single	58	220	1192	4	0	0	1006574	692	0	correct_rejection	NA	0
24	Single	59	221	1193	7	0	0	1007283	692	0	correct_rejection	NA	0
24	Single	60	222	1194	0	1	1	1007991	692	1	hit	490	0
24	Single	61	223	1195	4	0	0	1008700	692	0	correct_rejection	NA	0
24	Single	62	224	1196	6	0	0	1009409	691	0	correct_rejection	NA	0
24	Single	63	225	1197	5	0	0	1010117	692	0	correct_rejection	NA	0
24	Single	64	226	1198	5	0	0	1010826	691	0	correct_rejection	NA	0
24	Single	65	227	1199	8	0	0	1011534	692	0	correct_rejection	NA	0
24	Single	66	228	1200	0	1	1	1012243	691	1	hit	492	0
24	Single	67	229	1201	7	0	0	1012951	692	0	correct_rejection	NA	0
24	Single	68	230	1202	8	0	0	1013660	692	0	correct_rejection	NA	0
24	Single	69	231	1203	9	0	0	1014368	692	0	correct_rejection	NA	0
24	Single	70	232	1204	0	1	1	1015077	692	0	miss	NA	0
24	Single	71	233	1205	4	0	0	1015786	691	0	correct_rejection	NA	0
24	Single	72	234	1206	9	0	0	1016494	692	0	correct_rejection	NA	0
24	Single	73	235	1207	5	0	0	1017203	691	0	correct_rejection	NA	0
24	Single	74	236	1208	4	0	0	1017911	692	0	correct_rejection	NA	0
24	Single	75	237	1209	4	0	0	1018620	692	0	correct_rejection	NA	0
24	Single	76	238	1210	5	0	0	1019328	692	0	correct_rejection	NA	0
24	Single	77	239	1211	0	1	1	1020037	692	1	hit	524	0
24	Single	78	240	1212	9	0	0	1020746	691	0	correct_rejection	NA	0
24	Single	79	241	1213	9	0	0	1021454	692	0	correct_rejection	NA	0
24	Single	80	242	1214	8	0	0	1022163	691	0	correct_rejection	NA	0
24	Single	81	243	1215	6	0	0	1022871	692	0	correct_rejection	NA	0
24	Single	82	244	1216	6	0	0	1023580	692	0	correct_rejection	NA	0
24	Single	83	245	1217	7	0	0	1024288	692	0	correct_rejection	NA	0
24	Single	84	246	1218	7	0	0	1024997	692	0	correct_rejection	NA	0
24	Single	85	247	1219	5	0	0	1025706	691	0	correct_rejection	NA	0
24	Single	86	248	1220	7	0	0	1026414	692	0	correct_rejection	NA	0
24	Single	87	249	1221	9	0	0	1027123	691	0	correct_rejection	NA	0
24	Single	88	250	1222	9	0	0	1027831	692	0	correct_rejection	NA	0
24	Single	89	251	1223	7	0	0	1028540	692	0	correct_rejection	NA	0
24	Single	90	252	1224	7	0	0	1029248	692	0	correct_rejection	NA	0
24	Single	91	253	1225	4	0	0	1029957	692	0	correct_rejection	NA	0
24	Single	92	254	1226	8	0	0	1030666	691	0	correct_rejection	NA	0
24	Single	93	255	1227	7	0	0	1031374	692	0	correct_rejection	NA	0
24	Single	94	256	1228	6	0	0	1032083	691	0	correct_rejection	NA	0
24	Single	95	257	1229	5	0	0	1032791	692	0	correct_rejection	NA	0
24	Single	96	258	1230	6	0	0	1033500	692	0	correct_rejection	NA	0
24	Single	97	259	1231	7	0	0	1034208	692	0	correct_rejection	NA	0
24	Single	98	260	1232	8	0	0	1034917	692	0	correct_rejection	NA	0
24	Single	99	261	1233	5	0	0	1035626	691	0	correct_rejection	NA	0
24	Single	100	262	1234	9	0	0	1036334	692	0	correct_rejection	NA	0
24	Single	101	263	1235	4	0	0	1037043	691	0	correct_rejection	NA	0
24	Single	102	264	1236	4	0	0	1037751	692	0	correct_rejection	NA	0
24	Single	103	265	1237	9	0	0	1038460	691	0	correct_rejection	NA	0
24	Single	104	266	1238	0	1	1	1039168	692	1	hit	358	0
24	Single	105	267	1239	8	0	0	1039877	692	0	correct_rejection	NA	0
24	Single	106	268	1240	9	0	0	1040586	691	0	correct_rejection	NA	0
24	Single	107	269	1241	6	0	0	1041294	692	0	correct_rejection	NA	0
24	Single	108	270	1242	9	0	0	1042003	691	0	correct_rejection	NA	0
24	Single	109	271	1243	0	1	1	1042711	692	1	hit	351	0
24	Single	110	272	1244	5	0	0	1043420	691	0	correct_rejection	NA	0
24	Single	111	273	1245	8	0	0	1044128	692	0	correct_rejection	NA	0
24	Single	112	274	1246	4	0	0	1044837	692	0	correct_rejection	NA	0
24	Single	113	275	1247	5	0	0	1045545	692	0	correct_rejection	NA	0
24	Single	114	276	1248	5	0	0	1046254	692	0	correct_rejection	NA	0
24	Single	115	277	1249	4	0	0	1046963	691	0	correct_rejection	NA	0
24	Single	116	278	1250	6	0	0	1047671	692	0	correct_rejection	NA	0
24	Single	117	279	1251	6	0	0	1048380	691	0	correct_rejection	NA	0
24	Single	118	280	1252	8	0	0	1049088	692	0	correct_rejection	NA	0
24	Single	119	281	1253	8	0	0	1049797	692	0	correct_rejection	NA	0
24	Single	120	282	1254	6	0	0	1050505	692	0	correct_rejection	NA	0
24	Single	121	283	1255	4	0	0	1051214	692	0	correct_rejection	NA	0
24	Single	122	284	1256	8	0	0	1051923	691	0	correct_rejection	NA	0
24	Single	123	285	1257	4	0	0	1052631	692	0	correct_rejection	NA	0
24	Single	124	286	1258	6	0	0	1053340	691	0	correct_rejection	NA	0
24	Single	125	287	1259	0	1	1	1054048	692	1	hit	380	0
24	Single	126	288	1260	9	0	0	1054757	692	0	correct_rejection	NA	0
24	Single	127	289	1261	8	0	0	1055465	692	0	correct_rejection	NA	0
24	Single	128	290	1262	8	0	0	1056174	692	0	correct_rejection	NA	0
24	Single	129	291	1263	0	1	1	1056883	691	1	hit	482	0
24	Single	130	292	1264	9	0	0	1057591	692	0	correct_rejection	NA	0
24	Single	131	293	1265	5	0	0	1058300	691	0	correct_rejection	NA	0
24	Single	132	294	1266	9	0	0	1059008	692	0	correct_rejection	NA	0
24	Single	133	295	1267	7	0	0	1059717	692	0	correct_rejection	NA	0
24	Single	134	296	1268	5	0	0	1060425	692	0	correct_rejection	NA	0
24	Single	135	297	1269	8	0	0	1061134	692	0	correct_rejection	NA	0
24	Single	136	298	1270	5	0	0	1061843	691	0	correct_rejection	NA	0
24	Single	137	299	1271	5	0	0	1062551	692	0	correct_rejection	NA	0
24	Single	138	300	1272	6	0	0	1063260	691	0	correct_rejection	NA	0
24	Single	139	301	1273	8	0	0	1063968	692	0	correct_rejection	NA	0
24	Single	140	302	1274	0	1	1	1064677	692	1	hit	412	0
24	Single	141	303	1275	6	0	0	1065385	692	0	correct_rejection	NA	0
24	Single	142	304	1276	7	0	0	1066094	692	0	correct_rejection	NA	0
24	Single	143	305	1277	9	0	0	1066803	691	0	correct_rejection	NA	0
24	Single	144	306	1278	6	0	0	1067511	692	0	correct_rejection	NA	0
24	Single	145	307	1279	0	1	1	1068220	691	1	hit	520	0
24	Single	146	308	1280	5	0	0	1068928	692	0	correct_rejection	NA	0
24	Single	147	309	1281	4	0	0	1069637	691	0	correct_rejection	NA	0
24	Single	148	310	1282	0	1	1	1070345	692	1	hit	346	0
24	Single	149	311	1283	5	0	0	1071054	692	0	correct_rejection	NA	0
24	Single	150	312	1284	7	0	0	1071762	692	0	correct_rejection	NA	0
24	Single	151	313	1285	8	0	0	1072471	692	0	correct_rejection	NA	0
24	Single	152	314	1286	7	0	0	1073180	691	0	correct_rejection	NA	0
24	Single	153	315	1287	4	0	0	1073888	692	0	correct_rejection	NA	0
24	Single	154	316	1288	4	0	0	1074597	691	0	correct_rejection	NA	0
24	Single	155	317	1289	7	0	0	1075305	692	0	correct_rejection	NA	0
24	Single	156	318	1290	7	0	0	1076014	692	0	correct_rejection	NA	0
24	Single	157	319	1291	6	0	0	1076722	692	0	correct_rejection	NA	0
24	Single	158	320	1292	6	0	0	1077431	692	0	correct_rejection	NA	0
24	Single	159	321	1293	4	0	0	1078140	691	0	correct_rejection	NA	0
24	Single	160	322	1294	9	0	0	1078848	692	0	correct_rejection	NA	0
24	Single	161	323	1295	9	0	0	1079557	691	0	correct_rejection	NA	0
24	Single	162	324	1296	4	0	0	1080265	692	0	correct_rejection	NA	0
24	Correct	1	1	1297	4	0	0	1089277	691	0	correct_rejection	NA	7099
24	Correct	2	2	1298	5	0	0	1089985	692	0	correct_rejection	NA	0
24	Correct	3	3	1299	6	0	0	1090694	691	0	correct_rejection	NA	0
24	Correct	4	4	1300	0	1	2	1091402	692	1	hit	516	0
24	Correct	5	5	1301	4	0	0	1092111	692	0	correct_rejection	NA	0
24	Correct	6	6	1302	5	0	0	1092819	692	0	correct_rejection	NA	0
24	Correct	7	7	1303	6	0	0	1093528	692	0	correct_rejection	NA	0
24	Correct	8	8	1304	4	0	0	1094237	691	0	correct_rejection	NA	0
24	Correct	9	9	1305	5	0	0	1094945	692	0	correct_rejection	NA	0
24	Correct	10	10	1306	6	0	0	1095654	691	0	correct_rejection	NA	0
24	Correct	11	11	1307	0	1	3	1096362	692	1	hit	355	0
24	Correct	12	12	1308	6	0	0	1097071	692	0	correct_rejection	NA	0
24	Correct	13	13	1309	5	0	0	1097779	692	0	correct_rejection	NA	0
24	Correct	14	14	1310	4	0	0	1098488	692	0	correct_rejection	NA	0
24	Correct	15	15	1311	6	0	0	1099197	691	0	correct_rejection	NA	0
24	Correct	16	16	1312	0	1	1	1099905	692	1	hit	375	0
24	Correct	17	17	1313	5	0	0	1100614	691	0	correct_rejection	NA	0
24	Correct	18	18	1314	4	0	0	1101322	692	0	correct_rejection	NA	0
24	Correct	19	19	1315	6	0	0	1102031	692	0	correct_rejection	NA	0
24	Correct	20	20	1316	5	0	0	1102739	692	0	correct_rejection	NA	0
24	Correct	21	21	1317	4	0	0	1103448	692	0	correct_rejection	NA	0
24	Correct	22	22	1318	9	0	0	1104157	691	0	correct_rejection	NA	0
24	Correct	23	23	1319	8	0	0	1104865	692	0	correct_rejection	NA	0
24	Correct	24	24	1320	7	0	0	1105574	691	0	correct_rejection	NA	0
24	Correct	25	25	1321	9	0	0	1106282	692	0	correct_rejection	NA	0
24	Correct	26	26	1322	8	0	0	1106991	692	0	correct_rejection	NA	0
24	Correct	27	27	1323	7	0	0	1107699	692	0	correct_rejection	NA	0
24	Correct	28	28	1324	0	1	2	1108408	692	1	hit	405	0
24	Correct	29	29	1325	9	0	0	1109117	691	0	correct_rejection	NA	0
24	Correct	30	30	1326	8	0	0	1109825	692	0	correct_rejection	NA	0
24	Correct	31	31	1327	7	0	0	1110534	691	0	correct_rejection	NA	0
24	Correct	32	32	1328	7	0	0	1111242	692	0	correct_rejection	NA	0
24	Correct	33	33	1329	8	0	0	1111951	691	0	correct_rejection	NA	0
24	Correct	34	34	1330	9	0	0	1112659	692	0	correct_rejection	NA	0
24	Correct	35	35	1331	7	0	0	1113368	692	0	correct_rejection	NA	0
24	Correct	36	36	1332	8	0	0	1114076	692	0	correct_rejection	NA	0
24	Correct	37	37	1333	9	0	0	1114785	692	0	correct_rejection	NA	0
24	Correct	38	38	1334	7	0	0	1115494	691	0	correct_rejection	NA	0
24	Correct	39	39	1335	8	0	0	1116202	692	0	correct_rejection	NA	0
24	Correct	40	40	1336	9	0	0	1116911	691	0	correct_rejection	NA	0
24	Correct	41	41	1337	0	1	4	1117619	692	1	hit	470	0
24	Correct	42	42	1338	4	0	0	1118328	692	0	correct_rejection	NA	0
24	Correct	43	43	1339	5	0	0	1119036	692	0	correct_rejection	NA	0
24	Correct	44	44	1340	0	1	1	1119745	692	1	hit	462	0
24	Correct	45	45	1341	6	0	0	1120454	691	0	correct_rejection	NA	0
24	Correct	46	46	1342	4	0	0	1121162	692	0	correct_rejection	NA	0
24	Correct	47	47	1343	5	0	0	1121871	691	0	correct_rejection	NA	0
24	Correct	48	48	1344	6	0	0	1122579	692	0	correct_rejection	NA	0
24	Correct	49	49	1345	4	0	0	1123288	692	0	correct_rejection	NA	0
24	Correct	50	50	1346	5	0	0	1123996	692	0	correct_rejection	NA	0
24	Correct	51	51	1347	6	0	0	1124705	692	0	correct_rejection	NA	0
24	Correct	52	52	1348	6	0	0	1125414	691	0	correct_rejection	NA	0
24	Correct	53	53	1349	5	0	0	1126122	692	0	correct_rejection	NA	0
24	Correct	54	54	1350	4	0	0	1126831	691	0	correct_rejection	NA	0
24	Correct	55	55	1351	6	0	0	1127539	692	0	correct_rejection	NA	0
24	Correct	56	56	1352	5	0	0	1128248	692	0	correct_rejection	NA	0
24	Correct	57	57	1353	4	0	0	1128956	692	0	correct_rejection	NA	0
24	Correct	58	58	1354	6	0	0	1129665	692	0	correct_rejection	NA	0
24	Correct	59	59	1355	5	0	0	1130374	691	0	correct_rejection	NA	0
24	Correct	60	60	1356	4	0	0	1131082	692	0	correct_rejection	NA	0
24	Correct	61	61	1357	9	0	0	1131791	691	0	correct_rejection	NA	0
24	Correct	62	62	1358	8	0	0	1132499	692	0	correct_rejection	NA	0
24	Correct	63	63	1359	7	0	0	1133208	692	0	correct_rejection	NA	0
24	Correct	64	64	1360	9	0	0	1133916	692	0	correct_rejection	NA	0
24	Correct	65	65	1361	8	0	0	1134625	692	0	correct_rejection	NA	0
24	Correct	66	66	1362	7	0	0	1135334	691	0	correct_rejection	NA	0
24	Correct	67	67	1363	9	0	0	1136042	692	0	correct_rejection	NA	0
24	Correct	68	68	1364	8	0	0	1136751	691	0	correct_rejection	NA	0
24	Correct	69	69	1365	7	0	0	1137459	692	0	correct_rejection	NA	0
24	Correct	70	70	1366	7	0	0	1138168	691	0	correct_rejection	NA	0
24	Correct	71	71	1367	8	0	0	1138876	692	0	correct_rejection	NA	0
24	Correct	72	72	1368	9	0	0	1139585	692	0	correct_rejection	NA	0
24	Correct	73	73	1369	7	0	0	1140293	692	0	correct_rejection	NA	0
24	Correct	74	74	1370	8	0	0	1141002	692	0	correct_rejection	NA	0
24	Correct	75	75	1371	9	0	0	1141711	691	0	correct_rejection	NA	0
24	Correct	76	76	1372	7	0	0	1142419	692	0	correct_rejection	NA	0
24	Correct	77	77	1373	8	0	0	1143128	691	0	correct_rejection	NA	0
24	Correct	78	78	1374	9	0	0	1143836	692	0	correct_rejection	NA	0
24	Correct	79	79	1375	4	0	0	1144545	692	0	correct_rejection	NA	0
24	Correct	80	80	1376	0	1	1	1145253	692	1	hit	452	0
24	Correct	81	81	1377	5	0	0	1145962	692	0	correct_rejection	NA	0
24	Correct	82	82	1378	6	0	0	1146671	691	0	correct_rejection	NA	0
24	Correct	83	83	1379	4	0	0	1147379	692	0	correct_rejection	NA	0
24	Correct	84	84	1380	5	0	0	1148088	691	0	correct_rejection	NA	0
24	Correct	85	85	1381	6	0	0	1148796	692	0	correct_rejection	NA	0
24	Correct	86	86	1382	4	0	0	1149505	692	0	correct_rejection	NA	0
24	Correct	87	87	1383	0	1	1	1150213	692	1	hit	467	0
24	Correct	88	88	1384	5	0	0	1150922	692	0	correct_rejection	NA	0
24	Correct	89	89	1385	6	0	0	1151631	691	0	correct_rejection	NA	0
24	Correct	90	90	1386	6	0	0	1152339	692	0	correct_rejection	NA	0
24	Correct	91	91	1387	5	0	0	1153048	691	0	correct_rejection	NA	0
24	Correct	92	92	1388	0	1	1	1153756	692	1	hit	426	0
24	Correct	93	93	1389	4	0	0	1154465	692	0	correct_rejection	NA	0
24	Correct	94	94	1390	6	0	0	1155173	692	0	correct_rejection	NA	0
24	Correct	95	95	1391	5	0	0	1155882	692	0	correct_rejection	NA	0
24	Correct	96	96	1392	0	1	1	1156591	691	1	hit	393	0
24	Correct	97	97	1393	4	0	0	1157299	692	0	correct_rejection	NA	0
24	Correct	98	98	1394	6	0	0	1158008	691	0	correct_rejection	NA	0
24	Correct	99	99	1395	5	0	0	1158716	692	0	correct_rejection	NA	0
24	Correct	100	100	1396	4	0	0	1159425	692	0	correct_rejection	NA	0
24	Correct	101	101	1397	9	0	0	1160133	692	0	correct_rejection	NA	0
24	Correct	102	102	1398	0	1	1	1160842	692	1	hit	361	0
24	Correct	103	103	1399	8	0	0	1161551	691	0	correct_rejection	NA	0
24	Correct	104	104	1400	7	0	0	1162259	692	0	correct_rejection	NA	0
24	Correct	105	105	1401	9	0	0	1162968	691	0	correct_rejection	NA	0
24	Correct	106	106	1402	8	0	0	1163676	692	0	correct_rejection	NA	0
24	Correct	107	107	1403	7	0	0	1164385	691	0	correct_rejection	NA	0
24	Correct	108	108	1404	9	0	0	1165093	692	0	correct_rejection	NA	0
24	Correct	109	109	1405	8	0	0	1165802	692	0	correct_rejection	NA	0
24	Correct	110	110	1406	0	1	1	1166510	692	1	hit	420	0
24	Correct	111	111	1407	7	0	0	1167219	692	0	correct_rejection	NA	0
24	Correct	112	112	1408	7	0	0	1167928	691	0	correct_rejection	NA	0
24	Correct	113	113	1409	8	0	0	1168636	692	0	correct_rejection	NA	0
24	Correct	114	114	1410	9	0	0	1169345	691	0	correct_rejection	NA	0
24	Correct	115	115	1411	7	0	0	1170053	692	0	correct_rejection	NA	0
24	Correct	116	116	1412	8	0	0	1170762	692	0	correct_rejection	NA	0
24	Correct	117	117	1413	9	0	0	1171470	692	0	correct_rejection	NA	0
24	Correct	118	118	1414	7	0	0	1172179	692	0	correct_rejection	NA	0
24	Correct	119	119	1415	8	0	0	1172888	691	0	correct_rejection	NA	0
24	Correct	120	120	1416	0	1	1	1173596	692	1	hit	365	0
24	Correct	121	121	1417	9	0	0	1174305	691	0	correct_rejection	NA	0
24	Correct	122	122	1418	4	0	0	1175013	692	0	correct_rejection	NA	0
24	Correct	123	123	1419	5	0	0	1175722	692	0	correct_rejection	NA	0
24	Correct	124	124	1420	6	0	0	1176430	692	0	correct_rejection	NA	0
24	Correct	125	125	1421	4	0	0	1177139	692	0	correct_rejection	NA	0
24	Correct	126	126	1422	5	0	0	1177848	691	0	correct_rejection	NA	0
24	Correct	127	127	1423	6	0	0	1178556	692	0	correct_rejection	NA	0
24	Correct	128	128	1424	4	0	0	1179265	691	0	correct_rejection	NA	0
24	Correct	129	129	1425	5	0	0	1179973	692	0	correct_rejection	NA	0
24	Correct	130	130	1426	0	1	1	1180682	692	1	hit	388	0
24	Correct	131	131	1427	6	0	0	1181390	692	0	correct_rejection	NA	0
24	Correct	132	132	1428	6	0	0	1182099	692	0	correct_rejection	NA	0
24	Correct	133	133	1429	0	1	1	1182808	691	0	miss	NA	0
24	Correct	134	134	1430	5	0	0	1183516	692	0	correct_rejection	NA	0
24	Correct	135	135	1431	4	0	0	1184225	691	0	correct_rejection	NA	0
24	Correct	136	136	1432	6	0	0	1184933	692	0	correct_rejection	NA	0
24	Correct	137	137	1433	5	0	0	1185642	692	0	correct_rejection	NA	0
24	Correct	138	138	1434	4	0	0	1186350	692	0	correct_rejection	NA	0
24	Correct	139	139	1435	0	1	2	1187059	692	1	hit	311	0
24	Correct	140	140	1436	6	0	0	1187768	691	0	correct_rejection	NA	0
24	Correct	141	141	1437	5	0	0	1188476	692	0	correct_rejection	NA	0
24	Correct	142	142	1438	4	0	0	1189185	691	0	correct_rejection	NA	0
24	Correct	143	143	1439	9	0	0	1189893	692	0	correct_rejection	NA	0
24	Correct	144	144	1440	8	0	0	1190602	691	0	correct_rejection	NA	0
24	Correct	145	145	1441	7	0	0	1191310	692	0	correct_rejection	NA	0
24	Correct	146	146	1442	9	0	0	1192019	692	0	correct_rejection	NA	0
24	Correct	147	147	1443	8	0	0	1192728	691	0	correct_rejection	NA	0
24	Correct	148	148	1444	7	0	0	1193436	692	0	correct_rejection	NA	0
24	Correct	149	149	1445	9	0	0	1194145	691	0	correct_rejection	NA	0
24	Correct	150	150	1446	0	1	1	1194853	692	0	miss	NA	0
24	Correct	151	151	1447	8	0	0	1195562	691	1	false_alarm	16	0
24	Correct	152	152	1448	7	0	0	1196270	692	0	correct_rejection	NA	0
24	Correct	153	153	1449	7	0	0	1196979	692	0	correct_rejection	NA	0
24	Correct	154	154	1450	8	0	0	1197687	692	0	correct_rejection	NA	0
24	Correct	155	155	1451	9	0	0	1198396	692	0	correct_rejection	NA	0
24	Correct	156	156	1452	0	1	2	1199105	691	1	hit	372	0
24	Correct	157	157	1453	7	0	0	1199813	692	0	correct_rejection	NA	0
24	Correct	158	158	1454	8	0	0	1200522	691	0	correct_rejection	NA	0
24	Correct	159	159	1455	9	0	0	1201230	692	0	correct_rejection	NA	0
24	Correct	160	160	1456	7	0	0	1201939	692	0	correct_rejection	NA	0
24	Correct	161	161	1457	8	0	0	1202647	692	0	correct_rejection	NA	0
24	Correct	162	162	1458	9	0	0	1203356	692	0	correct_rejection	NA	0
24	Triplet	1	163	1459	6	0	0	1213076	692	0	correct_rejection	NA	7899
24	Triplet	2	164	1460	5	0	0	1213784	692	0	correct_rejection	NA	0
24	Triplet	3	165	1461	4	0	0	1214493	692	0	correct_rejection	NA	0
24	Triplet	4	166	1462	0	1	2	1215202	691	1	hit	423	0
24	Triplet	5	167	1463	6	0	0	1215910	692	0	correct_rejection	NA	0
24	Triplet	6	168	1464	5	0	0	1216619	691	0	correct_rejection	NA	0
24	Triplet	7	169	1465	0	1	1	1217327	692	1	hit	434	0
24	Triplet	8	170	1466	4	0	0	1218036	692	0	correct_rejection	NA	0
24	Triplet	9	171	1467	4	0	0	1218744	692	0	correct_rejection	NA	0
24	Triplet	10	172	1468	5	0	0	1219453	692	0	correct_rejection	NA	0
24	Triplet	11	173	1469	0	1	1	1220162	691	1	hit	370	0
24	Triplet	12	174	1470	6	0	0	1220870	692	0	correct_rejection	NA	0
24	Triplet	13	175	1471	9	0	0	1221579	691	0	correct_rejection	NA	0
24	Triplet	14	176	1472	8	0	0	1222287	692	0	correct_rejection	NA	0
24	Triplet	15	177	1473	7	0	0	1222996	692	0	correct_rejection	NA	0
24	Triplet	16	178	1474	6	0	0	1223704	692	0	correct_rejection	NA	0
24	Triplet	17	179	1475	0	1	1	1224413	692	1	hit	373	0
24	Triplet	18	180	1476	5	0	0	1225122	691	0	correct_rejection	NA	0
24	Triplet	19	181	1477	4	0	0	1225830	692	0	correct_rejection	NA	0
24	Triplet	20	182	1478	9	0	0	1226539	691	0	correct_rejection	NA	0
24	Triplet	21	183	1479	8	0	0	1227247	692	0	correct_rejection	NA	0
24	Triplet	22	184	1480	7	0	0	1227956	692	0	correct_rejection	NA	0
24	Triplet	23	185	1481	0	1	2	1228664	692	0	miss	NA	0
24	Triplet	24	186	1482	7	0	0	1229373	692	1	false_alarm	19	0
24	Triplet	25	187	1483	8	0	0	1230082	691	0	correct_rejection	NA	0
24	Triplet	26	188	1484	9	0	0	1230790	692	0	correct_rejection	NA	0
24	Triplet	27	189	1485	6	0	0	1231499	691	0	correct_rejection	NA	0
24	Triplet	28	190	1486	5	0	0	1232207	692	0	correct_rejection	NA	0
24	Triplet	29	191	1487	0	1	1	1232916	692	1	hit	370	0
24	Triplet	30	192	1488	4	0	0	1233624	692	0	correct_rejection	NA	0
24	Triplet	31	193	1489	7	0	0	1234333	692	0	correct_rejection	NA	0
24	Triplet	32	194	1490	8	0	0	1235042	691	0	correct_rejection	NA	0
24	Triplet	33	195	1491	9	0	0	1235750	692	0	correct_rejection	NA	0
24	Triplet	34	196	1492	7	0	0	1236459	691	0	correct_rejection	NA	0
24	Triplet	35	197	1493	8	0	0	1237167	692	0	correct_rejection	NA	0
24	Triplet	36	198	1494	9	0	0	1237876	691	0	correct_rejection	NA	0
24	Triplet	37	199	1495	9	0	0	1238584	692	0	correct_rejection	NA	0
24	Triplet	38	200	1496	8	0	0	1239293	692	0	correct_rejection	NA	0
24	Triplet	39	201	1497	7	0	0	1240001	692	0	correct_rejection	NA	0
24	Triplet	40	202	1498	9	0	0	1240710	692	0	correct_rejection	NA	0
24	Triplet	41	203	1499	8	0	0	1241419	691	0	correct_rejection	NA	0
24	Triplet	42	204	1500	0	1	1	1242127	692	1	hit	330	0
24	Triplet	43	205	1501	7	0	0	1242836	691	0	correct_rejection	NA	0
24	Triplet	44	206	1502	4	0	0	1243544	692	0	correct_rejection	NA	0
24	Triplet	45	207	1503	5	0	0	1244253	692	0	correct_rejection	NA	0
24	Triplet	46	208	1504	6	0	0	1244961	692	0	correct_rejection	NA	0
24	Triplet	47	209	1505	4	0	0	1245670	692	0	correct_rejection	NA	0
24	Triplet	48	210	1506	5	0	0	1246379	691	0	correct_rejection	NA	0
24	Triplet	49	211	1507	6	0	0	1247087	692	0	correct_rejection	NA	0
24	Triplet	50	212	1508	7	0	0	1247796	691	0	correct_rejection	NA	0
24	Triplet	51	213	1509	8	0	0	1248504	692	0	correct_rejection	NA	0
24	Triplet	52	214	1510	9	0	0	1249213	692	0	correct_rejection	NA	0
24	Triplet	53	215	1511	4	0	0	1249921	692	0	correct_rejection	NA	0
24	Triplet	54	216	1512	5	0	0	1250630	692	0	correct_rejection	NA	0
24	Triplet	55	217	1513	6	0	0	1251339	691	0	correct_rejection	NA	0
24	Triplet	56	218	1514	7	0	0	1252047	692	0	correct_rejection	NA	0
24	Triplet	57	219	1515	0	1	1	1252756	691	1	hit	402	0
24	Triplet	58	220	1516	8	0	0	1253464	692	0	correct_rejection	NA	0
24	Triplet	59	221	1517	9	0	0	1254173	692	0	correct_rejection	NA	0
24	Triplet	60	222	1518	0	1	2	1254881	692	1	hit	347	0
24	Triplet	61	223	1519	6	0	0	1255590	692	0	correct_rejection	NA	0
24	Triplet	62	224	1520	5	0	0	1256299	691	0	correct_rejection	NA	0
24	Triplet	63	225	1521	4	0	0	1257007	692	0	correct_rejection	NA	0
24	Triplet	64	226	1522	6	0	0	1257716	691	0	correct_rejection	NA	0
24	Triplet	65	227	1523	5	0	0	1258424	692	0	correct_rejection	NA	0
24	Triplet	66	228	1524	4	0	0	1259133	692	0	correct_rejection	NA	0
24	Triplet	67	229	1525	9	0	0	1259841	692	0	correct_rejection	NA	0
24	Triplet	68	230	1526	8	0	0	1260550	692	0	correct_rejection	NA	0
24	Triplet	69	231	1527	7	0	0	1261259	691	0	correct_rejection	NA	0
24	Triplet	70	232	1528	4	0	0	1261967	692	0	correct_rejection	NA	0
24	Triplet	71	233	1529	0	1	1	1262676	691	1	hit	488	0
24	Triplet	72	234	1530	5	0	0	1263384	692	0	correct_rejection	NA	0
24	Triplet	73	235	1531	6	0	0	1264093	691	0	correct_rejection	NA	0
24	Triplet	74	236	1532	7	0	0	1264801	692	0	correct_rejection	NA	0
24	Triplet	75	237	1533	8	0	0	1265510	692	0	correct_rejection	NA	0
24	Triplet	76	238	1534	9	0	0	1266218	692	0	correct_rejection	NA	0
24	Triplet	77	239	1535	7	0	0	1266927	692	0	correct_rejection	NA	0
24	Triplet	78	240	1536	8	0	0	1267636	691	0	correct_rejection	NA	0
24	Triplet	79	241	1537	9	0	0	1268344	692	0	correct_rejection	NA	0
24	Triplet	80	242	1538	4	0	0	1269053	691	0	correct_rejection	NA	0
24	Triplet	81	243	1539	5	0	0	1269761	692	0	correct_rejection	NA	0
24	Triplet	82	244	1540	6	0	0	1270470	692	0	correct_rejection	NA	0
24	Triplet	83	245	1541	6	0	0	1271178	692	0	correct_rejection	NA	0
24	Triplet	84	246	1542	5	0	0	1271887	692	0	correct_rejection	NA	0
24	Triplet	85	247	1543	4	0	0	1272596	691	0	correct_rejection	NA	0
24	Triplet	86	248	1544	7	0	0	1273304	692	0	correct_rejection	NA	0
24	Triplet	87	249	1545	8	0	0	1274013	691	0	correct_rejection	NA	0
24	Triplet	88	250	1546	9	0	0	1274721	692	0	correct_rejection	NA	0
24	Triplet	89	251	1547	9	0	0	1275430	692	0	correct_rejection	NA	0
24	Triplet	90	252	1548	8	0	0	1276138	692	0	correct_rejection	NA	0
24	Triplet	91	253	1549	7	0	0	1276847	692	0	correct_rejection	NA	0
24	Triplet	92	254	1550	6	0	0	1277556	691	0	correct_rejection	NA	0
24	Triplet	93	255	1551	5	0	0	1278264	692	0	correct_rejection	NA	0
24	Triplet	94	256	1552	4	0	0	1278973	691	0	correct_rejection	NA	0
24	Triplet	95	257	1553	4	0	0	1279681	692	0	correct_rejection	NA	0
24	Triplet	96	258	1554	5	0	0	1280390	692	0	correct_rejection	NA	0
24	Triplet	97	259	1555	6	0	0	1281098	692	0	correct_rejection	NA	0
24	Triplet	98	260	1556	4	0	0	1281807	692	0	correct_rejection	NA	0
24	Triplet	99	261	1557	5	0	0	1282516	691	0	correct_rejection	NA	0
24	Triplet	100	262	1558	6	0	0	1283224	692	0	correct_rejection	NA	0
24	Triplet	101	263	1559	9	0	0	1283933	691	0	correct_rejection	NA	0
24	Triplet	102	264	1560	8	0	0	1284641	692	0	correct_rejection	NA	0
24	Triplet	103	265	1561	7	0	0	1285350	692	0	correct_rejection	NA	0
24	Triplet	104	266	1562	0	1	2	1286058	692	1	hit	360	0
24	Triplet	105	267	1563	9	0	0	1286767	692	0	correct_rejection	NA	0
24	Triplet	106	268	1564	8	0	0	1287476	691	0	correct_rejection	NA	0
24	Triplet	107	269	1565	7	0	0	1288184	692	0	correct_rejection	NA	0
24	Triplet	108	270	1566	4	0	0	1288893	691	0	correct_rejection	NA	0
24	Triplet	109	271	1567	5	0	0	1289601	692	0	correct_rejection	NA	0
24	Triplet	110	272	1568	6	0	0	1290310	691	0	correct_rejection	NA	0
24	Triplet	111	273	1569	4	0	0	1291018	692	0	correct_rejection	NA	0
24	Triplet	112	274	1570	5	0	0	1291727	692	0	correct_rejection	NA	0
24	Triplet	113	275	1571	6	0	0	1292435	692	0	correct_rejection	NA	0
24	Triplet	114	276	1572	6	0	0	1293144	692	0	correct_rejection	NA	0
24	Triplet	115	277	1573	0	1	1	1293853	691	1	hit	660	0
24	Triplet	116	278	1574	5	0	0	1294561	692	0	correct_rejection	NA	0
24	Triplet	117	279	1575	4	0	0	1295270	691	0	correct_rejection	NA	0
24	Triplet	118	280	1576	9	0	0	1295978	692	0	correct_rejection	NA	0
24	Triplet	119	281	1577	8	0	0	1296687	692	0	correct_rejection	NA	0
24	Triplet	120	282	1578	0	1	1	1297395	692	1	hit	468	0
24	Triplet	121	283	1579	7	0	0	1298104	692	0	correct_rejection	NA	0
24	Triplet	122	284	1580	9	0	0	1298813	691	0	correct_rejection	NA	0
24	Triplet	123	285	1581	0	1	1	1299521	692	1	hit	443	0
24	Triplet	124	286	1582	8	0	0	1300230	691	0	correct_rejection	NA	0
24	Triplet	125	287	1583	7	0	0	1300938	692	0	correct_rejection	NA	0
24	Triplet	126	288	1584	6	0	0	1301647	692	0	correct_rejection	NA	0
24	Triplet	127	289	1585	5	0	0	1302355	692	0	correct_rejection	NA	0
24	Triplet	128	290	1586	4	0	0	1303064	692	0	correct_rejection	NA	0
24	Triplet	129	291	1587	6	0	0	1303773	691	0	correct_rejection	NA	0
24	Triplet	130	292	1588	5	0	0	1304481	692	0	correct_rejection	NA	0
24	Triplet	131	293	1589	4	0	0	1305190	691	0	correct_rejection	NA	0
24	Triplet	132	294	1590	7	0	0	1305898	692	0	correct_rejection	NA	0
24	Triplet	133	295	1591	0	1	1	1306607	692	1	hit	376	0
24	Triplet	134	296	1592	8	0	0	1307315	692	0	correct_rejection	NA	0
