ID	block	trial_block	trial_cat	trial_total	number	violation	level_violation	onset	duration	Response	Hit_Miss	RT	pre_trial_fixcross_ISI
first_trigger_at: 11281
trigger nr 3 at 13280
25	Single	1	649	1	8	0	0	20648	692	0	correct_rejection	NA	7329
25	Single	2	650	2	9	0	0	21357	691	0	correct_rejection	NA	0
25	Single	3	651	3	8	0	0	22065	692	0	correct_rejection	NA	0
25	Single	4	652	4	5	0	0	22774	691	0	correct_rejection	NA	0
25	Single	5	653	5	4	0	0	23482	692	0	correct_rejection	NA	0
25	Single	6	654	6	4	0	0	24191	691	0	correct_rejection	NA	0
25	Single	7	655	7	9	0	0	24899	692	0	correct_rejection	NA	0
25	Single	8	656	8	9	0	0	25608	692	0	correct_rejection	NA	0
25	Single	9	657	9	4	0	0	26316	692	0	correct_rejection	NA	0
25	Single	10	658	10	7	0	0	27025	692	0	correct_rejection	NA	0
25	Single	11	659	11	4	0	0	27734	691	0	correct_rejection	NA	0
25	Single	12	660	12	5	0	0	28442	692	0	correct_rejection	NA	0
25	Single	13	661	13	7	0	0	29151	691	0	correct_rejection	NA	0
25	Single	14	662	14	6	0	0	29859	692	0	correct_rejection	NA	0
25	Single	15	663	15	8	0	0	30568	692	0	correct_rejection	NA	0
25	Single	16	664	16	7	0	0	31276	692	0	correct_rejection	NA	0
25	Single	17	665	17	5	0	0	31985	692	0	correct_rejection	NA	0
25	Single	18	666	18	5	0	0	32694	691	0	correct_rejection	NA	0
25	Single	19	667	19	9	0	0	33402	692	0	correct_rejection	NA	0
25	Single	20	668	20	5	0	0	34111	691	0	correct_rejection	NA	0
25	Single	21	669	21	0	1	1	34819	692	1	hit	405	0
25	Single	22	670	22	8	0	0	35528	692	0	correct_rejection	NA	0
25	Single	23	671	23	6	0	0	36236	692	0	correct_rejection	NA	0
25	Single	24	672	24	5	0	0	36945	692	0	correct_rejection	NA	0
25	Single	25	673	25	6	0	0	37654	691	0	correct_rejection	NA	0
25	Single	26	674	26	6	0	0	38362	692	0	correct_rejection	NA	0
25	Single	27	675	27	7	0	0	39071	691	0	correct_rejection	NA	0
25	Single	28	676	28	9	0	0	39779	692	0	correct_rejection	NA	0
25	Single	29	677	29	6	0	0	40488	691	0	correct_rejection	NA	0
25	Single	30	678	30	9	0	0	41196	692	0	correct_rejection	NA	0
25	Single	31	679	31	7	0	0	41905	692	0	correct_rejection	NA	0
25	Single	32	680	32	7	0	0	42613	692	0	correct_rejection	NA	0
25	Single	33	681	33	0	1	1	43322	692	1	hit	576	0
25	Single	34	682	34	8	0	0	44031	691	0	correct_rejection	NA	0
25	Single	35	683	35	8	0	0	44739	692	0	correct_rejection	NA	0
25	Single	36	684	36	4	0	0	45448	691	0	correct_rejection	NA	0
25	Single	37	685	37	6	0	0	46156	692	0	correct_rejection	NA	0
25	Single	38	686	38	4	0	0	46865	692	0	correct_rejection	NA	0
25	Single	39	687	39	7	0	0	47573	692	0	correct_rejection	NA	0
25	Single	40	688	40	9	0	0	48282	692	0	correct_rejection	NA	0
25	Single	41	689	41	5	0	0	48991	691	0	correct_rejection	NA	0
25	Single	42	690	42	9	0	0	49699	692	0	correct_rejection	NA	0
25	Single	43	691	43	4	0	0	50408	691	0	correct_rejection	NA	0
25	Single	44	692	44	8	0	0	51116	692	0	correct_rejection	NA	0
25	Single	45	693	45	4	0	0	51825	692	0	correct_rejection	NA	0
25	Single	46	694	46	9	0	0	52533	692	0	correct_rejection	NA	0
25	Single	47	695	47	7	0	0	53242	692	0	correct_rejection	NA	0
25	Single	48	696	48	8	0	0	53951	691	0	correct_rejection	NA	0
25	Single	49	697	49	9	0	0	54659	692	0	correct_rejection	NA	0
25	Single	50	698	50	6	0	0	55368	691	0	correct_rejection	NA	0
25	Single	51	699	51	8	0	0	56076	692	0	correct_rejection	NA	0
25	Single	52	700	52	8	0	0	56785	692	0	correct_rejection	NA	0
25	Single	53	701	53	5	0	0	57493	692	0	correct_rejection	NA	0
25	Single	54	702	54	8	0	0	58202	692	0	correct_rejection	NA	0
25	Single	55	703	55	7	0	0	58911	691	0	correct_rejection	NA	0
25	Single	56	704	56	7	0	0	59619	692	0	correct_rejection	NA	0
25	Single	57	705	57	4	0	0	60328	691	0	correct_rejection	NA	0
25	Single	58	706	58	0	1	1	61036	692	1	hit	396	0
25	Single	59	707	59	4	0	0	61745	691	0	correct_rejection	NA	0
25	Single	60	708	60	6	0	0	62453	692	0	correct_rejection	NA	0
25	Single	61	709	61	5	0	0	63162	692	0	correct_rejection	NA	0
25	Single	62	710	62	4	0	0	63870	692	0	correct_rejection	NA	0
25	Single	63	711	63	7	0	0	64579	692	0	correct_rejection	NA	0
25	Single	64	712	64	6	0	0	65288	691	0	correct_rejection	NA	0
25	Single	65	713	65	6	0	0	65996	692	0	correct_rejection	NA	0
25	Single	66	714	66	9	0	0	66705	691	0	correct_rejection	NA	0
25	Single	67	715	67	0	1	1	67413	692	1	hit	542	0
25	Single	68	716	68	9	0	0	68122	692	0	correct_rejection	NA	0
25	Single	69	717	69	8	0	0	68830	692	0	correct_rejection	NA	0
25	Single	70	718	70	0	1	1	69539	692	1	hit	583	0
25	Single	71	719	71	6	0	0	70248	691	0	correct_rejection	NA	0
25	Single	72	720	72	4	0	0	70956	692	0	correct_rejection	NA	0
25	Single	73	721	73	5	0	0	71665	691	0	correct_rejection	NA	0
25	Single	74	722	74	5	0	0	72373	692	0	correct_rejection	NA	0
25	Single	75	723	75	0	1	1	73082	692	1	hit	440	0
25	Single	76	724	76	6	0	0	73790	692	0	correct_rejection	NA	0
25	Single	77	725	77	7	0	0	74499	692	0	correct_rejection	NA	0
25	Single	78	726	78	0	1	1	75208	691	1	hit	378	0
25	Single	79	727	79	5	0	0	75916	692	0	correct_rejection	NA	0
25	Single	80	728	80	5	0	0	76625	691	0	correct_rejection	NA	0
25	Single	81	729	81	4	0	0	77333	692	0	correct_rejection	NA	0
25	Single	82	730	82	0	1	1	78042	692	1	hit	350	0
25	Single	83	731	83	9	0	0	78750	692	0	correct_rejection	NA	0
25	Single	84	732	84	5	0	0	79459	692	0	correct_rejection	NA	0
25	Single	85	733	85	6	0	0	80168	691	0	correct_rejection	NA	0
25	Single	86	734	86	4	0	0	80876	692	0	correct_rejection	NA	0
25	Single	87	735	87	0	1	1	81585	691	1	hit	377	0
25	Single	88	736	88	7	0	0	82293	692	0	correct_rejection	NA	0
25	Single	89	737	89	9	0	0	83002	691	0	correct_rejection	NA	0
25	Single	90	738	90	8	0	0	83710	692	0	correct_rejection	NA	0
25	Single	91	739	91	8	0	0	84419	692	0	correct_rejection	NA	0
25	Single	92	740	92	7	0	0	85127	692	0	correct_rejection	NA	0
25	Single	93	741	93	8	0	0	85836	692	0	correct_rejection	NA	0
25	Single	94	742	94	0	1	1	86545	691	1	hit	410	0
25	Single	95	743	95	4	0	0	87253	692	0	correct_rejection	NA	0
25	Single	96	744	96	8	0	0	87962	691	0	correct_rejection	NA	0
25	Single	97	745	97	5	0	0	88670	692	0	correct_rejection	NA	0
25	Single	98	746	98	5	0	0	89379	692	0	correct_rejection	NA	0
25	Single	99	747	99	8	0	0	90087	692	0	correct_rejection	NA	0
25	Single	100	748	100	9	0	0	90796	692	0	correct_rejection	NA	0
25	Single	101	749	101	4	0	0	91505	691	0	correct_rejection	NA	0
25	Single	102	750	102	4	0	0	92213	692	0	correct_rejection	NA	0
25	Single	103	751	103	0	1	1	92922	691	1	hit	376	0
25	Single	104	752	104	5	0	0	93630	692	0	correct_rejection	NA	0
25	Single	105	753	105	9	0	0	94339	692	0	correct_rejection	NA	0
25	Single	106	754	106	9	0	0	95047	692	0	correct_rejection	NA	0
25	Single	107	755	107	7	0	0	95756	692	0	correct_rejection	NA	0
25	Single	108	756	108	6	0	0	96465	691	0	correct_rejection	NA	0
25	Single	109	757	109	7	0	0	97173	692	0	correct_rejection	NA	0
25	Single	110	758	110	7	0	0	97882	691	0	correct_rejection	NA	0
25	Single	111	759	111	5	0	0	98590	692	0	correct_rejection	NA	0
25	Single	112	760	112	0	1	1	99299	692	1	hit	376	0
25	Single	113	761	113	7	0	0	100007	692	0	correct_rejection	NA	0
25	Single	114	762	114	4	0	0	100716	692	0	correct_rejection	NA	0
25	Single	115	763	115	6	0	0	101425	691	0	correct_rejection	NA	0
25	Single	116	764	116	9	0	0	102133	692	0	correct_rejection	NA	0
25	Single	117	765	117	6	0	0	102842	691	0	correct_rejection	NA	0
25	Single	118	766	118	6	0	0	103550	692	0	correct_rejection	NA	0
25	Single	119	767	119	8	0	0	104259	691	0	correct_rejection	NA	0
25	Single	120	768	120	6	0	0	104967	692	0	correct_rejection	NA	0
25	Single	121	769	121	0	1	1	105676	692	1	hit	353	0
25	Single	122	770	122	7	0	0	106384	692	0	correct_rejection	NA	0
25	Single	123	771	123	7	0	0	107093	692	0	correct_rejection	NA	0
25	Single	124	772	124	8	0	0	107802	691	0	correct_rejection	NA	0
25	Single	125	773	125	7	0	0	108510	692	0	correct_rejection	NA	0
25	Single	126	774	126	6	0	0	109219	691	0	correct_rejection	NA	0
25	Single	127	775	127	9	0	0	109927	692	0	correct_rejection	NA	0
25	Single	128	776	128	7	0	0	110636	692	0	correct_rejection	NA	0
25	Single	129	777	129	0	1	1	111344	692	1	hit	347	0
25	Single	130	778	130	4	0	0	112053	692	0	correct_rejection	NA	0
25	Single	131	779	131	9	0	0	112762	691	0	correct_rejection	NA	0
25	Single	132	780	132	6	0	0	113470	692	0	correct_rejection	NA	0
25	Single	133	781	133	5	0	0	114179	691	0	correct_rejection	NA	0
25	Single	134	782	134	6	0	0	114887	692	0	correct_rejection	NA	0
25	Single	135	783	135	0	1	1	115596	692	1	hit	371	0
25	Single	136	784	136	6	0	0	116304	692	0	correct_rejection	NA	0
25	Single	137	785	137	7	0	0	117013	692	0	correct_rejection	NA	0
25	Single	138	786	138	9	0	0	117722	691	0	correct_rejection	NA	0
25	Single	139	787	139	9	0	0	118430	692	0	correct_rejection	NA	0
25	Single	140	788	140	4	0	0	119139	691	0	correct_rejection	NA	0
25	Single	141	789	141	5	0	0	119847	692	0	correct_rejection	NA	0
25	Single	142	790	142	8	0	0	120556	692	0	correct_rejection	NA	0
25	Single	143	791	143	6	0	0	121264	692	0	correct_rejection	NA	0
25	Single	144	792	144	8	0	0	121973	692	0	correct_rejection	NA	0
25	Single	145	793	145	9	0	0	122682	691	0	correct_rejection	NA	0
25	Single	146	794	146	5	0	0	123390	692	0	correct_rejection	NA	0
25	Single	147	795	147	7	0	0	124099	691	0	correct_rejection	NA	0
25	Single	148	796	148	5	0	0	124807	692	0	correct_rejection	NA	0
25	Single	149	797	149	5	0	0	125516	691	0	correct_rejection	NA	0
25	Single	150	798	150	9	0	0	126224	692	0	correct_rejection	NA	0
25	Single	151	799	151	8	0	0	126933	692	0	correct_rejection	NA	0
25	Single	152	800	152	0	1	1	127641	692	1	hit	348	0
25	Single	153	801	153	5	0	0	128350	692	0	correct_rejection	NA	0
25	Single	154	802	154	4	0	0	129059	691	0	correct_rejection	NA	0
25	Single	155	803	155	6	0	0	129767	692	0	correct_rejection	NA	0
25	Single	156	804	156	0	1	1	130476	691	1	hit	444	0
25	Single	157	805	157	4	0	0	131184	692	0	correct_rejection	NA	0
25	Single	158	806	158	4	0	0	131893	692	0	correct_rejection	NA	0
25	Single	159	807	159	8	0	0	132601	692	0	correct_rejection	NA	0
25	Single	160	808	160	0	1	1	133310	692	1	hit	435	0
25	Single	161	809	161	8	0	0	134019	691	0	correct_rejection	NA	0
25	Single	162	810	162	4	0	0	134727	692	0	correct_rejection	NA	0
25	Nonet	1	649	163	6	0	0	145131	691	0	correct_rejection	NA	7809
25	Nonet	2	650	164	5	0	0	145839	692	0	correct_rejection	NA	0
25	Nonet	3	651	165	4	0	0	146548	691	0	correct_rejection	NA	0
25	Nonet	4	652	166	6	0	0	147256	692	0	correct_rejection	NA	0
25	Nonet	5	653	167	5	0	0	147965	692	0	correct_rejection	NA	0
25	Nonet	6	654	168	4	0	0	148673	692	0	correct_rejection	NA	0
25	Nonet	7	655	169	6	0	0	149382	692	0	correct_rejection	NA	0
25	Nonet	8	656	170	5	0	0	150091	691	0	correct_rejection	NA	0
25	Nonet	9	657	171	4	0	0	150799	692	0	correct_rejection	NA	0
25	Nonet	10	658	172	9	0	0	151508	691	0	correct_rejection	NA	0
25	Nonet	11	659	173	8	0	0	152216	692	0	correct_rejection	NA	0
25	Nonet	12	660	174	7	0	0	152925	691	0	correct_rejection	NA	0
25	Nonet	13	661	175	9	0	0	153633	692	0	correct_rejection	NA	0
25	Nonet	14	662	176	8	0	0	154342	692	0	correct_rejection	NA	0
25	Nonet	15	663	177	7	0	0	155050	692	0	correct_rejection	NA	0
25	Nonet	16	664	178	0	1	2	155759	692	1	hit	468	0
25	Nonet	17	665	179	9	0	0	156468	691	0	correct_rejection	NA	0
25	Nonet	18	666	180	8	0	0	157176	692	0	correct_rejection	NA	0
25	Nonet	19	667	181	7	0	0	157885	691	0	correct_rejection	NA	0
25	Nonet	20	668	182	0	1	3	158593	692	1	hit	375	0
25	Nonet	21	669	183	4	0	0	159302	692	0	correct_rejection	NA	0
25	Nonet	22	670	184	5	0	0	160010	692	0	correct_rejection	NA	0
25	Nonet	23	671	185	0	1	1	160719	692	1	hit	396	0
25	Nonet	24	672	186	6	0	0	161428	691	0	correct_rejection	NA	0
25	Nonet	25	673	187	4	0	0	162136	692	0	correct_rejection	NA	0
25	Nonet	26	674	188	5	0	0	162845	691	0	correct_rejection	NA	0
25	Nonet	27	675	189	6	0	0	163553	692	0	correct_rejection	NA	0
25	Nonet	28	676	190	4	0	0	164262	692	0	correct_rejection	NA	0
25	Nonet	29	677	191	5	0	0	164970	692	0	correct_rejection	NA	0
25	Nonet	30	678	192	0	1	1	165679	692	1	hit	374	0
25	Nonet	31	679	193	6	0	0	166388	691	0	correct_rejection	NA	0
25	Nonet	32	680	194	4	0	0	167096	692	0	correct_rejection	NA	0
25	Nonet	33	681	195	5	0	0	167805	691	0	correct_rejection	NA	0
25	Nonet	34	682	196	6	0	0	168513	692	0	correct_rejection	NA	0
25	Nonet	35	683	197	4	0	0	169222	692	0	correct_rejection	NA	0
25	Nonet	36	684	198	5	0	0	169930	692	0	correct_rejection	NA	0
25	Nonet	37	685	199	6	0	0	170639	692	0	correct_rejection	NA	0
25	Nonet	38	686	200	4	0	0	171348	691	0	correct_rejection	NA	0
25	Nonet	39	687	201	5	0	0	172056	692	0	correct_rejection	NA	0
25	Nonet	40	688	202	6	0	0	172765	691	0	correct_rejection	NA	0
25	Nonet	41	689	203	6	0	0	173473	692	0	correct_rejection	NA	0
25	Nonet	42	690	204	5	0	0	174182	692	0	correct_rejection	NA	0
25	Nonet	43	691	205	4	0	0	174890	692	0	correct_rejection	NA	0
25	Nonet	44	692	206	6	0	0	175599	692	0	correct_rejection	NA	0
25	Nonet	45	693	207	5	0	0	176307	692	0	correct_rejection	NA	0
25	Nonet	46	694	208	4	0	0	177016	692	0	correct_rejection	NA	0
25	Nonet	47	695	209	6	0	0	177725	691	0	correct_rejection	NA	0
25	Nonet	48	696	210	5	0	0	178433	692	0	correct_rejection	NA	0
25	Nonet	49	697	211	0	1	1	179142	691	1	hit	443	0
25	Nonet	50	698	212	4	0	0	179850	692	0	correct_rejection	NA	0
25	Nonet	51	699	213	6	0	0	180559	692	0	correct_rejection	NA	0
25	Nonet	52	700	214	5	0	0	181267	692	0	correct_rejection	NA	0
25	Nonet	53	701	215	4	0	0	181976	692	0	correct_rejection	NA	0
25	Nonet	54	702	216	6	0	0	182685	691	0	correct_rejection	NA	0
25	Nonet	55	703	217	0	1	1	183393	692	1	hit	406	0
25	Nonet	56	704	218	5	0	0	184102	691	0	correct_rejection	NA	0
25	Nonet	57	705	219	4	0	0	184810	692	0	correct_rejection	NA	0
25	Nonet	58	706	220	0	1	2	185519	692	1	hit	466	0
25	Nonet	59	707	221	6	0	0	186227	692	0	correct_rejection	NA	0
25	Nonet	60	708	222	5	0	0	186936	692	0	correct_rejection	NA	0
25	Nonet	61	709	223	4	0	0	187645	691	0	correct_rejection	NA	0
25	Nonet	62	710	224	4	0	0	188353	692	0	correct_rejection	NA	0
25	Nonet	63	711	225	5	0	0	189062	691	0	correct_rejection	NA	0
25	Nonet	64	712	226	6	0	0	189770	692	0	correct_rejection	NA	0
25	Nonet	65	713	227	4	0	0	190479	692	0	correct_rejection	NA	0
25	Nonet	66	714	228	5	0	0	191187	692	0	correct_rejection	NA	0
25	Nonet	67	715	229	6	0	0	191896	692	0	correct_rejection	NA	0
25	Nonet	68	716	230	4	0	0	192605	691	0	correct_rejection	NA	0
25	Nonet	69	717	231	5	0	0	193313	692	0	correct_rejection	NA	0
25	Nonet	70	718	232	6	0	0	194022	691	0	correct_rejection	NA	0
25	Nonet	71	719	233	7	0	0	194730	692	0	correct_rejection	NA	0
25	Nonet	72	720	234	8	0	0	195439	691	0	correct_rejection	NA	0
25	Nonet	73	721	235	9	0	0	196147	692	0	correct_rejection	NA	0
25	Nonet	74	722	236	0	1	2	196856	692	1	hit	351	0
25	Nonet	75	723	237	7	0	0	197564	692	0	correct_rejection	NA	0
25	Nonet	76	724	238	8	0	0	198273	692	0	correct_rejection	NA	0
25	Nonet	77	725	239	0	1	1	198982	691	1	hit	396	0
25	Nonet	78	726	240	9	0	0	199690	692	0	correct_rejection	NA	0
25	Nonet	79	727	241	7	0	0	200399	691	0	correct_rejection	NA	0
25	Nonet	80	728	242	8	0	0	201107	692	0	correct_rejection	NA	0
25	Nonet	81	729	243	9	0	0	201816	692	0	correct_rejection	NA	0
25	Nonet	82	730	244	6	0	0	202524	692	0	correct_rejection	NA	0
25	Nonet	83	731	245	5	0	0	203233	692	0	correct_rejection	NA	0
25	Nonet	84	732	246	4	0	0	203942	691	0	correct_rejection	NA	0
25	Nonet	85	733	247	6	0	0	204650	692	0	correct_rejection	NA	0
25	Nonet	86	734	248	5	0	0	205359	691	0	correct_rejection	NA	0
25	Nonet	87	735	249	4	0	0	206067	692	0	correct_rejection	NA	0
25	Nonet	88	736	250	0	1	2	206776	692	1	hit	349	0
25	Nonet	89	737	251	6	0	0	207484	692	0	correct_rejection	NA	0
25	Nonet	90	738	252	5	0	0	208193	692	0	correct_rejection	NA	0
25	Nonet	91	739	253	4	0	0	208902	691	0	correct_rejection	NA	0
25	Nonet	92	740	254	7	0	0	209610	692	0	correct_rejection	NA	0
25	Nonet	93	741	255	8	0	0	210319	691	0	correct_rejection	NA	0
25	Nonet	94	742	256	9	0	0	211027	692	0	correct_rejection	NA	0
25	Nonet	95	743	257	7	0	0	211736	691	0	correct_rejection	NA	0
25	Nonet	96	744	258	8	0	0	212444	692	0	correct_rejection	NA	0
25	Nonet	97	745	259	9	0	0	213153	692	0	correct_rejection	NA	0
25	Nonet	98	746	260	7	0	0	213862	691	0	correct_rejection	NA	0
25	Nonet	99	747	261	0	1	1	214570	692	1	hit	385	0
25	Nonet	100	748	262	8	0	0	215279	691	0	correct_rejection	NA	0
25	Nonet	101	749	263	9	0	0	215987	692	0	correct_rejection	NA	0
25	Nonet	102	750	264	4	0	0	216696	691	0	correct_rejection	NA	0
25	Nonet	103	751	265	0	1	1	217404	692	1	hit	518	0
25	Nonet	104	752	266	5	0	0	218113	692	0	correct_rejection	NA	0
25	Nonet	105	753	267	6	0	0	218821	692	0	correct_rejection	NA	0
25	Nonet	106	754	268	0	1	2	219530	692	1	hit	429	0
25	Nonet	107	755	269	4	0	0	220239	691	0	correct_rejection	NA	0
25	Nonet	108	756	270	5	0	0	220947	692	0	correct_rejection	NA	0
25	Nonet	109	757	271	6	0	0	221656	691	0	correct_rejection	NA	0
25	Nonet	110	758	272	4	0	0	222364	692	0	correct_rejection	NA	0
25	Nonet	111	759	273	5	0	0	223073	692	0	correct_rejection	NA	0
25	Nonet	112	760	274	6	0	0	223781	692	0	correct_rejection	NA	0
25	Nonet	113	761	275	9	0	0	224490	692	0	correct_rejection	NA	0
25	Nonet	114	762	276	8	0	0	225199	691	0	correct_rejection	NA	0
25	Nonet	115	763	277	7	0	0	225907	692	0	correct_rejection	NA	0
25	Nonet	116	764	278	9	0	0	226616	691	0	correct_rejection	NA	0
25	Nonet	117	765	279	0	1	1	227324	692	1	hit	347	0
25	Nonet	118	766	280	8	0	0	228033	692	0	correct_rejection	NA	0
25	Nonet	119	767	281	7	0	0	228741	692	0	correct_rejection	NA	0
25	Nonet	120	768	282	9	0	0	229450	692	0	correct_rejection	NA	0
25	Nonet	121	769	283	8	0	0	230159	691	0	correct_rejection	NA	0
25	Nonet	122	770	284	0	1	1	230867	692	1	hit	373	0
25	Nonet	123	771	285	7	0	0	231576	691	0	correct_rejection	NA	0
25	Nonet	124	772	286	9	0	0	232284	692	0	correct_rejection	NA	0
25	Nonet	125	773	287	8	0	0	232993	691	0	correct_rejection	NA	0
25	Nonet	126	774	288	7	0	0	233701	692	0	correct_rejection	NA	0
25	Nonet	127	775	289	0	1	2	234410	692	1	hit	384	0
25	Nonet	128	776	290	9	0	0	235118	692	0	correct_rejection	NA	0
25	Nonet	129	777	291	8	0	0	235827	692	0	correct_rejection	NA	0
25	Nonet	130	778	292	0	1	1	236536	691	1	hit	515	0
25	Nonet	131	779	293	7	0	0	237244	692	0	correct_rejection	NA	0
25	Nonet	132	780	294	9	0	0	237953	691	0	correct_rejection	NA	0
25	Nonet	133	781	295	8	0	0	238661	692	0	correct_rejection	NA	0
25	Nonet	134	782	296	7	0	0	239370	692	0	correct_rejection	NA	0
25	Nonet	135	783	297	7	0	0	240078	692	0	correct_rejection	NA	0
25	Nonet	136	784	298	8	0	0	240787	692	0	correct_rejection	NA	0
25	Nonet	137	785	299	9	0	0	241496	691	0	correct_rejection	NA	0
25	Nonet	138	786	300	7	0	0	242204	692	0	correct_rejection	NA	0
25	Nonet	139	787	301	8	0	0	242913	691	0	correct_rejection	NA	0
25	Nonet	140	788	302	9	0	0	243621	692	0	correct_rejection	NA	0
25	Nonet	141	789	303	7	0	0	244330	692	0	correct_rejection	NA	0
25	Nonet	142	790	304	8	0	0	245038	692	0	correct_rejection	NA	0
25	Nonet	143	791	305	9	0	0	245747	692	0	correct_rejection	NA	0
25	Nonet	144	792	306	0	1	3	246456	691	1	hit	447	0
25	Nonet	145	793	307	7	0	0	247164	692	0	correct_rejection	NA	0
25	Nonet	146	794	308	8	0	0	247873	691	0	correct_rejection	NA	0
25	Nonet	147	795	309	9	0	0	248581	692	0	correct_rejection	NA	0
25	Nonet	148	796	310	7	0	0	249290	692	0	correct_rejection	NA	0
25	Nonet	149	797	311	8	0	0	249998	692	0	correct_rejection	NA	0
25	Nonet	150	798	312	9	0	0	250707	692	0	correct_rejection	NA	0
25	Nonet	151	799	313	7	0	0	251416	691	0	correct_rejection	NA	0
25	Nonet	152	800	314	8	0	0	252124	692	0	correct_rejection	NA	0
25	Nonet	153	801	315	9	0	0	252833	691	0	correct_rejection	NA	0
25	Nonet	154	802	316	9	0	0	253541	692	0	correct_rejection	NA	0
25	Nonet	155	803	317	8	0	0	254250	691	0	correct_rejection	NA	0
25	Nonet	156	804	318	7	0	0	254958	692	0	correct_rejection	NA	0
25	Nonet	157	805	319	9	0	0	255667	692	0	correct_rejection	NA	0
25	Nonet	158	806	320	8	0	0	256375	692	0	correct_rejection	NA	0
25	Nonet	159	807	321	7	0	0	257084	692	0	correct_rejection	NA	0
25	Nonet	160	808	322	9	0	0	257793	691	0	correct_rejection	NA	0
25	Nonet	161	809	323	8	0	0	258501	692	0	correct_rejection	NA	0
25	Nonet	162	810	324	7	0	0	259210	691	0	correct_rejection	NA	0
25	Single	1	163	325	8	0	0	268304	692	0	correct_rejection	NA	6999
25	Single	2	164	326	6	0	0	269013	692	0	correct_rejection	NA	0
25	Single	3	165	327	7	0	0	269722	691	0	correct_rejection	NA	0
25	Single	4	166	328	5	0	0	270430	692	0	correct_rejection	NA	0
25	Single	5	167	329	0	1	1	271139	691	1	hit	501	0
25	Single	6	168	330	5	0	0	271847	692	0	correct_rejection	NA	0
25	Single	7	169	331	7	0	0	272556	692	0	correct_rejection	NA	0
25	Single	8	170	332	6	0	0	273264	692	0	correct_rejection	NA	0
25	Single	9	171	333	0	1	1	273973	692	1	hit	406	0
25	Single	10	172	334	8	0	0	274682	691	0	correct_rejection	NA	0
25	Single	11	173	335	7	0	0	275390	692	0	correct_rejection	NA	0
25	Single	12	174	336	7	0	0	276099	691	0	correct_rejection	NA	0
25	Single	13	175	337	8	0	0	276807	692	0	correct_rejection	NA	0
25	Single	14	176	338	8	0	0	277516	691	0	correct_rejection	NA	0
25	Single	15	177	339	4	0	0	278224	692	0	correct_rejection	NA	0
25	Single	16	178	340	7	0	0	278933	692	0	correct_rejection	NA	0
25	Single	17	179	341	0	1	1	279641	692	1	hit	335	0
25	Single	18	180	342	9	0	0	280350	692	0	correct_rejection	NA	0
25	Single	19	181	343	6	0	0	281059	691	0	correct_rejection	NA	0
25	Single	20	182	344	5	0	0	281767	692	0	correct_rejection	NA	0
25	Single	21	183	345	9	0	0	282476	691	0	correct_rejection	NA	0
25	Single	22	184	346	7	0	0	283184	692	0	correct_rejection	NA	0
25	Single	23	185	347	4	0	0	283893	692	0	correct_rejection	NA	0
25	Single	24	186	348	4	0	0	284601	692	0	correct_rejection	NA	0
25	Single	25	187	349	0	1	1	285310	692	1	hit	445	0
25	Single	26	188	350	6	0	0	286019	691	0	correct_rejection	NA	0
25	Single	27	189	351	9	0	0	286727	692	0	correct_rejection	NA	0
25	Single	28	190	352	9	0	0	287436	691	0	correct_rejection	NA	0
25	Single	29	191	353	5	0	0	288144	692	0	correct_rejection	NA	0
25	Single	30	192	354	6	0	0	288853	692	0	correct_rejection	NA	0
25	Single	31	193	355	6	0	0	289561	692	0	correct_rejection	NA	0
25	Single	32	194	356	0	1	1	290270	692	1	hit	420	0
25	Single	33	195	357	4	0	0	290979	691	0	correct_rejection	NA	0
25	Single	34	196	358	8	0	0	291687	692	0	correct_rejection	NA	0
25	Single	35	197	359	5	0	0	292396	691	0	correct_rejection	NA	0
25	Single	36	198	360	4	0	0	293104	692	0	correct_rejection	NA	0
25	Single	37	199	361	9	0	0	293813	691	0	correct_rejection	NA	0
25	Single	38	200	362	4	0	0	294521	692	0	correct_rejection	NA	0
25	Single	39	201	363	5	0	0	295230	692	0	correct_rejection	NA	0
25	Single	40	202	364	8	0	0	295938	692	0	correct_rejection	NA	0
25	Single	41	203	365	9	0	0	296647	692	0	correct_rejection	NA	0
25	Single	42	204	366	9	0	0	297356	691	0	correct_rejection	NA	0
25	Single	43	205	367	7	0	0	298064	692	0	correct_rejection	NA	0
25	Single	44	206	368	6	0	0	298773	691	0	correct_rejection	NA	0
25	Single	45	207	369	9	0	0	299481	692	0	correct_rejection	NA	0
25	Single	46	208	370	6	0	0	300190	692	0	correct_rejection	NA	0
25	Single	47	209	371	8	0	0	300898	692	0	correct_rejection	NA	0
25	Single	48	210	372	0	1	1	301607	692	1	hit	412	0
25	Single	49	211	373	4	0	0	302316	691	0	correct_rejection	NA	0
25	Single	50	212	374	8	0	0	303024	692	0	correct_rejection	NA	0
25	Single	51	213	375	8	0	0	303733	691	0	correct_rejection	NA	0
25	Single	52	214	376	0	1	1	304441	692	1	hit	364	0
25	Single	53	215	377	5	0	0	305150	692	0	correct_rejection	NA	0
25	Single	54	216	378	7	0	0	305858	692	0	correct_rejection	NA	0
25	Single	55	217	379	7	0	0	306567	692	0	correct_rejection	NA	0
25	Single	56	218	380	5	0	0	307276	691	0	correct_rejection	NA	0
25	Single	57	219	381	6	0	0	307984	692	0	correct_rejection	NA	0
25	Single	58	220	382	4	0	0	308693	691	0	correct_rejection	NA	0
25	Single	59	221	383	7	0	0	309401	692	0	correct_rejection	NA	0
25	Single	60	222	384	0	1	1	310110	692	1	hit	420	0
25	Single	61	223	385	4	0	0	310818	692	0	correct_rejection	NA	0
25	Single	62	224	386	6	0	0	311527	692	0	correct_rejection	NA	0
25	Single	63	225	387	5	0	0	312236	691	0	correct_rejection	NA	0
25	Single	64	226	388	5	0	0	312944	692	0	correct_rejection	NA	0
25	Single	65	227	389	8	0	0	313653	691	0	correct_rejection	NA	0
25	Single	66	228	390	0	1	1	314361	692	1	hit	424	0
25	Single	67	229	391	7	0	0	315070	691	0	correct_rejection	NA	0
25	Single	68	230	392	8	0	0	315778	692	0	correct_rejection	NA	0
25	Single	69	231	393	9	0	0	316487	692	0	correct_rejection	NA	0
25	Single	70	232	394	0	1	1	317195	692	1	hit	291	0
25	Single	71	233	395	4	0	0	317904	692	0	correct_rejection	NA	0
25	Single	72	234	396	9	0	0	318613	691	0	correct_rejection	NA	0
25	Single	73	235	397	5	0	0	319321	692	0	correct_rejection	NA	0
25	Single	74	236	398	4	0	0	320030	691	0	correct_rejection	NA	0
25	Single	75	237	399	4	0	0	320738	692	0	correct_rejection	NA	0
25	Single	76	238	400	5	0	0	321447	692	0	correct_rejection	NA	0
25	Single	77	239	401	0	1	1	322155	692	1	hit	466	0
25	Single	78	240	402	9	0	0	322864	692	0	correct_rejection	NA	0
25	Single	79	241	403	9	0	0	323573	691	0	correct_rejection	NA	0
25	Single	80	242	404	8	0	0	324281	692	0	correct_rejection	NA	0
25	Single	81	243	405	6	0	0	324990	691	0	correct_rejection	NA	0
25	Single	82	244	406	6	0	0	325698	692	0	correct_rejection	NA	0
25	Single	83	245	407	7	0	0	326407	692	0	correct_rejection	NA	0
25	Single	84	246	408	7	0	0	327115	692	0	correct_rejection	NA	0
25	Single	85	247	409	5	0	0	327824	692	0	correct_rejection	NA	0
25	Single	86	248	410	7	0	0	328533	691	0	correct_rejection	NA	0
25	Single	87	249	411	9	0	0	329241	692	0	correct_rejection	NA	0
25	Single	88	250	412	9	0	0	329950	691	0	correct_rejection	NA	0
25	Single	89	251	413	7	0	0	330658	692	0	correct_rejection	NA	0
25	Single	90	252	414	7	0	0	331367	692	0	correct_rejection	NA	0
25	Single	91	253	415	4	0	0	332075	692	0	correct_rejection	NA	0
25	Single	92	254	416	8	0	0	332784	692	0	correct_rejection	NA	0
25	Single	93	255	417	7	0	0	333493	691	0	correct_rejection	NA	0
25	Single	94	256	418	6	0	0	334201	692	0	correct_rejection	NA	0
25	Single	95	257	419	5	0	0	334910	691	0	correct_rejection	NA	0
25	Single	96	258	420	6	0	0	335618	692	0	correct_rejection	NA	0
25	Single	97	259	421	7	0	0	336327	691	0	correct_rejection	NA	0
25	Single	98	260	422	8	0	0	337035	692	0	correct_rejection	NA	0
25	Single	99	261	423	5	0	0	337744	692	0	correct_rejection	NA	0
25	Single	100	262	424	9	0	0	338452	692	0	correct_rejection	NA	0
25	Single	101	263	425	4	0	0	339161	692	0	correct_rejection	NA	0
25	Single	102	264	426	4	0	0	339870	691	0	correct_rejection	NA	0
25	Single	103	265	427	9	0	0	340578	692	0	correct_rejection	NA	0
25	Single	104	266	428	0	1	1	341287	691	1	hit	558	0
25	Single	105	267	429	8	0	0	341995	692	0	correct_rejection	NA	0
25	Single	106	268	430	9	0	0	342704	692	0	correct_rejection	NA	0
25	Single	107	269	431	6	0	0	343412	692	0	correct_rejection	NA	0
25	Single	108	270	432	9	0	0	344121	692	0	correct_rejection	NA	0
25	Single	109	271	433	0	1	1	344830	691	1	hit	564	0
25	Single	110	272	434	5	0	0	345538	692	0	correct_rejection	NA	0
25	Single	111	273	435	8	0	0	346247	691	0	correct_rejection	NA	0
25	Single	112	274	436	4	0	0	346955	692	0	correct_rejection	NA	0
25	Single	113	275	437	5	0	0	347664	692	0	correct_rejection	NA	0
25	Single	114	276	438	5	0	0	348372	692	0	correct_rejection	NA	0
25	Single	115	277	439	4	0	0	349081	692	0	correct_rejection	NA	0
25	Single	116	278	440	6	0	0	349790	691	0	correct_rejection	NA	0
25	Single	117	279	441	6	0	0	350498	692	0	correct_rejection	NA	0
25	Single	118	280	442	8	0	0	351207	691	0	correct_rejection	NA	0
25	Single	119	281	443	8	0	0	351915	692	0	correct_rejection	NA	0
25	Single	120	282	444	6	0	0	352624	692	0	correct_rejection	NA	0
25	Single	121	283	445	4	0	0	353332	692	0	correct_rejection	NA	0
25	Single	122	284	446	8	0	0	354041	692	0	correct_rejection	NA	0
25	Single	123	285	447	4	0	0	354750	691	0	correct_rejection	NA	0
25	Single	124	286	448	6	0	0	355458	692	0	correct_rejection	NA	0
25	Single	125	287	449	0	1	1	356167	691	1	hit	454	0
25	Single	126	288	450	9	0	0	356875	692	0	correct_rejection	NA	0
25	Single	127	289	451	8	0	0	357584	691	0	correct_rejection	NA	0
25	Single	128	290	452	8	0	0	358292	692	0	correct_rejection	NA	0
25	Single	129	291	453	0	1	1	359001	692	1	hit	600	0
25	Single	130	292	454	9	0	0	359709	692	0	correct_rejection	NA	0
25	Single	131	293	455	5	0	0	360418	692	0	correct_rejection	NA	0
25	Single	132	294	456	9	0	0	361127	691	0	correct_rejection	NA	0
25	Single	133	295	457	7	0	0	361835	692	0	correct_rejection	NA	0
25	Single	134	296	458	5	0	0	362544	691	0	correct_rejection	NA	0
25	Single	135	297	459	8	0	0	363252	692	0	correct_rejection	NA	0
25	Single	136	298	460	5	0	0	363961	692	0	correct_rejection	NA	0
25	Single	137	299	461	5	0	0	364669	692	0	correct_rejection	NA	0
25	Single	138	300	462	6	0	0	365378	692	0	correct_rejection	NA	0
25	Single	139	301	463	8	0	0	366087	691	0	correct_rejection	NA	0
25	Single	140	302	464	0	1	1	366795	692	1	hit	451	0
25	Single	141	303	465	6	0	0	367504	691	0	correct_rejection	NA	0
25	Single	142	304	466	7	0	0	368212	692	0	correct_rejection	NA	0
25	Single	143	305	467	9	0	0	368921	692	0	correct_rejection	NA	0
25	Single	144	306	468	6	0	0	369629	692	0	correct_rejection	NA	0
25	Single	145	307	469	0	1	1	370338	692	1	hit	491	0
25	Single	146	308	470	5	0	0	371047	691	0	correct_rejection	NA	0
25	Single	147	309	471	4	0	0	371755	692	0	correct_rejection	NA	0
25	Single	148	310	472	0	1	1	372464	691	1	hit	413	0
25	Single	149	311	473	5	0	0	373172	692	0	correct_rejection	NA	0
25	Single	150	312	474	7	0	0	373881	692	0	correct_rejection	NA	0
25	Single	151	313	475	8	0	0	374589	692	0	correct_rejection	NA	0
25	Single	152	314	476	7	0	0	375298	692	0	correct_rejection	NA	0
25	Single	153	315	477	4	0	0	376006	692	0	correct_rejection	NA	0
25	Single	154	316	478	4	0	0	376715	692	0	correct_rejection	NA	0
25	Single	155	317	479	7	0	0	377424	691	0	correct_rejection	NA	0
25	Single	156	318	480	7	0	0	378132	692	0	correct_rejection	NA	0
25	Single	157	319	481	6	0	0	378841	691	0	correct_rejection	NA	0
25	Single	158	320	482	6	0	0	379549	692	0	correct_rejection	NA	0
25	Single	159	321	483	4	0	0	380258	692	0	correct_rejection	NA	0
25	Single	160	322	484	9	0	0	380966	692	0	correct_rejection	NA	0
25	Single	161	323	485	9	0	0	381675	692	0	correct_rejection	NA	0
25	Single	162	324	486	4	0	0	382384	691	0	correct_rejection	NA	0
25	Correct	1	325	487	4	0	0	392103	692	0	correct_rejection	NA	7799
25	Correct	2	326	488	5	0	0	392812	692	0	correct_rejection	NA	0
25	Correct	3	327	489	6	0	0	393521	691	0	correct_rejection	NA	0
25	Correct	4	328	490	4	0	0	394229	692	0	correct_rejection	NA	0
25	Correct	5	329	491	5	0	0	394938	691	0	correct_rejection	NA	0
25	Correct	6	330	492	6	0	0	395646	692	0	correct_rejection	NA	0
25	Correct	7	331	493	4	0	0	396355	692	0	correct_rejection	NA	0
25	Correct	8	332	494	5	0	0	397063	692	0	correct_rejection	NA	0
25	Correct	9	333	495	6	0	0	397772	692	0	correct_rejection	NA	0
25	Correct	10	334	496	0	1	3	398481	691	1	hit	448	0
25	Correct	11	335	497	6	0	0	399189	692	0	correct_rejection	NA	0
25	Correct	12	336	498	5	0	0	399898	691	0	correct_rejection	NA	0
25	Correct	13	337	499	4	0	0	400606	692	0	correct_rejection	NA	0
25	Correct	14	338	500	6	0	0	401315	692	0	correct_rejection	NA	0
25	Correct	15	339	501	5	0	0	402023	692	0	correct_rejection	NA	0
25	Correct	16	340	502	4	0	0	402732	692	0	correct_rejection	NA	0
25	Correct	17	341	503	6	0	0	403441	691	0	correct_rejection	NA	0
25	Correct	18	342	504	0	1	1	404149	692	1	hit	388	0
25	Correct	19	343	505	5	0	0	404858	691	0	correct_rejection	NA	0
25	Correct	20	344	506	4	0	0	405566	692	0	correct_rejection	NA	0
25	Correct	21	345	507	9	0	0	406275	691	0	correct_rejection	NA	0
25	Correct	22	346	508	8	0	0	406983	692	0	correct_rejection	NA	0
25	Correct	23	347	509	7	0	0	407692	692	0	correct_rejection	NA	0
25	Correct	24	348	510	0	1	2	408400	692	1	hit	411	0
25	Correct	25	349	511	9	0	0	409109	692	0	correct_rejection	NA	0
25	Correct	26	350	512	8	0	0	409818	691	0	correct_rejection	NA	0
25	Correct	27	351	513	7	0	0	410526	692	0	correct_rejection	NA	0
25	Correct	28	352	514	9	0	0	411235	691	0	correct_rejection	NA	0
25	Correct	29	353	515	8	0	0	411943	692	0	correct_rejection	NA	0
25	Correct	30	354	516	7	0	0	412652	692	0	correct_rejection	NA	0
25	Correct	31	355	517	7	0	0	413360	692	0	correct_rejection	NA	0
25	Correct	32	356	518	8	0	0	414069	692	0	correct_rejection	NA	0
25	Correct	33	357	519	9	0	0	414778	691	0	correct_rejection	NA	0
25	Correct	34	358	520	7	0	0	415486	692	0	correct_rejection	NA	0
25	Correct	35	359	521	8	0	0	416195	691	0	correct_rejection	NA	0
25	Correct	36	360	522	9	0	0	416903	692	0	correct_rejection	NA	0
25	Correct	37	361	523	7	0	0	417612	692	0	correct_rejection	NA	0
25	Correct	38	362	524	0	1	1	418320	692	1	hit	433	0
25	Correct	39	363	525	8	0	0	419029	692	0	correct_rejection	NA	0
25	Correct	40	364	526	9	0	0	419738	691	0	correct_rejection	NA	0
25	Correct	41	365	527	4	0	0	420446	692	0	correct_rejection	NA	0
25	Correct	42	366	528	5	0	0	421155	691	0	correct_rejection	NA	0
25	Correct	43	367	529	6	0	0	421863	692	0	correct_rejection	NA	0
25	Correct	44	368	530	4	0	0	422572	692	0	correct_rejection	NA	0
25	Correct	45	369	531	5	0	0	423280	692	0	correct_rejection	NA	0
25	Correct	46	370	532	6	0	0	423989	692	0	correct_rejection	NA	0
25	Correct	47	371	533	4	0	0	424698	691	0	correct_rejection	NA	0
25	Correct	48	372	534	0	1	1	425406	692	1	hit	408	0
25	Correct	49	373	535	5	0	0	426115	691	0	correct_rejection	NA	0
25	Correct	50	374	536	6	0	0	426823	692	0	correct_rejection	NA	0
25	Correct	51	375	537	6	0	0	427532	691	0	correct_rejection	NA	0
25	Correct	52	376	538	5	0	0	428240	692	0	correct_rejection	NA	0
25	Correct	53	377	539	4	0	0	428949	692	0	correct_rejection	NA	0
25	Correct	54	378	540	6	0	0	429657	692	0	correct_rejection	NA	0
25	Correct	55	379	541	5	0	0	430366	692	0	correct_rejection	NA	0
25	Correct	56	380	542	4	0	0	431075	691	0	correct_rejection	NA	0
25	Correct	57	381	543	6	0	0	431783	692	0	correct_rejection	NA	0
25	Correct	58	382	544	5	0	0	432492	691	0	correct_rejection	NA	0
25	Correct	59	383	545	4	0	0	433200	692	0	correct_rejection	NA	0
25	Correct	60	384	546	9	0	0	433909	692	0	correct_rejection	NA	0
25	Correct	61	385	547	8	0	0	434617	692	0	correct_rejection	NA	0
25	Correct	62	386	548	7	0	0	435326	692	0	correct_rejection	NA	0
25	Correct	63	387	549	9	0	0	436035	691	0	correct_rejection	NA	0
25	Correct	64	388	550	8	0	0	436743	692	0	correct_rejection	NA	0
25	Correct	65	389	551	0	1	1	437452	691	1	hit	424	0
25	Correct	66	390	552	7	0	0	438160	692	0	correct_rejection	NA	0
25	Correct	67	391	553	9	0	0	438869	692	0	correct_rejection	NA	0
25	Correct	68	392	554	8	0	0	439577	692	0	correct_rejection	NA	0
25	Correct	69	393	555	7	0	0	440286	692	0	correct_rejection	NA	0
25	Correct	70	394	556	7	0	0	440995	691	0	correct_rejection	NA	0
25	Correct	71	395	557	8	0	0	441703	692	0	correct_rejection	NA	0
25	Correct	72	396	558	9	0	0	442412	691	0	correct_rejection	NA	0
25	Correct	73	397	559	0	1	2	443120	692	1	hit	354	0
25	Correct	74	398	560	7	0	0	443829	691	0	correct_rejection	NA	0
25	Correct	75	399	561	8	0	0	444537	692	0	correct_rejection	NA	0
25	Correct	76	400	562	0	1	1	445246	692	1	hit	396	0
25	Correct	77	401	563	9	0	0	445955	691	0	correct_rejection	NA	0
25	Correct	78	402	564	7	0	0	446663	692	0	correct_rejection	NA	0
25	Correct	79	403	565	8	0	0	447372	691	0	correct_rejection	NA	0
25	Correct	80	404	566	0	1	1	448080	692	0	miss	NA	0
25	Correct	81	405	567	9	0	0	448789	691	1	false_alarm	23	0
25	Correct	82	406	568	4	0	0	449497	692	0	correct_rejection	NA	0
25	Correct	83	407	569	5	0	0	450206	692	0	correct_rejection	NA	0
25	Correct	84	408	570	0	1	1	450914	692	1	hit	492	0
25	Correct	85	409	571	6	0	0	451623	692	0	correct_rejection	NA	0
25	Correct	86	410	572	4	0	0	452332	691	0	correct_rejection	NA	0
25	Correct	87	411	573	5	0	0	453040	692	0	correct_rejection	NA	0
25	Correct	88	412	574	6	0	0	453749	691	0	correct_rejection	NA	0
25	Correct	89	413	575	4	0	0	454457	692	0	correct_rejection	NA	0
25	Correct	90	414	576	5	0	0	455166	692	0	correct_rejection	NA	0
25	Correct	91	415	577	6	0	0	455874	692	0	correct_rejection	NA	0
25	Correct	92	416	578	6	0	0	456583	692	0	correct_rejection	NA	0
25	Correct	93	417	579	5	0	0	457292	691	0	correct_rejection	NA	0
25	Correct	94	418	580	4	0	0	458000	692	0	correct_rejection	NA	0
25	Correct	95	419	581	6	0	0	458709	691	0	correct_rejection	NA	0
25	Correct	96	420	582	5	0	0	459417	692	0	correct_rejection	NA	0
25	Correct	97	421	583	4	0	0	460126	692	0	correct_rejection	NA	0
25	Correct	98	422	584	6	0	0	460834	692	0	correct_rejection	NA	0
25	Correct	99	423	585	5	0	0	461543	692	0	correct_rejection	NA	0
25	Correct	100	424	586	4	0	0	462252	691	0	correct_rejection	NA	0
25	Correct	101	425	587	9	0	0	462960	692	0	correct_rejection	NA	0
25	Correct	102	426	588	8	0	0	463669	691	0	correct_rejection	NA	0
25	Correct	103	427	589	7	0	0	464377	692	0	correct_rejection	NA	0
25	Correct	104	428	590	0	1	2	465086	691	1	hit	410	0
25	Correct	105	429	591	9	0	0	465794	692	0	correct_rejection	NA	0
25	Correct	106	430	592	8	0	0	466503	692	0	correct_rejection	NA	0
25	Correct	107	431	593	7	0	0	467211	692	0	correct_rejection	NA	0
25	Correct	108	432	594	9	0	0	467920	692	0	correct_rejection	NA	0
25	Correct	109	433	595	8	0	0	468629	691	0	correct_rejection	NA	0
25	Correct	110	434	596	7	0	0	469337	692	0	correct_rejection	NA	0
25	Correct	111	435	597	0	1	3	470046	691	1	hit	376	0
25	Correct	112	436	598	7	0	0	470754	692	0	correct_rejection	NA	0
25	Correct	113	437	599	8	0	0	471463	692	0	correct_rejection	NA	0
25	Correct	114	438	600	9	0	0	472171	692	0	correct_rejection	NA	0
25	Correct	115	439	601	7	0	0	472880	692	0	correct_rejection	NA	0
25	Correct	116	440	602	0	1	1	473589	691	1	hit	405	0
25	Correct	117	441	603	8	0	0	474297	692	0	correct_rejection	NA	0
25	Correct	118	442	604	9	0	0	475006	691	0	correct_rejection	NA	0
25	Correct	119	443	605	7	0	0	475714	692	0	correct_rejection	NA	0
25	Correct	120	444	606	0	1	1	476423	692	1	hit	473	0
25	Correct	121	445	607	8	0	0	477131	692	0	correct_rejection	NA	0
25	Correct	122	446	608	9	0	0	477840	692	0	correct_rejection	NA	0
25	Correct	123	447	609	4	0	0	478549	691	0	correct_rejection	NA	0
25	Correct	124	448	610	5	0	0	479257	692	0	correct_rejection	NA	0
25	Correct	125	449	611	6	0	0	479966	691	0	correct_rejection	NA	0
25	Correct	126	450	612	4	0	0	480674	692	0	correct_rejection	NA	0
25	Correct	127	451	613	0	1	1	481383	692	1	hit	396	0
25	Correct	128	452	614	5	0	0	482091	692	0	correct_rejection	NA	0
25	Correct	129	453	615	6	0	0	482800	692	0	correct_rejection	NA	0
25	Correct	130	454	616	4	0	0	483509	691	0	correct_rejection	NA	0
25	Correct	131	455	617	5	0	0	484217	692	0	correct_rejection	NA	0
25	Correct	132	456	618	6	0	0	484926	691	0	correct_rejection	NA	0
25	Correct	133	457	619	6	0	0	485634	692	0	correct_rejection	NA	0
25	Correct	134	458	620	5	0	0	486343	691	0	correct_rejection	NA	0
25	Correct	135	459	621	0	1	1	487051	692	1	hit	411	0
25	Correct	136	460	622	4	0	0	487760	692	0	correct_rejection	NA	0
25	Correct	137	461	623	6	0	0	488468	692	0	correct_rejection	NA	0
25	Correct	138	462	624	5	0	0	489177	692	0	correct_rejection	NA	0
25	Correct	139	463	625	4	0	0	489886	691	0	correct_rejection	NA	0
25	Correct	140	464	626	6	0	0	490594	692	0	correct_rejection	NA	0
25	Correct	141	465	627	5	0	0	491303	691	0	correct_rejection	NA	0
25	Correct	142	466	628	4	0	0	492011	692	0	correct_rejection	NA	0
25	Correct	143	467	629	9	0	0	492720	692	0	correct_rejection	NA	0
25	Correct	144	468	630	8	0	0	493428	692	0	correct_rejection	NA	0
25	Correct	145	469	631	7	0	0	494137	692	0	correct_rejection	NA	0
25	Correct	146	470	632	9	0	0	494846	691	0	correct_rejection	NA	0
25	Correct	147	471	633	0	1	1	495554	692	1	hit	644	0
25	Correct	148	472	634	8	0	0	496263	691	0	correct_rejection	NA	0
25	Correct	149	473	635	7	0	0	496971	692	0	correct_rejection	NA	0
25	Correct	150	474	636	9	0	0	497680	692	0	correct_rejection	NA	0
25	Correct	151	475	637	8	0	0	498388	692	0	correct_rejection	NA	0
25	Correct	152	476	638	7	0	0	499097	692	0	correct_rejection	NA	0
25	Correct	153	477	639	7	0	0	499806	691	0	correct_rejection	NA	0
25	Correct	154	478	640	8	0	0	500514	692	0	correct_rejection	NA	0
25	Correct	155	479	641	9	0	0	501223	691	0	correct_rejection	NA	0
25	Correct	156	480	642	0	1	2	501931	692	1	hit	350	0
25	Correct	157	481	643	7	0	0	502640	692	0	correct_rejection	NA	0
25	Correct	158	482	644	8	0	0	503348	692	0	correct_rejection	NA	0
25	Correct	159	483	645	9	0	0	504057	692	0	correct_rejection	NA	0
25	Correct	160	484	646	7	0	0	504766	691	0	correct_rejection	NA	0
25	Correct	161	485	647	8	0	0	505474	692	0	correct_rejection	NA	0
25	Correct	162	486	648	9	0	0	506183	691	0	correct_rejection	NA	0
25	Triplet	1	325	649	6	0	0	514685	692	0	correct_rejection	NA	6379
25	Triplet	2	326	650	5	0	0	515394	692	0	correct_rejection	NA	0
25	Triplet	3	327	651	4	0	0	516103	691	0	correct_rejection	NA	0
25	Triplet	4	328	652	6	0	0	516811	692	0	correct_rejection	NA	0
25	Triplet	5	329	653	5	0	0	517520	691	0	correct_rejection	NA	0
25	Triplet	6	330	654	4	0	0	518228	692	0	correct_rejection	NA	0
25	Triplet	7	331	655	9	0	0	518937	692	0	correct_rejection	NA	0
25	Triplet	8	332	656	8	0	0	519645	692	0	correct_rejection	NA	0
25	Triplet	9	333	657	7	0	0	520354	692	0	correct_rejection	NA	0
25	Triplet	10	334	658	9	0	0	521063	691	0	correct_rejection	NA	0
25	Triplet	11	335	659	8	0	0	521771	692	0	correct_rejection	NA	0
25	Triplet	12	336	660	7	0	0	522480	691	0	correct_rejection	NA	0
25	Triplet	13	337	661	7	0	0	523188	692	0	correct_rejection	NA	0
25	Triplet	14	338	662	0	1	1	523897	691	1	hit	429	0
25	Triplet	15	339	663	8	0	0	524605	692	0	correct_rejection	NA	0
25	Triplet	16	340	664	9	0	0	525314	692	0	correct_rejection	NA	0
25	Triplet	17	341	665	9	0	0	526023	691	0	correct_rejection	NA	0
25	Triplet	18	342	666	8	0	0	526731	692	0	correct_rejection	NA	0
25	Triplet	19	343	667	7	0	0	527440	691	0	correct_rejection	NA	0
25	Triplet	20	344	668	6	0	0	528148	692	0	correct_rejection	NA	0
25	Triplet	21	345	669	5	0	0	528857	691	0	correct_rejection	NA	0
25	Triplet	22	346	670	4	0	0	529565	692	0	correct_rejection	NA	0
25	Triplet	23	347	671	7	0	0	530274	692	0	correct_rejection	NA	0
25	Triplet	24	348	672	8	0	0	530982	692	0	correct_rejection	NA	0
25	Triplet	25	349	673	9	0	0	531691	692	0	correct_rejection	NA	0
25	Triplet	26	350	674	4	0	0	532400	691	0	correct_rejection	NA	0
25	Triplet	27	351	675	5	0	0	533108	692	0	correct_rejection	NA	0
25	Triplet	28	352	676	6	0	0	533817	691	0	correct_rejection	NA	0
25	Triplet	29	353	677	6	0	0	534525	692	0	correct_rejection	NA	0
25	Triplet	30	354	678	0	1	1	535234	692	1	hit	435	0
25	Triplet	31	355	679	5	0	0	535942	692	0	correct_rejection	NA	0
25	Triplet	32	356	680	4	0	0	536651	692	0	correct_rejection	NA	0
25	Triplet	33	357	681	4	0	0	537360	691	0	correct_rejection	NA	0
25	Triplet	34	358	682	5	0	0	538068	692	0	correct_rejection	NA	0
25	Triplet	35	359	683	6	0	0	538777	691	0	correct_rejection	NA	0
25	Triplet	36	360	684	9	0	0	539485	692	0	correct_rejection	NA	0
25	Triplet	37	361	685	8	0	0	540194	692	0	correct_rejection	NA	0
25	Triplet	38	362	686	7	0	0	540902	692	0	correct_rejection	NA	0
25	Triplet	39	363	687	4	0	0	541611	692	0	correct_rejection	NA	0
25	Triplet	40	364	688	5	0	0	542320	691	0	correct_rejection	NA	0
25	Triplet	41	365	689	6	0	0	543028	692	0	correct_rejection	NA	0
25	Triplet	42	366	690	4	0	0	543737	691	0	correct_rejection	NA	0
25	Triplet	43	367	691	0	1	1	544445	692	1	hit	434	0
25	Triplet	44	368	692	5	0	0	545154	691	0	correct_rejection	NA	0
25	Triplet	45	369	693	6	0	0	545862	692	0	correct_rejection	NA	0
25	Triplet	46	370	694	7	0	0	546571	692	0	correct_rejection	NA	0
25	Triplet	47	371	695	8	0	0	547279	692	0	correct_rejection	NA	0
25	Triplet	48	372	696	9	0	0	547988	692	0	correct_rejection	NA	0
25	Triplet	49	373	697	7	0	0	548697	691	0	correct_rejection	NA	0
25	Triplet	50	374	698	8	0	0	549405	692	0	correct_rejection	NA	0
25	Triplet	51	375	699	9	0	0	550114	691	0	correct_rejection	NA	0
25	Triplet	52	376	700	0	1	2	550822	692	1	hit	487	0
25	Triplet	53	377	701	6	0	0	551531	692	0	correct_rejection	NA	0
25	Triplet	54	378	702	5	0	0	552239	692	0	correct_rejection	NA	0
25	Triplet	55	379	703	4	0	0	552948	692	0	correct_rejection	NA	0
25	Triplet	56	380	704	0	1	2	553657	691	1	hit	435	0
25	Triplet	57	381	705	7	0	0	554365	692	0	correct_rejection	NA	0
25	Triplet	58	382	706	8	0	0	555074	691	0	correct_rejection	NA	0
25	Triplet	59	383	707	9	0	0	555782	692	0	correct_rejection	NA	0
25	Triplet	60	384	708	9	0	0	556491	692	0	correct_rejection	NA	0
25	Triplet	61	385	709	8	0	0	557199	692	0	correct_rejection	NA	0
25	Triplet	62	386	710	7	0	0	557908	692	0	correct_rejection	NA	0
25	Triplet	63	387	711	4	0	0	558617	691	0	correct_rejection	NA	0
25	Triplet	64	388	712	5	0	0	559325	692	0	correct_rejection	NA	0
25	Triplet	65	389	713	6	0	0	560034	691	0	correct_rejection	NA	0
25	Triplet	66	390	714	7	0	0	560742	692	0	correct_rejection	NA	0
25	Triplet	67	391	715	8	0	0	561451	692	0	correct_rejection	NA	0
25	Triplet	68	392	716	0	1	1	562159	692	1	hit	335	0
25	Triplet	69	393	717	9	0	0	562868	692	0	correct_rejection	NA	0
25	Triplet	70	394	718	4	0	0	563577	691	0	correct_rejection	NA	0
25	Triplet	71	395	719	5	0	0	564285	692	0	correct_rejection	NA	0
25	Triplet	72	396	720	0	1	1	564994	691	1	hit	437	0
25	Triplet	73	397	721	6	0	0	565702	692	0	correct_rejection	NA	0
25	Triplet	74	398	722	4	0	0	566411	691	0	correct_rejection	NA	0
25	Triplet	75	399	723	0	1	1	567119	692	1	hit	423	0
25	Triplet	76	400	724	5	0	0	567828	692	0	correct_rejection	NA	0
25	Triplet	77	401	725	6	0	0	568536	692	0	correct_rejection	NA	0
25	Triplet	78	402	726	9	0	0	569245	692	0	correct_rejection	NA	0
25	Triplet	79	403	727	0	1	1	569954	691	1	hit	394	0
25	Triplet	80	404	728	8	0	0	570662	692	0	correct_rejection	NA	0
25	Triplet	81	405	729	7	0	0	571371	691	0	correct_rejection	NA	0
25	Triplet	82	406	730	9	0	0	572079	692	0	correct_rejection	NA	0
25	Triplet	83	407	731	8	0	0	572788	692	0	correct_rejection	NA	0
25	Triplet	84	408	732	7	0	0	573496	692	0	correct_rejection	NA	0
25	Triplet	85	409	733	6	0	0	574205	692	0	correct_rejection	NA	0
25	Triplet	86	410	734	5	0	0	574914	691	0	correct_rejection	NA	0
25	Triplet	87	411	735	4	0	0	575622	692	0	correct_rejection	NA	0
25	Triplet	88	412	736	4	0	0	576331	691	0	correct_rejection	NA	0
25	Triplet	89	413	737	5	0	0	577039	692	0	correct_rejection	NA	0
25	Triplet	90	414	738	6	0	0	577748	692	0	correct_rejection	NA	0
25	Triplet	91	415	739	6	0	0	578456	692	0	correct_rejection	NA	0
25	Triplet	92	416	740	5	0	0	579165	692	0	correct_rejection	NA	0
25	Triplet	93	417	741	4	0	0	579874	691	0	correct_rejection	NA	0
25	Triplet	94	418	742	9	0	0	580582	692	0	correct_rejection	NA	0
25	Triplet	95	419	743	8	0	0	581291	691	0	correct_rejection	NA	0
25	Triplet	96	420	744	7	0	0	581999	692	0	correct_rejection	NA	0
25	Triplet	97	421	745	0	1	2	582708	692	1	hit	449	0
25	Triplet	98	422	746	7	0	0	583416	692	0	correct_rejection	NA	0
25	Triplet	99	423	747	8	0	0	584125	692	0	correct_rejection	NA	0
25	Triplet	100	424	748	9	0	0	584834	691	0	correct_rejection	NA	0
25	Triplet	101	425	749	7	0	0	585542	692	0	correct_rejection	NA	0
25	Triplet	102	426	750	8	0	0	586251	691	0	correct_rejection	NA	0
25	Triplet	103	427	751	9	0	0	586959	692	0	correct_rejection	NA	0
25	Triplet	104	428	752	6	0	0	587668	691	0	correct_rejection	NA	0
25	Triplet	105	429	753	5	0	0	588376	692	0	correct_rejection	NA	0
25	Triplet	106	430	754	4	0	0	589085	692	0	correct_rejection	NA	0
25	Triplet	107	431	755	0	1	2	589793	692	1	hit	453	0
25	Triplet	108	432	756	6	0	0	590502	692	0	correct_rejection	NA	0
25	Triplet	109	433	757	5	0	0	591211	691	0	correct_rejection	NA	0
25	Triplet	110	434	758	0	1	1	591919	692	1	hit	432	0
25	Triplet	111	435	759	4	0	0	592628	691	0	correct_rejection	NA	0
25	Triplet	112	436	760	9	0	0	593336	692	0	correct_rejection	NA	0
25	Triplet	113	437	761	8	0	0	594045	692	0	correct_rejection	NA	0
25	Triplet	114	438	762	7	0	0	594753	692	0	correct_rejection	NA	0
25	Triplet	115	439	763	4	0	0	595462	692	0	correct_rejection	NA	0
25	Triplet	116	440	764	5	0	0	596171	691	0	correct_rejection	NA	0
25	Triplet	117	441	765	6	0	0	596879	692	0	correct_rejection	NA	0
25	Triplet	118	442	766	9	0	0	597588	691	0	correct_rejection	NA	0
25	Triplet	119	443	767	8	0	0	598296	692	0	correct_rejection	NA	0
25	Triplet	120	444	768	7	0	0	599005	692	0	correct_rejection	NA	0
25	Triplet	121	445	769	7	0	0	599713	692	0	correct_rejection	NA	0
25	Triplet	122	446	770	8	0	0	600422	692	0	correct_rejection	NA	0
25	Triplet	123	447	771	9	0	0	601131	691	0	correct_rejection	NA	0
25	Triplet	124	448	772	6	0	0	601839	692	0	correct_rejection	NA	0
25	Triplet	125	449	773	5	0	0	602548	691	0	correct_rejection	NA	0
25	Triplet	126	450	774	4	0	0	603256	692	0	correct_rejection	NA	0
25	Triplet	127	451	775	4	0	0	603965	692	0	correct_rejection	NA	0
25	Triplet	128	452	776	0	1	1	604673	692	1	hit	451	0
25	Triplet	129	453	777	5	0	0	605382	692	0	correct_rejection	NA	0
25	Triplet	130	454	778	6	0	0	606091	691	0	correct_rejection	NA	0
25	Triplet	131	455	779	0	1	2	606799	692	1	hit	404	0
25	Triplet	132	456	780	4	0	0	607508	691	0	correct_rejection	NA	0
25	Triplet	133	457	781	5	0	0	608216	692	0	correct_rejection	NA	0
25	Triplet	134	458	782	6	0	0	608925	691	0	correct_rejection	NA	0
25	Triplet	135	459	783	6	0	0	609633	692	0	correct_rejection	NA	0
25	Triplet	136	460	784	5	0	0	610342	692	0	correct_rejection	NA	0
25	Triplet	137	461	785	4	0	0	611050	692	0	correct_rejection	NA	0
25	Triplet	138	462	786	6	0	0	611759	692	0	correct_rejection	NA	0
25	Triplet	139	463	787	5	0	0	612468	691	0	correct_rejection	NA	0
25	Triplet	140	464	788	0	1	1	613176	692	1	hit	597	0
25	Triplet	141	465	789	4	0	0	613885	691	0	correct_rejection	NA	0
25	Triplet	142	466	790	7	0	0	614593	692	0	correct_rejection	NA	0
25	Triplet	143	467	791	8	0	0	615302	692	0	correct_rejection	NA	0
25	Triplet	144	468	792	9	0	0	616010	692	0	correct_rejection	NA	0
25	Triplet	145	469	793	7	0	0	616719	692	0	correct_rejection	NA	0
25	Triplet	146	470	794	8	0	0	617428	691	0	correct_rejection	NA	0
25	Triplet	147	471	795	9	0	0	618136	692	0	correct_rejection	NA	0
25	Triplet	148	472	796	4	0	0	618845	691	0	correct_rejection	NA	0
25	Triplet	149	473	797	5	0	0	619553	692	0	correct_rejection	NA	0
25	Triplet	150	474	798	6	0	0	620262	692	0	correct_rejection	NA	0
25	Triplet	151	475	799	0	1	2	620970	692	1	hit	407	0
25	Triplet	152	476	800	7	0	0	621679	692	0	correct_rejection	NA	0
25	Triplet	153	477	801	8	0	0	622388	691	0	correct_rejection	NA	0
25	Triplet	154	478	802	0	1	1	623096	692	1	hit	438	0
25	Triplet	155	479	803	9	0	0	623805	691	0	correct_rejection	NA	0
25	Triplet	156	480	804	9	0	0	624513	692	0	correct_rejection	NA	0
25	Triplet	157	481	805	8	0	0	625222	691	0	correct_rejection	NA	0
25	Triplet	158	482	806	7	0	0	625930	692	0	correct_rejection	NA	0
25	Triplet	159	483	807	9	0	0	626639	692	0	correct_rejection	NA	0
25	Triplet	160	484	808	0	1	1	627347	692	1	hit	369	0
25	Triplet	161	485	809	8	0	0	628056	692	0	correct_rejection	NA	0
25	Triplet	162	486	810	7	0	0	628765	691	0	correct_rejection	NA	0
trigger nr 621 at 631265
trigger nr 625 at 744986
25	Correct	1	649	811	4	0	0	752972	692	0	correct_rejection	NA	7949
25	Correct	2	650	812	5	0	0	753681	691	0	correct_rejection	NA	0
25	Correct	3	651	813	6	0	0	754389	692	0	correct_rejection	NA	0
25	Correct	4	652	814	4	0	0	755098	692	0	correct_rejection	NA	0
25	Correct	5	653	815	5	0	0	755806	692	0	correct_rejection	NA	0
25	Correct	6	654	816	6	0	0	756515	692	0	correct_rejection	NA	0
25	Correct	7	655	817	4	0	0	757224	691	0	correct_rejection	NA	0
25	Correct	8	656	818	5	0	0	757932	692	0	correct_rejection	NA	0
25	Correct	9	657	819	6	0	0	758641	691	0	correct_rejection	NA	0
25	Correct	10	658	820	6	0	0	759349	692	0	correct_rejection	NA	0
25	Correct	11	659	821	5	0	0	760058	692	0	correct_rejection	NA	0
25	Correct	12	660	822	4	0	0	760766	692	0	correct_rejection	NA	0
25	Correct	13	661	823	6	0	0	761475	692	0	correct_rejection	NA	0
25	Correct	14	662	824	5	0	0	762184	691	0	correct_rejection	NA	0
25	Correct	15	663	825	4	0	0	762892	692	0	correct_rejection	NA	0
25	Correct	16	664	826	6	0	0	763601	691	0	correct_rejection	NA	0
25	Correct	17	665	827	5	0	0	764309	692	0	correct_rejection	NA	0
25	Correct	18	666	828	4	0	0	765018	691	0	correct_rejection	NA	0
25	Correct	19	667	829	9	0	0	765726	692	0	correct_rejection	NA	0
25	Correct	20	668	830	8	0	0	766435	692	0	correct_rejection	NA	0
25	Correct	21	669	831	7	0	0	767143	692	0	correct_rejection	NA	0
25	Correct	22	670	832	0	1	2	767852	692	1	hit	378	0
25	Correct	23	671	833	9	0	0	768561	691	0	correct_rejection	NA	0
25	Correct	24	672	834	8	0	0	769269	692	0	correct_rejection	NA	0
25	Correct	25	673	835	7	0	0	769978	691	0	correct_rejection	NA	0
25	Correct	26	674	836	9	0	0	770686	692	0	correct_rejection	NA	0
25	Correct	27	675	837	8	0	0	771395	692	0	correct_rejection	NA	0
25	Correct	28	676	838	7	0	0	772103	692	0	correct_rejection	NA	0
25	Correct	29	677	839	7	0	0	772812	692	0	correct_rejection	NA	0
25	Correct	30	678	840	8	0	0	773521	691	0	correct_rejection	NA	0
25	Correct	31	679	841	9	0	0	774229	692	0	correct_rejection	NA	0
25	Correct	32	680	842	7	0	0	774938	691	0	correct_rejection	NA	0
25	Correct	33	681	843	8	0	0	775646	692	0	correct_rejection	NA	0
25	Correct	34	682	844	9	0	0	776355	692	0	correct_rejection	NA	0
25	Correct	35	683	845	0	1	2	777063	692	1	hit	357	0
25	Correct	36	684	846	7	0	0	777772	692	0	correct_rejection	NA	0
25	Correct	37	685	847	8	0	0	778481	691	0	correct_rejection	NA	0
25	Correct	38	686	848	9	0	0	779189	692	0	correct_rejection	NA	0
25	Correct	39	687	849	0	1	4	779898	691	1	hit	417	0
25	Correct	40	688	850	4	0	0	780606	692	0	correct_rejection	NA	0
25	Correct	41	689	851	5	0	0	781315	691	0	correct_rejection	NA	0
25	Correct	42	690	852	6	0	0	782023	692	0	correct_rejection	NA	0
25	Correct	43	691	853	4	0	0	782732	692	0	correct_rejection	NA	0
25	Correct	44	692	854	0	1	1	783441	691	1	hit	413	0
25	Correct	45	693	855	5	0	0	784149	692	0	correct_rejection	NA	0
25	Correct	46	694	856	6	0	0	784858	691	0	correct_rejection	NA	0
25	Correct	47	695	857	4	0	0	785566	692	0	correct_rejection	NA	0
25	Correct	48	696	858	5	0	0	786275	691	0	correct_rejection	NA	0
25	Correct	49	697	859	6	0	0	786983	692	0	correct_rejection	NA	0
25	Correct	50	698	860	6	0	0	787692	692	0	correct_rejection	NA	0
25	Correct	51	699	861	5	0	0	788400	692	0	correct_rejection	NA	0
25	Correct	52	700	862	4	0	0	789109	692	0	correct_rejection	NA	0
25	Correct	53	701	863	6	0	0	789818	691	0	correct_rejection	NA	0
25	Correct	54	702	864	5	0	0	790526	692	0	correct_rejection	NA	0
25	Correct	55	703	865	4	0	0	791235	691	0	correct_rejection	NA	0
25	Correct	56	704	866	6	0	0	791943	692	0	correct_rejection	NA	0
25	Correct	57	705	867	5	0	0	792652	692	0	correct_rejection	NA	0
25	Correct	58	706	868	0	1	1	793360	692	1	hit	419	0
25	Correct	59	707	869	4	0	0	794069	692	0	correct_rejection	NA	0
25	Correct	60	708	870	9	0	0	794778	691	0	correct_rejection	NA	0
25	Correct	61	709	871	8	0	0	795486	692	0	correct_rejection	NA	0
25	Correct	62	710	872	7	0	0	796195	691	0	correct_rejection	NA	0
25	Correct	63	711	873	9	0	0	796903	692	0	correct_rejection	NA	0
25	Correct	64	712	874	0	1	1	797612	692	1	hit	453	0
25	Correct	65	713	875	8	0	0	798320	692	0	correct_rejection	NA	0
25	Correct	66	714	876	7	0	0	799029	692	0	correct_rejection	NA	0
25	Correct	67	715	877	9	0	0	799738	691	0	correct_rejection	NA	0
25	Correct	68	716	878	8	0	0	800446	692	0	correct_rejection	NA	0
25	Correct	69	717	879	7	0	0	801155	691	0	correct_rejection	NA	0
25	Correct	70	718	880	7	0	0	801863	692	0	correct_rejection	NA	0
25	Correct	71	719	881	8	0	0	802572	691	0	correct_rejection	NA	0
25	Correct	72	720	882	9	0	0	803280	692	0	correct_rejection	NA	0
25	Correct	73	721	883	7	0	0	803989	692	0	correct_rejection	NA	0
25	Correct	74	722	884	8	0	0	804697	692	0	correct_rejection	NA	0
25	Correct	75	723	885	9	0	0	805406	692	0	correct_rejection	NA	0
25	Correct	76	724	886	7	0	0	806115	691	0	correct_rejection	NA	0
25	Correct	77	725	887	0	1	1	806823	692	1	hit	482	0
25	Correct	78	726	888	8	0	0	807532	691	0	correct_rejection	NA	0
25	Correct	79	727	889	9	0	0	808240	692	0	correct_rejection	NA	0
25	Correct	80	728	890	4	0	0	808949	692	0	correct_rejection	NA	0
25	Correct	81	729	891	5	0	0	809657	692	0	correct_rejection	NA	0
25	Correct	82	730	892	6	0	0	810366	692	0	correct_rejection	NA	0
25	Correct	83	731	893	4	0	0	811075	691	0	correct_rejection	NA	0
25	Correct	84	732	894	5	0	0	811783	692	0	correct_rejection	NA	0
25	Correct	85	733	895	6	0	0	812492	691	0	correct_rejection	NA	0
25	Correct	86	734	896	4	0	0	813200	692	0	correct_rejection	NA	0
25	Correct	87	735	897	5	0	0	813909	692	0	correct_rejection	NA	0
25	Correct	88	736	898	6	0	0	814617	692	0	correct_rejection	NA	0
25	Correct	89	737	899	6	0	0	815326	692	0	correct_rejection	NA	0
25	Correct	90	738	900	5	0	0	816035	691	0	correct_rejection	NA	0
25	Correct	91	739	901	4	0	0	816743	692	0	correct_rejection	NA	0
25	Correct	92	740	902	6	0	0	817452	691	0	correct_rejection	NA	0
25	Correct	93	741	903	0	1	1	818160	692	1	hit	409	0
25	Correct	94	742	904	5	0	0	818869	692	0	correct_rejection	NA	0
25	Correct	95	743	905	4	0	0	819577	692	0	correct_rejection	NA	0
25	Correct	96	744	906	6	0	0	820286	692	0	correct_rejection	NA	0
25	Correct	97	745	907	5	0	0	820995	691	0	correct_rejection	NA	0
25	Correct	98	746	908	4	0	0	821703	692	0	correct_rejection	NA	0
25	Correct	99	747	909	0	1	3	822412	691	1	hit	443	0
25	Correct	100	748	910	9	0	0	823120	692	0	correct_rejection	NA	0
25	Correct	101	749	911	8	0	0	823829	691	0	correct_rejection	NA	0
25	Correct	102	750	912	7	0	0	824537	692	0	correct_rejection	NA	0
25	Correct	103	751	913	9	0	0	825246	692	0	correct_rejection	NA	0
25	Correct	104	752	914	8	0	0	825954	692	0	correct_rejection	NA	0
25	Correct	105	753	915	7	0	0	826663	692	0	correct_rejection	NA	0
25	Correct	106	754	916	9	0	0	827372	691	0	correct_rejection	NA	0
25	Correct	107	755	917	8	0	0	828080	692	0	correct_rejection	NA	0
25	Correct	108	756	918	7	0	0	828789	691	0	correct_rejection	NA	0
25	Correct	109	757	919	0	1	3	829497	692	1	hit	576	0
25	Correct	110	758	920	7	0	0	830206	692	0	correct_rejection	NA	0
25	Correct	111	759	921	8	0	0	830914	692	0	correct_rejection	NA	0
25	Correct	112	760	922	9	0	0	831623	692	0	correct_rejection	NA	0
25	Correct	113	761	923	0	1	2	832332	691	1	hit	479	0
25	Correct	114	762	924	7	0	0	833040	692	0	correct_rejection	NA	0
25	Correct	115	763	925	8	0	0	833749	691	0	correct_rejection	NA	0
25	Correct	116	764	926	9	0	0	834457	692	0	correct_rejection	NA	0
25	Correct	117	765	927	7	0	0	835166	692	0	correct_rejection	NA	0
25	Correct	118	766	928	8	0	0	835874	692	0	correct_rejection	NA	0
25	Correct	119	767	929	9	0	0	836583	692	0	correct_rejection	NA	0
25	Correct	120	768	930	4	0	0	837292	691	0	correct_rejection	NA	0
25	Correct	121	769	931	0	1	1	838000	692	1	hit	514	0
25	Correct	122	770	932	5	0	0	838709	691	0	correct_rejection	NA	0
25	Correct	123	771	933	6	0	0	839417	692	0	correct_rejection	NA	0
25	Correct	124	772	934	4	0	0	840126	692	0	correct_rejection	NA	0
25	Correct	125	773	935	5	0	0	840834	692	0	correct_rejection	NA	0
25	Correct	126	774	936	0	1	1	841543	692	1	hit	364	0
25	Correct	127	775	937	6	0	0	842252	691	0	correct_rejection	NA	0
25	Correct	128	776	938	4	0	0	842960	692	0	correct_rejection	NA	0
25	Correct	129	777	939	5	0	0	843669	691	0	correct_rejection	NA	0
25	Correct	130	778	940	6	0	0	844377	692	0	correct_rejection	NA	0
25	Correct	131	779	941	6	0	0	845086	691	0	correct_rejection	NA	0
25	Correct	132	780	942	5	0	0	845794	692	0	correct_rejection	NA	0
25	Correct	133	781	943	0	1	1	846503	692	1	hit	327	0
25	Correct	134	782	944	4	0	0	847211	692	0	correct_rejection	NA	0
25	Correct	135	783	945	6	0	0	847920	692	0	correct_rejection	NA	0
25	Correct	136	784	946	0	1	1	848629	691	1	hit	370	0
25	Correct	137	785	947	5	0	0	849337	692	0	correct_rejection	NA	0
25	Correct	138	786	948	4	0	0	850046	691	0	correct_rejection	NA	0
25	Correct	139	787	949	6	0	0	850754	692	0	correct_rejection	NA	0
25	Correct	140	788	950	5	0	0	851463	692	0	correct_rejection	NA	0
25	Correct	141	789	951	4	0	0	852171	692	0	correct_rejection	NA	0
25	Correct	142	790	952	9	0	0	852880	692	0	correct_rejection	NA	0
25	Correct	143	791	953	8	0	0	853589	691	0	correct_rejection	NA	0
25	Correct	144	792	954	0	1	1	854297	692	1	hit	438	0
25	Correct	145	793	955	7	0	0	855006	691	0	correct_rejection	NA	0
25	Correct	146	794	956	9	0	0	855714	692	0	correct_rejection	NA	0
25	Correct	147	795	957	8	0	0	856423	692	0	correct_rejection	NA	0
25	Correct	148	796	958	7	0	0	857131	692	0	correct_rejection	NA	0
25	Correct	149	797	959	9	0	0	857840	692	0	correct_rejection	NA	0
25	Correct	150	798	960	8	0	0	858549	691	0	correct_rejection	NA	0
25	Correct	151	799	961	7	0	0	859257	692	0	correct_rejection	NA	0
25	Correct	152	800	962	7	0	0	859966	691	0	correct_rejection	NA	0
25	Correct	153	801	963	8	0	0	860674	692	0	correct_rejection	NA	0
25	Correct	154	802	964	9	0	0	861383	691	0	correct_rejection	NA	0
25	Correct	155	803	965	7	0	0	862091	692	0	correct_rejection	NA	0
25	Correct	156	804	966	8	0	0	862800	692	0	correct_rejection	NA	0
25	Correct	157	805	967	0	1	1	863508	692	1	hit	435	0
25	Correct	158	806	968	9	0	0	864217	692	0	correct_rejection	NA	0
25	Correct	159	807	969	7	0	0	864926	691	0	correct_rejection	NA	0
25	Correct	160	808	970	8	0	0	865634	692	0	correct_rejection	NA	0
25	Correct	161	809	971	0	1	1	866343	691	1	hit	455	0
25	Correct	162	810	972	9	0	0	867051	692	0	correct_rejection	NA	0
25	Nonet	1	325	973	4	0	0	876546	692	0	correct_rejection	NA	7529
25	Nonet	2	326	974	5	0	0	877255	691	0	correct_rejection	NA	0
25	Nonet	3	327	975	6	0	0	877963	692	0	correct_rejection	NA	0
25	Nonet	4	328	976	4	0	0	878672	692	0	correct_rejection	NA	0
25	Nonet	5	329	977	5	0	0	879380	692	0	correct_rejection	NA	0
25	Nonet	6	330	978	6	0	0	880089	692	0	correct_rejection	NA	0
25	Nonet	7	331	979	0	1	2	880798	691	1	hit	505	0
25	Nonet	8	332	980	4	0	0	881506	692	0	correct_rejection	NA	0
25	Nonet	9	333	981	5	0	0	882215	691	0	correct_rejection	NA	0
25	Nonet	10	334	982	6	0	0	882923	692	0	correct_rejection	NA	0
25	Nonet	11	335	983	6	0	0	883632	691	0	correct_rejection	NA	0
25	Nonet	12	336	984	0	1	1	884340	692	1	hit	622	0
25	Nonet	13	337	985	5	0	0	885049	692	0	correct_rejection	NA	0
25	Nonet	14	338	986	4	0	0	885757	692	0	correct_rejection	NA	0
25	Nonet	15	339	987	6	0	0	886466	692	0	correct_rejection	NA	0
25	Nonet	16	340	988	5	0	0	887175	691	0	correct_rejection	NA	0
25	Nonet	17	341	989	4	0	0	887883	692	0	correct_rejection	NA	0
25	Nonet	18	342	990	6	0	0	888592	691	0	correct_rejection	NA	0
25	Nonet	19	343	991	5	0	0	889300	692	0	correct_rejection	NA	0
25	Nonet	20	344	992	4	0	0	890009	692	0	correct_rejection	NA	0
25	Nonet	21	345	993	4	0	0	890717	692	0	correct_rejection	NA	0
25	Nonet	22	346	994	5	0	0	891426	692	0	correct_rejection	NA	0
25	Nonet	23	347	995	6	0	0	892135	691	0	correct_rejection	NA	0
25	Nonet	24	348	996	4	0	0	892843	692	0	correct_rejection	NA	0
25	Nonet	25	349	997	0	1	1	893552	691	1	hit	411	0
25	Nonet	26	350	998	5	0	0	894260	692	0	correct_rejection	NA	0
25	Nonet	27	351	999	6	0	0	894969	692	0	correct_rejection	NA	0
25	Nonet	28	352	1000	4	0	0	895677	692	0	correct_rejection	NA	0
25	Nonet	29	353	1001	5	0	0	896386	692	0	correct_rejection	NA	0
25	Nonet	30	354	1002	6	0	0	897095	691	0	correct_rejection	NA	0
25	Nonet	31	355	1003	9	0	0	897803	692	0	correct_rejection	NA	0
25	Nonet	32	356	1004	8	0	0	898512	691	0	correct_rejection	NA	0
25	Nonet	33	357	1005	7	0	0	899220	692	0	correct_rejection	NA	0
25	Nonet	34	358	1006	9	0	0	899929	691	0	correct_rejection	NA	0
25	Nonet	35	359	1007	8	0	0	900637	692	0	correct_rejection	NA	0
25	Nonet	36	360	1008	7	0	0	901346	692	0	correct_rejection	NA	0
25	Nonet	37	361	1009	9	0	0	902055	691	0	correct_rejection	NA	0
25	Nonet	38	362	1010	8	0	0	902763	692	0	correct_rejection	NA	0
25	Nonet	39	363	1011	7	0	0	903472	691	0	correct_rejection	NA	0
25	Nonet	40	364	1012	4	0	0	904180	692	0	correct_rejection	NA	0
25	Nonet	41	365	1013	5	0	0	904889	691	0	correct_rejection	NA	0
25	Nonet	42	366	1014	6	0	0	905597	692	0	correct_rejection	NA	0
25	Nonet	43	367	1015	4	0	0	906306	692	0	correct_rejection	NA	0
25	Nonet	44	368	1016	5	0	0	907014	692	0	correct_rejection	NA	0
25	Nonet	45	369	1017	0	1	1	907723	692	1	hit	410	0
25	Nonet	46	370	1018	6	0	0	908432	691	0	correct_rejection	NA	0
25	Nonet	47	371	1019	4	0	0	909140	692	0	correct_rejection	NA	0
25	Nonet	48	372	1020	5	0	0	909849	691	0	correct_rejection	NA	0
25	Nonet	49	373	1021	6	0	0	910557	692	0	correct_rejection	NA	0
25	Nonet	50	374	1022	7	0	0	911266	692	0	correct_rejection	NA	0
25	Nonet	51	375	1023	0	1	1	911974	692	1	hit	407	0
25	Nonet	52	376	1024	8	0	0	912683	692	0	correct_rejection	NA	0
25	Nonet	53	377	1025	9	0	0	913392	691	0	correct_rejection	NA	0
25	Nonet	54	378	1026	7	0	0	914100	692	0	correct_rejection	NA	0
25	Nonet	55	379	1027	8	0	0	914809	691	0	correct_rejection	NA	0
25	Nonet	56	380	1028	9	0	0	915517	692	0	correct_rejection	NA	0
25	Nonet	57	381	1029	7	0	0	916226	692	0	correct_rejection	NA	0
25	Nonet	58	382	1030	8	0	0	916934	692	0	correct_rejection	NA	0
25	Nonet	59	383	1031	9	0	0	917643	692	0	correct_rejection	NA	0
25	Nonet	60	384	1032	9	0	0	918352	691	0	correct_rejection	NA	0
25	Nonet	61	385	1033	8	0	0	919060	692	0	correct_rejection	NA	0
25	Nonet	62	386	1034	7	0	0	919769	691	0	correct_rejection	NA	0
25	Nonet	63	387	1035	9	0	0	920477	692	0	correct_rejection	NA	0
25	Nonet	64	388	1036	8	0	0	921186	691	0	correct_rejection	NA	0
25	Nonet	65	389	1037	0	1	1	921894	692	1	hit	441	0
25	Nonet	66	390	1038	7	0	0	922603	692	0	correct_rejection	NA	0
25	Nonet	67	391	1039	9	0	0	923311	692	0	correct_rejection	NA	0
25	Nonet	68	392	1040	8	0	0	924020	692	0	correct_rejection	NA	0
25	Nonet	69	393	1041	7	0	0	924729	691	0	correct_rejection	NA	0
25	Nonet	70	394	1042	0	1	3	925437	692	1	hit	412	0
25	Nonet	71	395	1043	9	0	0	926146	691	0	correct_rejection	NA	0
25	Nonet	72	396	1044	8	0	0	926854	692	0	correct_rejection	NA	0
25	Nonet	73	397	1045	7	0	0	927563	692	0	correct_rejection	NA	0
25	Nonet	74	398	1046	9	0	0	928271	692	0	correct_rejection	NA	0
25	Nonet	75	399	1047	8	0	0	928980	692	0	correct_rejection	NA	0
25	Nonet	76	400	1048	7	0	0	929689	691	0	correct_rejection	NA	0
25	Nonet	77	401	1049	9	0	0	930397	692	0	correct_rejection	NA	0
25	Nonet	78	402	1050	0	1	1	931106	691	1	hit	540	0
25	Nonet	79	403	1051	8	0	0	931814	692	0	correct_rejection	NA	0
25	Nonet	80	404	1052	7	0	0	932523	692	0	correct_rejection	NA	0
25	Nonet	81	405	1053	6	0	0	933231	692	0	correct_rejection	NA	0
25	Nonet	82	406	1054	5	0	0	933940	692	0	correct_rejection	NA	0
25	Nonet	83	407	1055	4	0	0	934649	691	0	correct_rejection	NA	0
25	Nonet	84	408	1056	0	1	2	935357	692	1	hit	432	0
25	Nonet	85	409	1057	6	0	0	936066	691	0	correct_rejection	NA	0
25	Nonet	86	410	1058	5	0	0	936774	692	0	correct_rejection	NA	0
25	Nonet	87	411	1059	4	0	0	937483	692	0	correct_rejection	NA	0
25	Nonet	88	412	1060	6	0	0	938191	692	0	correct_rejection	NA	0
25	Nonet	89	413	1061	5	0	0	938900	692	0	correct_rejection	NA	0
25	Nonet	90	414	1062	4	0	0	939609	691	0	correct_rejection	NA	0
25	Nonet	91	415	1063	7	0	0	940317	692	0	correct_rejection	NA	0
25	Nonet	92	416	1064	8	0	0	941026	691	0	correct_rejection	NA	0
25	Nonet	93	417	1065	9	0	0	941734	692	0	correct_rejection	NA	0
25	Nonet	94	418	1066	7	0	0	942443	691	0	correct_rejection	NA	0
25	Nonet	95	419	1067	8	0	0	943151	692	0	correct_rejection	NA	0
25	Nonet	96	420	1068	9	0	0	943860	692	0	correct_rejection	NA	0
25	Nonet	97	421	1069	7	0	0	944568	692	0	correct_rejection	NA	0
25	Nonet	98	422	1070	8	0	0	945277	692	0	correct_rejection	NA	0
25	Nonet	99	423	1071	9	0	0	945986	691	0	correct_rejection	NA	0
25	Nonet	100	424	1072	6	0	0	946694	692	0	correct_rejection	NA	0
25	Nonet	101	425	1073	0	1	1	947403	691	1	hit	519	0
25	Nonet	102	426	1074	5	0	0	948111	692	0	correct_rejection	NA	0
25	Nonet	103	427	1075	4	0	0	948820	692	0	correct_rejection	NA	0
25	Nonet	104	428	1076	6	0	0	949528	692	0	correct_rejection	NA	0
25	Nonet	105	429	1077	5	0	0	950237	692	0	correct_rejection	NA	0
25	Nonet	106	430	1078	4	0	0	950946	691	0	correct_rejection	NA	0
25	Nonet	107	431	1079	6	0	0	951654	692	0	correct_rejection	NA	0
25	Nonet	108	432	1080	5	0	0	952363	691	0	correct_rejection	NA	0
25	Nonet	109	433	1081	4	0	0	953071	692	0	correct_rejection	NA	0
25	Nonet	110	434	1082	0	1	3	953780	692	1	hit	385	0
25	Nonet	111	435	1083	6	0	0	954488	692	0	correct_rejection	NA	0
25	Nonet	112	436	1084	5	0	0	955197	692	0	correct_rejection	NA	0
25	Nonet	113	437	1085	0	1	1	955906	691	1	hit	442	0
25	Nonet	114	438	1086	4	0	0	956614	692	0	correct_rejection	NA	0
25	Nonet	115	439	1087	6	0	0	957323	691	0	correct_rejection	NA	0
25	Nonet	116	440	1088	5	0	0	958031	692	0	correct_rejection	NA	0
25	Nonet	117	441	1089	4	0	0	958740	692	0	correct_rejection	NA	0
25	Nonet	118	442	1090	6	0	0	959448	692	0	correct_rejection	NA	0
25	Nonet	119	443	1091	5	0	0	960157	692	0	correct_rejection	NA	0
25	Nonet	120	444	1092	4	0	0	960866	691	0	correct_rejection	NA	0
25	Nonet	121	445	1093	9	0	0	961574	692	0	correct_rejection	NA	0
25	Nonet	122	446	1094	8	0	0	962283	691	0	correct_rejection	NA	0
25	Nonet	123	447	1095	0	1	1	962991	692	1	hit	341	0
25	Nonet	124	448	1096	7	0	0	963700	691	0	correct_rejection	NA	0
25	Nonet	125	449	1097	9	0	0	964408	692	0	correct_rejection	NA	0
25	Nonet	126	450	1098	8	0	0	965117	692	0	correct_rejection	NA	0
25	Nonet	127	451	1099	7	0	0	965825	692	0	correct_rejection	NA	0
25	Nonet	128	452	1100	9	0	0	966534	692	0	correct_rejection	NA	0
25	Nonet	129	453	1101	8	0	0	967243	691	0	correct_rejection	NA	0
25	Nonet	130	454	1102	7	0	0	967951	692	0	correct_rejection	NA	0
25	Nonet	131	455	1103	0	1	3	968660	691	1	hit	335	0
25	Nonet	132	456	1104	7	0	0	969368	692	0	correct_rejection	NA	0
25	Nonet	133	457	1105	8	0	0	970077	692	0	correct_rejection	NA	0
25	Nonet	134	458	1106	9	0	0	970785	692	0	correct_rejection	NA	0
25	Nonet	135	459	1107	7	0	0	971494	692	0	correct_rejection	NA	0
25	Nonet	136	460	1108	8	0	0	972203	691	0	correct_rejection	NA	0
25	Nonet	137	461	1109	0	1	1	972911	692	1	hit	377	0
25	Nonet	138	462	1110	9	0	0	973620	691	0	correct_rejection	NA	0
25	Nonet	139	463	1111	7	0	0	974328	692	0	correct_rejection	NA	0
25	Nonet	140	464	1112	8	0	0	975037	692	0	correct_rejection	NA	0
25	Nonet	141	465	1113	9	0	0	975745	692	0	correct_rejection	NA	0
25	Nonet	142	466	1114	0	1	3	976454	692	1	hit	344	0
25	Nonet	143	467	1115	7	0	0	977163	691	0	correct_rejection	NA	0
25	Nonet	144	468	1116	8	0	0	977871	692	0	correct_rejection	NA	0
25	Nonet	145	469	1117	9	0	0	978580	691	0	correct_rejection	NA	0
25	Nonet	146	470	1118	7	0	0	979288	692	0	correct_rejection	NA	0
25	Nonet	147	471	1119	8	0	0	979997	692	0	correct_rejection	NA	0
25	Nonet	148	472	1120	9	0	0	980705	692	0	correct_rejection	NA	0
25	Nonet	149	473	1121	7	0	0	981414	692	0	correct_rejection	NA	0
25	Nonet	150	474	1122	8	0	0	982122	692	0	correct_rejection	NA	0
25	Nonet	151	475	1123	9	0	0	982831	692	0	correct_rejection	NA	0
25	Nonet	152	476	1124	4	0	0	983540	691	0	correct_rejection	NA	0
25	Nonet	153	477	1125	5	0	0	984248	692	0	correct_rejection	NA	0
25	Nonet	154	478	1126	0	1	1	984957	691	1	hit	434	0
25	Nonet	155	479	1127	6	0	0	985665	692	0	correct_rejection	NA	0
25	Nonet	156	480	1128	4	0	0	986374	692	0	correct_rejection	NA	0
25	Nonet	157	481	1129	0	1	1	987082	692	1	hit	441	0
25	Nonet	158	482	1130	5	0	0	987791	692	0	correct_rejection	NA	0
25	Nonet	159	483	1131	6	0	0	988500	691	0	correct_rejection	NA	0
25	Nonet	160	484	1132	4	0	0	989208	692	0	correct_rejection	NA	0
25	Nonet	161	485	1133	5	0	0	989917	691	0	correct_rejection	NA	0
25	Nonet	162	486	1134	6	0	0	990625	692	0	correct_rejection	NA	0
25	Triplet	1	649	1135	4	0	0	1000737	692	0	correct_rejection	NA	7719
25	Triplet	2	650	1136	5	0	0	1001446	691	0	correct_rejection	NA	0
25	Triplet	3	651	1137	6	0	0	1002154	692	0	correct_rejection	NA	0
25	Triplet	4	652	1138	6	0	0	1002863	691	0	correct_rejection	NA	0
25	Triplet	5	653	1139	5	0	0	1003571	692	0	correct_rejection	NA	0
25	Triplet	6	654	1140	4	0	0	1004280	691	0	correct_rejection	NA	0
25	Triplet	7	655	1141	4	0	0	1004988	692	0	correct_rejection	NA	0
25	Triplet	8	656	1142	5	0	0	1005697	692	0	correct_rejection	NA	0
25	Triplet	9	657	1143	6	0	0	1006405	692	0	correct_rejection	NA	0
25	Triplet	10	658	1144	9	0	0	1007114	692	0	correct_rejection	NA	0
25	Triplet	11	659	1145	0	1	1	1007823	691	1	hit	393	0
25	Triplet	12	660	1146	8	0	0	1008531	692	0	correct_rejection	NA	0
25	Triplet	13	661	1147	7	0	0	1009240	691	0	correct_rejection	NA	0
25	Triplet	14	662	1148	6	0	0	1009948	692	0	correct_rejection	NA	0
25	Triplet	15	663	1149	0	1	1	1010657	692	1	hit	430	0
25	Triplet	16	664	1150	5	0	0	1011365	692	0	correct_rejection	NA	0
25	Triplet	17	665	1151	4	0	0	1012074	692	0	correct_rejection	NA	0
25	Triplet	18	666	1152	6	0	0	1012783	691	0	correct_rejection	NA	0
25	Triplet	19	667	1153	5	0	0	1013491	692	0	correct_rejection	NA	0
25	Triplet	20	668	1154	4	0	0	1014200	691	0	correct_rejection	NA	0
25	Triplet	21	669	1155	7	0	0	1014908	692	0	correct_rejection	NA	0
25	Triplet	22	670	1156	8	0	0	1015617	692	0	correct_rejection	NA	0
25	Triplet	23	671	1157	9	0	0	1016325	692	0	correct_rejection	NA	0
25	Triplet	24	672	1158	6	0	0	1017034	692	0	correct_rejection	NA	0
25	Triplet	25	673	1159	0	1	1	1017743	691	1	hit	476	0
25	Triplet	26	674	1160	5	0	0	1018451	692	0	correct_rejection	NA	0
25	Triplet	27	675	1161	4	0	0	1019160	691	0	correct_rejection	NA	0
25	Triplet	28	676	1162	9	0	0	1019868	692	0	correct_rejection	NA	0
25	Triplet	29	677	1163	8	0	0	1020577	691	0	correct_rejection	NA	0
25	Triplet	30	678	1164	7	0	0	1021285	692	0	correct_rejection	NA	0
25	Triplet	31	679	1165	7	0	0	1021994	692	0	correct_rejection	NA	0
25	Triplet	32	680	1166	8	0	0	1022703	691	0	correct_rejection	NA	0
25	Triplet	33	681	1167	9	0	0	1023411	692	0	correct_rejection	NA	0
25	Triplet	34	682	1168	4	0	0	1024120	691	0	correct_rejection	NA	0
25	Triplet	35	683	1169	5	0	0	1024828	692	0	correct_rejection	NA	0
25	Triplet	36	684	1170	6	0	0	1025537	691	0	correct_rejection	NA	0
25	Triplet	37	685	1171	4	0	0	1026245	692	0	correct_rejection	NA	0
25	Triplet	38	686	1172	5	0	0	1026954	692	0	correct_rejection	NA	0
25	Triplet	39	687	1173	0	1	1	1027662	692	1	hit	598	0
25	Triplet	40	688	1174	6	0	0	1028371	692	0	correct_rejection	NA	0
25	Triplet	41	689	1175	7	0	0	1029080	691	0	correct_rejection	NA	0
25	Triplet	42	690	1176	8	0	0	1029788	692	0	correct_rejection	NA	0
25	Triplet	43	691	1177	9	0	0	1030497	691	0	correct_rejection	NA	0
25	Triplet	44	692	1178	7	0	0	1031205	692	0	correct_rejection	NA	0
25	Triplet	45	693	1179	8	0	0	1031914	692	0	correct_rejection	NA	0
25	Triplet	46	694	1180	9	0	0	1032622	692	0	correct_rejection	NA	0
25	Triplet	47	695	1181	9	0	0	1033331	692	0	correct_rejection	NA	0
25	Triplet	48	696	1182	8	0	0	1034040	691	0	correct_rejection	NA	0
25	Triplet	49	697	1183	0	1	1	1034748	692	1	hit	427	0
25	Triplet	50	698	1184	7	0	0	1035457	691	0	correct_rejection	NA	0
25	Triplet	51	699	1185	9	0	0	1036165	692	0	correct_rejection	NA	0
25	Triplet	52	700	1186	8	0	0	1036874	692	0	correct_rejection	NA	0
25	Triplet	53	701	1187	7	0	0	1037582	692	0	correct_rejection	NA	0
25	Triplet	54	702	1188	7	0	0	1038291	692	0	correct_rejection	NA	0
25	Triplet	55	703	1189	0	1	1	1039000	691	1	hit	420	0
25	Triplet	56	704	1190	8	0	0	1039708	692	0	correct_rejection	NA	0
25	Triplet	57	705	1191	9	0	0	1040417	691	0	correct_rejection	NA	0
25	Triplet	58	706	1192	7	0	0	1041125	692	0	correct_rejection	NA	0
25	Triplet	59	707	1193	8	0	0	1041834	691	0	correct_rejection	NA	0
25	Triplet	60	708	1194	0	1	1	1042542	692	1	hit	392	0
25	Triplet	61	709	1195	9	0	0	1043251	692	0	correct_rejection	NA	0
25	Triplet	62	710	1196	6	0	0	1043959	692	0	correct_rejection	NA	0
25	Triplet	63	711	1197	5	0	0	1044668	692	0	correct_rejection	NA	0
25	Triplet	64	712	1198	4	0	0	1045377	691	0	correct_rejection	NA	0
25	Triplet	65	713	1199	6	0	0	1046085	692	0	correct_rejection	NA	0
25	Triplet	66	714	1200	5	0	0	1046794	691	0	correct_rejection	NA	0
25	Triplet	67	715	1201	4	0	0	1047502	692	0	correct_rejection	NA	0
25	Triplet	68	716	1202	0	1	2	1048211	692	1	hit	389	0
25	Triplet	69	717	1203	4	0	0	1048919	692	0	correct_rejection	NA	0
25	Triplet	70	718	1204	5	0	0	1049628	692	0	correct_rejection	NA	0
25	Triplet	71	719	1205	6	0	0	1050337	691	0	correct_rejection	NA	0
25	Triplet	72	720	1206	4	0	0	1051045	692	0	correct_rejection	NA	0
25	Triplet	73	721	1207	5	0	0	1051754	691	0	correct_rejection	NA	0
25	Triplet	74	722	1208	6	0	0	1052462	692	0	correct_rejection	NA	0
25	Triplet	75	723	1209	6	0	0	1053171	692	0	correct_rejection	NA	0
25	Triplet	76	724	1210	5	0	0	1053879	692	0	correct_rejection	NA	0
25	Triplet	77	725	1211	0	1	1	1054588	692	1	hit	463	0
25	Triplet	78	726	1212	4	0	0	1055297	691	0	correct_rejection	NA	0
25	Triplet	79	727	1213	7	0	0	1056005	692	0	correct_rejection	NA	0
25	Triplet	80	728	1214	8	0	0	1056714	691	0	correct_rejection	NA	0
25	Triplet	81	729	1215	9	0	0	1057422	692	0	correct_rejection	NA	0
25	Triplet	82	730	1216	4	0	0	1058131	692	0	correct_rejection	NA	0
25	Triplet	83	731	1217	5	0	0	1058839	692	0	correct_rejection	NA	0
25	Triplet	84	732	1218	6	0	0	1059548	692	0	correct_rejection	NA	0
25	Triplet	85	733	1219	9	0	0	1060257	691	0	correct_rejection	NA	0
25	Triplet	86	734	1220	8	0	0	1060965	692	0	correct_rejection	NA	0
25	Triplet	87	735	1221	7	0	0	1061674	691	0	correct_rejection	NA	0
25	Triplet	88	736	1222	9	0	0	1062382	692	0	correct_rejection	NA	0
25	Triplet	89	737	1223	8	0	0	1063091	691	0	correct_rejection	NA	0
25	Triplet	90	738	1224	7	0	0	1063799	692	0	correct_rejection	NA	0
25	Triplet	91	739	1225	7	0	0	1064508	692	0	correct_rejection	NA	0
25	Triplet	92	740	1226	8	0	0	1065216	692	0	correct_rejection	NA	0
25	Triplet	93	741	1227	9	0	0	1065925	692	0	correct_rejection	NA	0
25	Triplet	94	742	1228	9	0	0	1066634	691	0	correct_rejection	NA	0
25	Triplet	95	743	1229	8	0	0	1067342	692	0	correct_rejection	NA	0
25	Triplet	96	744	1230	7	0	0	1068051	691	0	correct_rejection	NA	0
25	Triplet	97	745	1231	6	0	0	1068759	692	0	correct_rejection	NA	0
25	Triplet	98	746	1232	5	0	0	1069468	692	0	correct_rejection	NA	0
25	Triplet	99	747	1233	4	0	0	1070176	692	0	correct_rejection	NA	0
25	Triplet	100	748	1234	9	0	0	1070885	692	0	correct_rejection	NA	0
25	Triplet	101	749	1235	8	0	0	1071594	691	0	correct_rejection	NA	0
25	Triplet	102	750	1236	0	1	1	1072302	692	1	hit	602	0
25	Triplet	103	751	1237	7	0	0	1073011	691	0	correct_rejection	NA	0
25	Triplet	104	752	1238	4	0	0	1073719	692	0	correct_rejection	NA	0
25	Triplet	105	753	1239	5	0	0	1074428	692	0	correct_rejection	NA	0
25	Triplet	106	754	1240	6	0	0	1075136	692	0	correct_rejection	NA	0
25	Triplet	107	755	1241	7	0	0	1075845	692	0	correct_rejection	NA	0
25	Triplet	108	756	1242	8	0	0	1076554	691	0	correct_rejection	NA	0
25	Triplet	109	757	1243	9	0	0	1077262	692	0	correct_rejection	NA	0
25	Triplet	110	758	1244	0	1	2	1077971	691	1	hit	415	0
25	Triplet	111	759	1245	9	0	0	1078679	692	0	correct_rejection	NA	0
25	Triplet	112	760	1246	8	0	0	1079388	691	0	correct_rejection	NA	0
25	Triplet	113	761	1247	7	0	0	1080096	692	0	correct_rejection	NA	0
25	Triplet	114	762	1248	4	0	0	1080805	692	0	correct_rejection	NA	0
25	Triplet	115	763	1249	5	0	0	1081514	691	0	correct_rejection	NA	0
25	Triplet	116	764	1250	6	0	0	1082222	692	0	correct_rejection	NA	0
25	Triplet	117	765	1251	0	1	2	1082931	691	1	hit	415	0
25	Triplet	118	766	1252	4	0	0	1083639	692	0	correct_rejection	NA	0
25	Triplet	119	767	1253	5	0	0	1084348	691	0	correct_rejection	NA	0
25	Triplet	120	768	1254	6	0	0	1085056	692	0	correct_rejection	NA	0
25	Triplet	121	769	1255	9	0	0	1085765	692	0	correct_rejection	NA	0
25	Triplet	122	770	1256	8	0	0	1086473	692	0	correct_rejection	NA	0
25	Triplet	123	771	1257	0	1	1	1087182	692	1	hit	451	0
25	Triplet	124	772	1258	7	0	0	1087891	691	0	correct_rejection	NA	0
25	Triplet	125	773	1259	7	0	0	1088599	692	0	correct_rejection	NA	0
25	Triplet	126	774	1260	8	0	0	1089308	691	0	correct_rejection	NA	0
25	Triplet	127	775	1261	9	0	0	1090016	692	0	correct_rejection	NA	0
25	Triplet	128	776	1262	0	1	2	1090725	692	1	hit	417	0
25	Triplet	129	777	1263	6	0	0	1091433	692	0	correct_rejection	NA	0
25	Triplet	130	778	1264	5	0	0	1092142	692	0	correct_rejection	NA	0
25	Triplet	131	779	1265	4	0	0	1092851	691	0	correct_rejection	NA	0
25	Triplet	132	780	1266	7	0	0	1093559	692	0	correct_rejection	NA	0
25	Triplet	133	781	1267	8	0	0	1094268	691	0	correct_rejection	NA	0
25	Triplet	134	782	1268	9	0	0	1094976	692	0	correct_rejection	NA	0
25	Triplet	135	783	1269	7	0	0	1095685	692	0	correct_rejection	NA	0
25	Triplet	136	784	1270	8	0	0	1096393	692	0	correct_rejection	NA	0
25	Triplet	137	785	1271	9	0	0	1097102	692	0	correct_rejection	NA	0
25	Triplet	138	786	1272	4	0	0	1097811	691	0	correct_rejection	NA	0
25	Triplet	139	787	1273	0	1	1	1098519	692	1	hit	434	0
25	Triplet	140	788	1274	5	0	0	1099228	691	0	correct_rejection	NA	0
25	Triplet	141	789	1275	6	0	0	1099936	692	0	correct_rejection	NA	0
25	Triplet	142	790	1276	0	1	2	1100645	691	1	hit	490	0
25	Triplet	143	791	1277	6	0	0	1101353	692	0	correct_rejection	NA	0
25	Triplet	144	792	1278	5	0	0	1102062	692	0	correct_rejection	NA	0
25	Triplet	145	793	1279	4	0	0	1102770	692	0	correct_rejection	NA	0
25	Triplet	146	794	1280	6	0	0	1103479	692	0	correct_rejection	NA	0
25	Triplet	147	795	1281	5	0	0	1104188	691	0	correct_rejection	NA	0
25	Triplet	148	796	1282	4	0	0	1104896	692	0	correct_rejection	NA	0
25	Triplet	149	797	1283	0	1	2	1105605	691	1	hit	623	0
25	Triplet	150	798	1284	9	0	0	1106313	692	0	correct_rejection	NA	0
25	Triplet	151	799	1285	8	0	0	1107022	692	0	correct_rejection	NA	0
25	Triplet	152	800	1286	7	0	0	1107730	692	0	correct_rejection	NA	0
25	Triplet	153	801	1287	0	1	2	1108439	692	1	hit	426	0
25	Triplet	154	802	1288	9	0	0	1109148	691	0	correct_rejection	NA	0
25	Triplet	155	803	1289	8	0	0	1109856	692	0	correct_rejection	NA	0
25	Triplet	156	804	1290	7	0	0	1110565	691	0	correct_rejection	NA	0
25	Triplet	157	805	1291	6	0	0	1111273	692	0	correct_rejection	NA	0
25	Triplet	158	806	1292	5	0	0	1111982	692	0	correct_rejection	NA	0
25	Triplet	159	807	1293	4	0	0	1112690	692	0	correct_rejection	NA	0
25	Triplet	160	808	1294	4	0	0	1113399	692	0	correct_rejection	NA	0
25	Triplet	161	809	1295	5	0	0	1114108	691	0	correct_rejection	NA	0
25	Triplet	162	810	1296	6	0	0	1114816	692	0	correct_rejection	NA	0
25	Single	1	487	1297	7	0	0	1124161	692	0	correct_rejection	NA	7149
25	Single	2	488	1298	4	0	0	1124869	692	0	correct_rejection	NA	0
25	Single	3	489	1299	5	0	0	1125578	692	0	correct_rejection	NA	0
25	Single	4	490	1300	0	1	1	1126287	691	1	hit	339	0
25	Single	5	491	1301	5	0	0	1126995	692	0	correct_rejection	NA	0
25	Single	6	492	1302	7	0	0	1127704	691	0	correct_rejection	NA	0
25	Single	7	493	1303	6	0	0	1128412	692	0	correct_rejection	NA	0
25	Single	8	494	1304	4	0	0	1129121	692	0	correct_rejection	NA	0
25	Single	9	495	1305	9	0	0	1129829	692	0	correct_rejection	NA	0
25	Single	10	496	1306	0	1	1	1130538	692	1	hit	366	0
25	Single	11	497	1307	5	0	0	1131247	691	0	correct_rejection	NA	0
25	Single	12	498	1308	9	0	0	1131955	692	0	correct_rejection	NA	0
25	Single	13	499	1309	0	1	1	1132664	691	1	hit	528	0
25	Single	14	500	1310	4	0	0	1133372	692	0	correct_rejection	NA	0
25	Single	15	501	1311	8	0	0	1134081	691	0	correct_rejection	NA	0
25	Single	16	502	1312	5	0	0	1134789	692	0	correct_rejection	NA	0
25	Single	17	503	1313	8	0	0	1135498	692	0	correct_rejection	NA	0
25	Single	18	504	1314	4	0	0	1136206	692	0	correct_rejection	NA	0
25	Single	19	505	1315	7	0	0	1136915	692	0	correct_rejection	NA	0
25	Single	20	506	1316	8	0	0	1137624	691	0	correct_rejection	NA	0
25	Single	21	507	1317	6	0	0	1138332	692	0	correct_rejection	NA	0
25	Single	22	508	1318	8	0	0	1139041	691	0	correct_rejection	NA	0
25	Single	23	509	1319	9	0	0	1139749	692	0	correct_rejection	NA	0
25	Single	24	510	1320	7	0	0	1140458	692	0	correct_rejection	NA	0
25	Single	25	511	1321	0	1	1	1141166	692	1	hit	428	0
25	Single	26	512	1322	5	0	0	1141875	692	0	correct_rejection	NA	0
25	Single	27	513	1323	6	0	0	1142584	691	0	correct_rejection	NA	0
25	Single	28	514	1324	9	0	0	1143292	692	0	correct_rejection	NA	0
25	Single	29	515	1325	6	0	0	1144001	691	0	correct_rejection	NA	0
25	Single	30	516	1326	6	0	0	1144709	692	0	correct_rejection	NA	0
25	Single	31	517	1327	5	0	0	1145418	692	0	correct_rejection	NA	0
25	Single	32	518	1328	4	0	0	1146126	692	0	correct_rejection	NA	0
25	Single	33	519	1329	4	0	0	1146835	692	0	correct_rejection	NA	0
25	Single	34	520	1330	0	1	1	1147544	691	1	hit	446	0
25	Single	35	521	1331	6	0	0	1148252	692	0	correct_rejection	NA	0
25	Single	36	522	1332	7	0	0	1148961	691	0	correct_rejection	NA	0
25	Single	37	523	1333	7	0	0	1149669	692	0	correct_rejection	NA	0
25	Single	38	524	1334	9	0	0	1150378	692	0	correct_rejection	NA	0
25	Single	39	525	1335	9	0	0	1151086	692	0	correct_rejection	NA	0
25	Single	40	526	1336	8	0	0	1151795	692	0	correct_rejection	NA	0
25	Single	41	527	1337	8	0	0	1152504	691	0	correct_rejection	NA	0
25	Single	42	528	1338	5	0	0	1153212	692	0	correct_rejection	NA	0
25	Single	43	529	1339	9	0	0	1153921	691	0	correct_rejection	NA	0
25	Single	44	530	1340	9	0	0	1154629	692	0	correct_rejection	NA	0
25	Single	45	531	1341	7	0	0	1155338	691	0	correct_rejection	NA	0
25	Single	46	532	1342	0	1	1	1156046	692	1	hit	392	0
25	Single	47	533	1343	9	0	0	1156755	692	0	correct_rejection	NA	0
25	Single	48	534	1344	5	0	0	1157463	692	0	correct_rejection	NA	0
25	Single	49	535	1345	5	0	0	1158172	692	0	correct_rejection	NA	0
25	Single	50	536	1346	0	1	1	1158881	691	1	hit	407	0
25	Single	51	537	1347	8	0	0	1159589	692	0	correct_rejection	NA	0
25	Single	52	538	1348	7	0	0	1160298	691	0	correct_rejection	NA	0
25	Single	53	539	1349	5	0	0	1161006	692	0	correct_rejection	NA	0
25	Single	54	540	1350	4	0	0	1161715	692	0	correct_rejection	NA	0
25	Single	55	541	1351	5	0	0	1162423	692	0	correct_rejection	NA	0
25	Single	56	542	1352	7	0	0	1163132	692	0	correct_rejection	NA	0
25	Single	57	543	1353	7	0	0	1163841	691	0	correct_rejection	NA	0
25	Single	58	544	1354	4	0	0	1164549	692	0	correct_rejection	NA	0
25	Single	59	545	1355	9	0	0	1165258	691	0	correct_rejection	NA	0
25	Single	60	546	1356	6	0	0	1165966	692	0	correct_rejection	NA	0
25	Single	61	547	1357	7	0	0	1166675	692	0	correct_rejection	NA	0
25	Single	62	548	1358	8	0	0	1167383	692	0	correct_rejection	NA	0
25	Single	63	549	1359	4	0	0	1168092	692	0	correct_rejection	NA	0
25	Single	64	550	1360	6	0	0	1168801	691	0	correct_rejection	NA	0
25	Single	65	551	1361	5	0	0	1169509	692	0	correct_rejection	NA	0
25	Single	66	552	1362	6	0	0	1170218	691	0	correct_rejection	NA	0
25	Single	67	553	1363	6	0	0	1170926	692	0	correct_rejection	NA	0
25	Single	68	554	1364	9	0	0	1171635	692	0	correct_rejection	NA	0
25	Single	69	555	1365	8	0	0	1172343	692	0	correct_rejection	NA	0
25	Single	70	556	1366	9	0	0	1173052	692	0	correct_rejection	NA	0
25	Single	71	557	1367	4	0	0	1173761	691	0	correct_rejection	NA	0
25	Single	72	558	1368	4	0	0	1174469	692	0	correct_rejection	NA	0
25	Single	73	559	1369	8	0	0	1175178	691	0	correct_rejection	NA	0
25	Single	74	560	1370	6	0	0	1175886	692	0	correct_rejection	NA	0
25	Single	75	561	1371	4	0	0	1176595	691	0	correct_rejection	NA	0
25	Single	76	562	1372	7	0	0	1177303	692	0	correct_rejection	NA	0
25	Single	77	563	1373	6	0	0	1178012	692	0	correct_rejection	NA	0
25	Single	78	564	1374	8	0	0	1178720	692	0	correct_rejection	NA	0
25	Single	79	565	1375	8	0	0	1179429	692	0	correct_rejection	NA	0
25	Single	80	566	1376	4	0	0	1180138	691	0	correct_rejection	NA	0
25	Single	81	567	1377	7	0	0	1180846	692	0	correct_rejection	NA	0
25	Single	82	568	1378	5	0	0	1181555	691	0	correct_rejection	NA	0
25	Single	83	569	1379	5	0	0	1182263	692	0	correct_rejection	NA	0
25	Single	84	570	1380	4	0	0	1182972	692	0	correct_rejection	NA	0
25	Single	85	571	1381	0	1	1	1183680	692	1	hit	604	0
25	Single	86	572	1382	8	0	0	1184389	692	0	correct_rejection	NA	0
25	Single	87	573	1383	9	0	0	1185098	691	0	correct_rejection	NA	0
25	Single	88	574	1384	0	1	1	1185806	692	1	hit	406	0
25	Single	89	575	1385	6	0	0	1186515	691	0	correct_rejection	NA	0
25	Single	90	576	1386	9	0	0	1187223	692	0	correct_rejection	NA	0
25	Single	91	577	1387	9	0	0	1187932	692	0	correct_rejection	NA	0
25	Single	92	578	1388	5	0	0	1188640	692	0	correct_rejection	NA	0
25	Single	93	579	1389	8	0	0	1189349	692	0	correct_rejection	NA	0
25	Single	94	580	1390	5	0	0	1190058	691	0	correct_rejection	NA	0
25	Single	95	581	1391	6	0	0	1190766	692	0	correct_rejection	NA	0
25	Single	96	582	1392	7	0	0	1191475	691	0	correct_rejection	NA	0
25	Single	97	583	1393	9	0	0	1192183	692	0	correct_rejection	NA	0
25	Single	98	584	1394	4	0	0	1192892	691	0	correct_rejection	NA	0
25	Single	99	585	1395	6	0	0	1193600	692	0	correct_rejection	NA	0
25	Single	100	586	1396	8	0	0	1194309	692	0	correct_rejection	NA	0
25	Single	101	587	1397	0	1	1	1195018	691	1	hit	454	0
25	Single	102	588	1398	4	0	0	1195726	692	0	correct_rejection	NA	0
25	Single	103	589	1399	5	0	0	1196435	691	0	correct_rejection	NA	0
25	Single	104	590	1400	9	0	0	1197143	692	0	correct_rejection	NA	0
25	Single	105	591	1401	8	0	0	1197852	691	0	correct_rejection	NA	0
25	Single	106	592	1402	7	0	0	1198560	692	0	correct_rejection	NA	0
25	Single	107	593	1403	0	1	1	1199269	692	1	hit	452	0
25	Single	108	594	1404	6	0	0	1199977	692	0	correct_rejection	NA	0
25	Single	109	595	1405	6	0	0	1200686	692	0	correct_rejection	NA	0
25	Single	110	596	1406	4	0	0	1201395	691	0	correct_rejection	NA	0
25	Single	111	597	1407	0	1	1	1202103	692	1	hit	417	0
25	Single	112	598	1408	4	0	0	1202812	691	0	correct_rejection	NA	0
25	Single	113	599	1409	9	0	0	1203520	692	0	correct_rejection	NA	0
25	Single	114	600	1410	7	0	0	1204229	692	0	correct_rejection	NA	0
25	Single	115	601	1411	7	0	0	1204937	692	0	correct_rejection	NA	0
25	Single	116	602	1412	0	1	1	1205646	692	1	hit	399	0
25	Single	117	603	1413	8	0	0	1206355	691	0	correct_rejection	NA	0
25	Single	118	604	1414	8	0	0	1207063	692	0	correct_rejection	NA	0
25	Single	119	605	1415	6	0	0	1207772	691	0	correct_rejection	NA	0
25	Single	120	606	1416	5	0	0	1208480	692	0	correct_rejection	NA	0
25	Single	121	607	1417	7	0	0	1209189	692	0	correct_rejection	NA	0
25	Single	122	608	1418	0	1	1	1209897	692	1	hit	422	0
25	Single	123	609	1419	7	0	0	1210606	692	0	correct_rejection	NA	0
25	Single	124	610	1420	8	0	0	1211315	691	0	correct_rejection	NA	0
25	Single	125	611	1421	5	0	0	1212023	692	0	correct_rejection	NA	0
25	Single	126	612	1422	0	1	1	1212732	691	1	hit	414	0
25	Single	127	613	1423	7	0	0	1213440	692	0	correct_rejection	NA	0
25	Single	128	614	1424	6	0	0	1214149	691	0	correct_rejection	NA	0
25	Single	129	615	1425	4	0	0	1214857	692	0	correct_rejection	NA	0
25	Single	130	616	1426	5	0	0	1215566	692	0	correct_rejection	NA	0
25	Single	131	617	1427	5	0	0	1216274	692	0	correct_rejection	NA	0
25	Single	132	618	1428	6	0	0	1216983	692	0	correct_rejection	NA	0
25	Single	133	619	1429	8	0	0	1217692	691	0	correct_rejection	NA	0
25	Single	134	620	1430	0	1	1	1218400	692	1	hit	384	0
25	Single	135	621	1431	6	0	0	1219109	691	0	correct_rejection	NA	0
25	Single	136	622	1432	9	0	0	1219817	692	0	correct_rejection	NA	0
25	Single	137	623	1433	4	0	0	1220526	692	0	correct_rejection	NA	0
25	Single	138	624	1434	8	0	0	1221234	692	0	correct_rejection	NA	0
25	Single	139	625	1435	7	0	0	1221943	692	0	correct_rejection	NA	0
25	Single	140	626	1436	0	1	1	1222652	691	1	hit	418	0
25	Single	141	627	1437	4	0	0	1223360	692	0	correct_rejection	NA	0
25	Single	142	628	1438	6	0	0	1224069	691	0	correct_rejection	NA	0
25	Single	143	629	1439	6	0	0	1224777	692	0	correct_rejection	NA	0
25	Single	144	630	1440	7	0	0	1225486	692	0	correct_rejection	NA	0
25	Single	145	631	1441	5	0	0	1226194	692	0	correct_rejection	NA	0
25	Single	146	632	1442	8	0	0	1226903	692	0	correct_rejection	NA	0
25	Single	147	633	1443	9	0	0	1227612	691	0	correct_rejection	NA	0
25	Single	148	634	1444	8	0	0	1228320	692	0	correct_rejection	NA	0
25	Single	149	635	1445	8	0	0	1229029	691	0	correct_rejection	NA	0
25	Single	150	636	1446	4	0	0	1229737	692	0	correct_rejection	NA	0
25	Single	151	637	1447	9	0	0	1230446	692	0	correct_rejection	NA	0
25	Single	152	638	1448	5	0	0	1231154	692	0	correct_rejection	NA	0
25	Single	153	639	1449	4	0	0	1231863	692	0	correct_rejection	NA	0
25	Single	154	640	1450	4	0	0	1232572	691	0	correct_rejection	NA	0
25	Single	155	641	1451	7	0	0	1233280	692	0	correct_rejection	NA	0
25	Single	156	642	1452	9	0	0	1233989	691	0	correct_rejection	NA	0
25	Single	157	643	1453	9	0	0	1234697	692	0	correct_rejection	NA	0
25	Single	158	644	1454	6	0	0	1235406	691	0	correct_rejection	NA	0
25	Single	159	645	1455	5	0	0	1236114	692	0	correct_rejection	NA	0
25	Single	160	646	1456	0	1	1	1236823	692	1	hit	446	0
25	Single	161	647	1457	9	0	0	1237531	692	0	correct_rejection	NA	0
25	Single	162	648	1458	7	0	0	1238240	692	0	correct_rejection	NA	0
25	Correct	1	487	1459	4	0	0	1247726	692	0	correct_rejection	NA	7709
25	Correct	2	488	1460	5	0	0	1248435	692	0	correct_rejection	NA	0
25	Correct	3	489	1461	6	0	0	1249144	691	0	correct_rejection	NA	0
25	Correct	4	490	1462	4	0	0	1249852	692	0	correct_rejection	NA	0
25	Correct	5	491	1463	0	1	1	1250561	691	1	hit	365	0
25	Correct	6	492	1464	5	0	0	1251269	692	0	correct_rejection	NA	0
25	Correct	7	493	1465	6	0	0	1251978	692	0	correct_rejection	NA	0
25	Correct	8	494	1466	0	1	2	1252686	692	1	hit	429	0
25	Correct	9	495	1467	4	0	0	1253395	692	0	correct_rejection	NA	0
25	Correct	10	496	1468	5	0	0	1254104	691	0	correct_rejection	NA	0
25	Correct	11	497	1469	6	0	0	1254812	692	0	correct_rejection	NA	0
25	Correct	12	498	1470	6	0	0	1255521	691	0	correct_rejection	NA	0
25	Correct	13	499	1471	5	0	0	1256229	692	0	correct_rejection	NA	0
25	Correct	14	500	1472	4	0	0	1256938	692	0	correct_rejection	NA	0
25	Correct	15	501	1473	0	1	2	1257646	692	1	hit	352	0
25	Correct	16	502	1474	6	0	0	1258355	692	0	correct_rejection	NA	0
25	Correct	17	503	1475	5	0	0	1259064	691	0	correct_rejection	NA	0
25	Correct	18	504	1476	4	0	0	1259772	692	0	correct_rejection	NA	0
25	Correct	19	505	1477	6	0	0	1260481	691	0	correct_rejection	NA	0
25	Correct	20	506	1478	0	1	1	1261189	692	1	hit	439	0
25	Correct	21	507	1479	5	0	0	1261898	692	0	correct_rejection	NA	0
25	Correct	22	508	1480	4	0	0	1262606	692	0	correct_rejection	NA	0
25	Correct	23	509	1481	9	0	0	1263315	692	0	correct_rejection	NA	0
25	Correct	24	510	1482	8	0	0	1264024	691	0	correct_rejection	NA	0
25	Correct	25	511	1483	7	0	0	1264732	692	0	correct_rejection	NA	0
25	Correct	26	512	1484	9	0	0	1265441	691	0	correct_rejection	NA	0
25	Correct	27	513	1485	0	1	1	1266149	692	1	hit	430	0
25	Correct	28	514	1486	8	0	0	1266858	691	0	correct_rejection	NA	0
25	Correct	29	515	1487	7	0	0	1267566	692	0	correct_rejection	NA	0
25	Correct	30	516	1488	9	0	0	1268275	692	0	correct_rejection	NA	0
25	Correct	31	517	1489	8	0	0	1268983	692	0	correct_rejection	NA	0
25	Correct	32	518	1490	0	1	1	1269692	692	1	hit	362	0
25	Correct	33	519	1491	7	0	0	1270401	691	0	correct_rejection	NA	0
25	Correct	34	520	1492	7	0	0	1271109	692	0	correct_rejection	NA	0
25	Correct	35	521	1493	8	0	0	1271818	691	0	correct_rejection	NA	0
25	Correct	36	522	1494	9	0	0	1272526	692	0	correct_rejection	NA	0
25	Correct	37	523	1495	7	0	0	1273235	692	0	correct_rejection	NA	0
25	Correct	38	524	1496	8	0	0	1273943	692	0	correct_rejection	NA	0
25	Correct	39	525	1497	9	0	0	1274652	692	0	correct_rejection	NA	0
25	Correct	40	526	1498	7	0	0	1275361	691	0	correct_rejection	NA	0
25	Correct	41	527	1499	8	0	0	1276069	692	0	correct_rejection	NA	0
25	Correct	42	528	1500	9	0	0	1276778	691	0	correct_rejection	NA	0
25	Correct	43	529	1501	4	0	0	1277486	692	0	correct_rejection	NA	0
25	Correct	44	530	1502	5	0	0	1278195	692	0	correct_rejection	NA	0
25	Correct	45	531	1503	6	0	0	1278903	692	0	correct_rejection	NA	0
25	Correct	46	532	1504	4	0	0	1279612	692	0	correct_rejection	NA	0
25	Correct	47	533	1505	5	0	0	1280321	691	0	correct_rejection	NA	0
25	Correct	48	534	1506	6	0	0	1281029	692	0	correct_rejection	NA	0
25	Correct	49	535	1507	4	0	0	1281738	691	0	correct_rejection	NA	0
25	Correct	50	536	1508	5	0	0	1282446	692	0	correct_rejection	NA	0
25	Correct	51	537	1509	0	1	1	1283155	692	1	hit	376	0
25	Correct	52	538	1510	6	0	0	1283863	692	0	correct_rejection	NA	0
25	Correct	53	539	1511	6	0	0	1284572	692	0	correct_rejection	NA	0
25	Correct	54	540	1512	5	0	0	1285281	691	0	correct_rejection	NA	0
25	Correct	55	541	1513	4	0	0	1285989	692	0	correct_rejection	NA	0
25	Correct	56	542	1514	6	0	0	1286698	691	0	correct_rejection	NA	0
25	Correct	57	543	1515	5	0	0	1287406	692	0	correct_rejection	NA	0
25	Correct	58	544	1516	4	0	0	1288115	691	0	correct_rejection	NA	0
25	Correct	59	545	1517	0	1	2	1288823	692	1	hit	459	0
25	Correct	60	546	1518	6	0	0	1289532	692	0	correct_rejection	NA	0
25	Correct	61	547	1519	5	0	0	1290240	692	0	correct_rejection	NA	0
25	Correct	62	548	1520	0	1	1	1290949	692	1	hit	398	0
25	Correct	63	549	1521	4	0	0	1291658	691	0	correct_rejection	NA	0
25	Correct	64	550	1522	9	0	0	1292366	692	0	correct_rejection	NA	0
25	Correct	65	551	1523	0	1	1	1293075	691	1	hit	460	0
25	Correct	66	552	1524	8	0	0	1293783	692	0	correct_rejection	NA	0
25	Correct	67	553	1525	7	0	0	1294492	692	0	correct_rejection	NA	0
25	Correct	68	554	1526	9	0	0	1295200	692	0	correct_rejection	NA	0
25	Correct	69	555	1527	8	0	0	1295909	692	0	correct_rejection	NA	0
25	Correct	70	556	1528	0	1	1	1296618	691	1	hit	413	0
25	Correct	71	557	1529	7	0	0	1297326	692	0	correct_rejection	NA	0
25	Correct	72	558	1530	9	0	0	1298035	691	0	correct_rejection	NA	0
25	Correct	73	559	1531	8	0	0	1298743	692	0	correct_rejection	NA	0
25	Correct	74	560	1532	7	0	0	1299452	692	0	correct_rejection	NA	0
25	Correct	75	561	1533	7	0	0	1300160	692	0	correct_rejection	NA	0
25	Correct	76	562	1534	8	0	0	1300869	692	0	correct_rejection	NA	0
25	Correct	77	563	1535	9	0	0	1301578	691	0	correct_rejection	NA	0
25	Correct	78	564	1536	7	0	0	1302286	692	0	correct_rejection	NA	0
25	Correct	79	565	1537	8	0	0	1302995	691	0	correct_rejection	NA	0
25	Correct	80	566	1538	9	0	0	1303703	692	0	correct_rejection	NA	0
25	Correct	81	567	1539	7	0	0	1304412	692	0	correct_rejection	NA	0
25	Correct	82	568	1540	8	0	0	1305120	692	0	correct_rejection	NA	0
25	Correct	83	569	1541	9	0	0	1305829	692	0	correct_rejection	NA	0
25	Correct	84	570	1542	4	0	0	1306538	691	0	correct_rejection	NA	0
25	Correct	85	571	1543	5	0	0	1307246	692	0	correct_rejection	NA	0
25	Correct	86	572	1544	6	0	0	1307955	691	0	correct_rejection	NA	0
25	Correct	87	573	1545	4	0	0	1308663	692	0	correct_rejection	NA	0
25	Correct	88	574	1546	5	0	0	1309372	691	0	correct_rejection	NA	0
25	Correct	89	575	1547	0	1	1	1310080	692	1	hit	468	0
25	Correct	90	576	1548	6	0	0	1310789	692	0	correct_rejection	NA	0
25	Correct	91	577	1549	4	0	0	1311497	692	0	correct_rejection	NA	0
25	Correct	92	578	1550	5	0	0	1312206	692	0	correct_rejection	NA	0
25	Correct	93	579	1551	6	0	0	1312915	691	0	correct_rejection	NA	0
25	Correct	94	580	1552	6	0	0	1313623	692	0	correct_rejection	NA	0
25	Correct	95	581	1553	0	1	1	1314332	691	1	hit	574	0
25	Correct	96	582	1554	5	0	0	1315040	692	0	correct_rejection	NA	0
25	Correct	97	583	1555	4	0	0	1315749	692	0	correct_rejection	NA	0
25	Correct	98	584	1556	6	0	0	1316457	692	0	correct_rejection	NA	0
25	Correct	99	585	1557	5	0	0	1317166	692	0	correct_rejection	NA	0
25	Correct	100	586	1558	4	0	0	1317875	691	0	correct_rejection	NA	0
25	Correct	101	587	1559	6	0	0	1318583	692	0	correct_rejection	NA	0
25	Correct	102	588	1560	5	0	0	1319292	691	0	correct_rejection	NA	0
25	Correct	103	589	1561	4	0	0	1320000	692	0	correct_rejection	NA	0
25	Correct	104	590	1562	9	0	0	1320709	692	0	correct_rejection	NA	0
25	Correct	105	591	1563	8	0	0	1321417	692	0	correct_rejection	NA	0
25	Correct	106	592	1564	7	0	0	1322126	692	0	correct_rejection	NA	0
25	Correct	107	593	1565	9	0	0	1322835	691	0	correct_rejection	NA	0
25	Correct	108	594	1566	8	0	0	1323543	692	0	correct_rejection	NA	0
25	Correct	109	595	1567	7	0	0	1324252	691	0	correct_rejection	NA	0
25	Correct	110	596	1568	9	0	0	1324960	692	0	correct_rejection	NA	0
25	Correct	111	597	1569	8	0	0	1325669	691	0	correct_rejection	NA	0
25	Correct	112	598	1570	7	0	0	1326377	692	0	correct_rejection	NA	0
25	Correct	113	599	1571	7	0	0	1327086	692	0	correct_rejection	NA	0
25	Correct	114	600	1572	8	0	0	1327794	692	0	correct_rejection	NA	0
25	Correct	115	601	1573	0	1	1	1328503	692	1	hit	500	0
25	Correct	116	602	1574	9	0	0	1329212	691	0	correct_rejection	NA	0
25	Correct	117	603	1575	7	0	0	1329920	692	0	correct_rejection	NA	0
25	Correct	118	604	1576	8	0	0	1330629	691	0	correct_rejection	NA	0
25	Correct	119	605	1577	9	0	0	1331337	692	0	correct_rejection	NA	0
25	Correct	120	606	1578	7	0	0	1332046	692	0	correct_rejection	NA	0
25	Correct	121	607	1579	8	0	0	1332754	692	0	correct_rejection	NA	0
25	Correct	122	608	1580	9	0	0	1333463	692	0	correct_rejection	NA	0
25	Correct	123	609	1581	0	1	4	1334172	691	1	hit	449	0
25	Correct	124	610	1582	4	0	0	1334880	692	0	correct_rejection	NA	0
25	Correct	125	611	1583	5	0	0	1335589	691	0	correct_rejection	NA	0
25	Correct	126	612	1584	6	0	0	1336297	692	0	correct_rejection	NA	0
25	Correct	127	613	1585	4	0	0	1337006	692	0	correct_rejection	NA	0
25	Correct	128	614	1586	5	0	0	1337714	692	0	correct_rejection	NA	0
25	Correct	129	615	1587	6	0	0	1338423	692	0	correct_rejection	NA	0
25	Correct	130	616	1588	0	1	2	1339132	691	1	hit	455	0
25	Correct	131	617	1589	4	0	0	1339840	692	0	correct_rejection	NA	0
25	Correct	132	618	1590	5	0	0	1340549	691	0	correct_rejection	NA	0
25	Correct	133	619	1591	6	0	0	1341257	692	0	correct_rejection	NA	0
