ID	block	trial_block	trial_cat	trial_total	number	violation	level_violation	onset	duration	Response	Hit_Miss	RT	pre_trial_fixcross_ISI
first_trigger_at: 11289
trigger nr 3 at 13289
26	Triplet	1	163	1	6	0	0	21223	692	0	correct_rejection	NA	7899
26	Triplet	2	164	2	5	0	0	21932	691	0	correct_rejection	NA	0
26	Triplet	3	165	3	4	0	0	22640	692	0	correct_rejection	NA	0
26	Triplet	4	166	4	0	1	2	23349	692	1	hit	321	0
26	Triplet	5	167	5	6	0	0	24057	692	0	correct_rejection	NA	0
26	Triplet	6	168	6	5	0	0	24766	692	0	correct_rejection	NA	0
26	Triplet	7	169	7	0	1	1	25475	691	0	miss	NA	0
26	Triplet	8	170	8	4	0	0	26183	692	0	correct_rejection	NA	0
26	Triplet	9	171	9	4	0	0	26892	691	0	correct_rejection	NA	0
26	Triplet	10	172	10	5	0	0	27600	692	0	correct_rejection	NA	0
26	Triplet	11	173	11	0	1	1	28309	692	1	hit	370	0
26	Triplet	12	174	12	6	0	0	29017	692	0	correct_rejection	NA	0
26	Triplet	13	175	13	9	0	0	29726	692	0	correct_rejection	NA	0
26	Triplet	14	176	14	8	0	0	30435	691	0	correct_rejection	NA	0
26	Triplet	15	177	15	7	0	0	31143	692	0	correct_rejection	NA	0
26	Triplet	16	178	16	6	0	0	31852	691	0	correct_rejection	NA	0
26	Triplet	17	179	17	0	1	1	32560	692	1	hit	449	0
26	Triplet	18	180	18	5	0	0	33269	692	0	correct_rejection	NA	0
26	Triplet	19	181	19	4	0	0	33977	692	0	correct_rejection	NA	0
26	Triplet	20	182	20	9	0	0	34686	692	0	correct_rejection	NA	0
26	Triplet	21	183	21	8	0	0	35395	691	0	correct_rejection	NA	0
26	Triplet	22	184	22	7	0	0	36103	692	0	correct_rejection	NA	0
26	Triplet	23	185	23	0	1	2	36812	691	1	hit	351	0
26	Triplet	24	186	24	7	0	0	37520	692	0	correct_rejection	NA	0
26	Triplet	25	187	25	8	0	0	38229	691	0	correct_rejection	NA	0
26	Triplet	26	188	26	9	0	0	38937	692	0	correct_rejection	NA	0
26	Triplet	27	189	27	6	0	0	39646	692	0	correct_rejection	NA	0
26	Triplet	28	190	28	5	0	0	40354	692	0	correct_rejection	NA	0
26	Triplet	29	191	29	0	1	1	41063	692	1	hit	428	0
26	Triplet	30	192	30	4	0	0	41772	691	0	correct_rejection	NA	0
26	Triplet	31	193	31	7	0	0	42480	692	0	correct_rejection	NA	0
26	Triplet	32	194	32	8	0	0	43189	691	0	correct_rejection	NA	0
26	Triplet	33	195	33	9	0	0	43897	692	0	correct_rejection	NA	0
26	Triplet	34	196	34	7	0	0	44606	692	0	correct_rejection	NA	0
26	Triplet	35	197	35	8	0	0	45314	692	0	correct_rejection	NA	0
26	Triplet	36	198	36	9	0	0	46023	692	0	correct_rejection	NA	0
26	Triplet	37	199	37	9	0	0	46732	691	0	correct_rejection	NA	0
26	Triplet	38	200	38	8	0	0	47440	692	0	correct_rejection	NA	0
26	Triplet	39	201	39	7	0	0	48149	691	0	correct_rejection	NA	0
26	Triplet	40	202	40	9	0	0	48857	692	0	correct_rejection	NA	0
26	Triplet	41	203	41	8	0	0	49566	692	0	correct_rejection	NA	0
26	Triplet	42	204	42	0	1	1	50274	692	1	hit	375	0
26	Triplet	43	205	43	7	0	0	50983	692	0	correct_rejection	NA	0
26	Triplet	44	206	44	4	0	0	51692	691	0	correct_rejection	NA	0
26	Triplet	45	207	45	5	0	0	52400	692	0	correct_rejection	NA	0
26	Triplet	46	208	46	6	0	0	53109	691	0	correct_rejection	NA	0
26	Triplet	47	209	47	4	0	0	53817	692	0	correct_rejection	NA	0
26	Triplet	48	210	48	5	0	0	54526	692	0	correct_rejection	NA	0
26	Triplet	49	211	49	6	0	0	55234	692	0	correct_rejection	NA	0
26	Triplet	50	212	50	7	0	0	55943	692	0	correct_rejection	NA	0
26	Triplet	51	213	51	8	0	0	56652	691	0	correct_rejection	NA	0
26	Triplet	52	214	52	9	0	0	57360	692	0	correct_rejection	NA	0
26	Triplet	53	215	53	4	0	0	58069	691	0	correct_rejection	NA	0
26	Triplet	54	216	54	5	0	0	58777	692	0	correct_rejection	NA	0
26	Triplet	55	217	55	6	0	0	59486	691	0	correct_rejection	NA	0
26	Triplet	56	218	56	7	0	0	60194	692	0	correct_rejection	NA	0
26	Triplet	57	219	57	0	1	1	60903	692	1	hit	404	0
26	Triplet	58	220	58	8	0	0	61612	691	0	correct_rejection	NA	0
26	Triplet	59	221	59	9	0	0	62320	692	0	correct_rejection	NA	0
26	Triplet	60	222	60	0	1	2	63029	691	1	hit	389	0
26	Triplet	61	223	61	6	0	0	63737	692	0	correct_rejection	NA	0
26	Triplet	62	224	62	5	0	0	64446	691	0	correct_rejection	NA	0
26	Triplet	63	225	63	4	0	0	65154	692	0	correct_rejection	NA	0
26	Triplet	64	226	64	6	0	0	65863	692	0	correct_rejection	NA	0
26	Triplet	65	227	65	5	0	0	66571	692	0	correct_rejection	NA	0
26	Triplet	66	228	66	4	0	0	67280	692	0	correct_rejection	NA	0
26	Triplet	67	229	67	9	0	0	67989	691	0	correct_rejection	NA	0
26	Triplet	68	230	68	8	0	0	68697	692	0	correct_rejection	NA	0
26	Triplet	69	231	69	7	0	0	69406	691	0	correct_rejection	NA	0
26	Triplet	70	232	70	4	0	0	70114	692	0	correct_rejection	NA	0
26	Triplet	71	233	71	0	1	1	70823	692	1	hit	292	0
26	Triplet	72	234	72	5	0	0	71531	692	0	correct_rejection	NA	0
26	Triplet	73	235	73	6	0	0	72240	692	0	correct_rejection	NA	0
26	Triplet	74	236	74	7	0	0	72949	691	0	correct_rejection	NA	0
26	Triplet	75	237	75	8	0	0	73657	692	0	correct_rejection	NA	0
26	Triplet	76	238	76	9	0	0	74366	691	0	correct_rejection	NA	0
26	Triplet	77	239	77	7	0	0	75074	692	0	correct_rejection	NA	0
26	Triplet	78	240	78	8	0	0	75783	692	0	correct_rejection	NA	0
26	Triplet	79	241	79	9	0	0	76491	692	0	correct_rejection	NA	0
26	Triplet	80	242	80	4	0	0	77200	692	0	correct_rejection	NA	0
26	Triplet	81	243	81	5	0	0	77909	691	0	correct_rejection	NA	0
26	Triplet	82	244	82	6	0	0	78617	692	0	correct_rejection	NA	0
26	Triplet	83	245	83	6	0	0	79326	691	0	correct_rejection	NA	0
26	Triplet	84	246	84	5	0	0	80034	692	0	correct_rejection	NA	0
26	Triplet	85	247	85	4	0	0	80743	692	0	correct_rejection	NA	0
26	Triplet	86	248	86	7	0	0	81451	692	0	correct_rejection	NA	0
26	Triplet	87	249	87	8	0	0	82160	692	0	correct_rejection	NA	0
26	Triplet	88	250	88	9	0	0	82869	691	0	correct_rejection	NA	0
26	Triplet	89	251	89	9	0	0	83577	692	0	correct_rejection	NA	0
26	Triplet	90	252	90	8	0	0	84286	691	0	correct_rejection	NA	0
26	Triplet	91	253	91	7	0	0	84994	692	0	correct_rejection	NA	0
26	Triplet	92	254	92	6	0	0	85703	691	0	correct_rejection	NA	0
26	Triplet	93	255	93	5	0	0	86411	692	0	correct_rejection	NA	0
26	Triplet	94	256	94	4	0	0	87120	692	0	correct_rejection	NA	0
26	Triplet	95	257	95	4	0	0	87829	691	0	correct_rejection	NA	0
26	Triplet	96	258	96	5	0	0	88537	692	0	correct_rejection	NA	0
26	Triplet	97	259	97	6	0	0	89246	691	0	correct_rejection	NA	0
26	Triplet	98	260	98	4	0	0	89954	692	0	correct_rejection	NA	0
26	Triplet	99	261	99	5	0	0	90663	691	0	correct_rejection	NA	0
26	Triplet	100	262	100	6	0	0	91371	692	0	correct_rejection	NA	0
26	Triplet	101	263	101	9	0	0	92080	692	0	correct_rejection	NA	0
26	Triplet	102	264	102	8	0	0	92788	692	0	correct_rejection	NA	0
26	Triplet	103	265	103	7	0	0	93497	692	0	correct_rejection	NA	0
26	Triplet	104	266	104	0	1	2	94206	691	1	hit	424	0
26	Triplet	105	267	105	9	0	0	94914	692	0	correct_rejection	NA	0
26	Triplet	106	268	106	8	0	0	95623	691	0	correct_rejection	NA	0
26	Triplet	107	269	107	7	0	0	96331	692	0	correct_rejection	NA	0
26	Triplet	108	270	108	4	0	0	97040	692	0	correct_rejection	NA	0
26	Triplet	109	271	109	5	0	0	97748	692	0	correct_rejection	NA	0
26	Triplet	110	272	110	6	0	0	98457	692	0	correct_rejection	NA	0
26	Triplet	111	273	111	4	0	0	99166	691	0	correct_rejection	NA	0
26	Triplet	112	274	112	5	0	0	99874	692	0	correct_rejection	NA	0
26	Triplet	113	275	113	6	0	0	100583	691	0	correct_rejection	NA	0
26	Triplet	114	276	114	6	0	0	101291	692	0	correct_rejection	NA	0
26	Triplet	115	277	115	0	1	1	102000	692	1	hit	399	0
26	Triplet	116	278	116	5	0	0	102708	692	0	correct_rejection	NA	0
26	Triplet	117	279	117	4	0	0	103417	692	0	correct_rejection	NA	0
26	Triplet	118	280	118	9	0	0	104126	691	0	correct_rejection	NA	0
26	Triplet	119	281	119	8	0	0	104834	692	0	correct_rejection	NA	0
26	Triplet	120	282	120	0	1	1	105543	691	1	hit	399	0
26	Triplet	121	283	121	7	0	0	106251	692	0	correct_rejection	NA	0
26	Triplet	122	284	122	9	0	0	106960	692	0	correct_rejection	NA	0
26	Triplet	123	285	123	0	1	1	107668	692	1	hit	388	0
26	Triplet	124	286	124	8	0	0	108377	692	0	correct_rejection	NA	0
26	Triplet	125	287	125	7	0	0	109086	691	0	correct_rejection	NA	0
26	Triplet	126	288	126	6	0	0	109794	692	0	correct_rejection	NA	0
26	Triplet	127	289	127	5	0	0	110503	691	0	correct_rejection	NA	0
26	Triplet	128	290	128	4	0	0	111211	692	0	correct_rejection	NA	0
26	Triplet	129	291	129	6	0	0	111920	692	0	correct_rejection	NA	0
26	Triplet	130	292	130	5	0	0	112628	692	0	correct_rejection	NA	0
26	Triplet	131	293	131	4	0	0	113337	692	0	correct_rejection	NA	0
26	Triplet	132	294	132	7	0	0	114046	691	0	correct_rejection	NA	0
26	Triplet	133	295	133	0	1	1	114754	692	1	hit	341	0
26	Triplet	134	296	134	8	0	0	115463	691	0	correct_rejection	NA	0
26	Triplet	135	297	135	9	0	0	116171	692	0	correct_rejection	NA	0
26	Triplet	136	298	136	4	0	0	116880	691	0	correct_rejection	NA	0
26	Triplet	137	299	137	5	0	0	117588	692	0	correct_rejection	NA	0
26	Triplet	138	300	138	6	0	0	118297	692	0	correct_rejection	NA	0
26	Triplet	139	301	139	7	0	0	119005	692	0	correct_rejection	NA	0
26	Triplet	140	302	140	8	0	0	119714	692	0	correct_rejection	NA	0
26	Triplet	141	303	141	0	1	1	120423	691	1	hit	379	0
26	Triplet	142	304	142	9	0	0	121131	692	0	correct_rejection	NA	0
26	Triplet	143	305	143	9	0	0	121840	691	0	correct_rejection	NA	0
26	Triplet	144	306	144	8	0	0	122548	692	0	correct_rejection	NA	0
26	Triplet	145	307	145	7	0	0	123257	692	0	correct_rejection	NA	0
26	Triplet	146	308	146	4	0	0	123965	692	0	correct_rejection	NA	0
26	Triplet	147	309	147	5	0	0	124674	692	0	correct_rejection	NA	0
26	Triplet	148	310	148	6	0	0	125383	691	0	correct_rejection	NA	0
26	Triplet	149	311	149	9	0	0	126091	692	0	correct_rejection	NA	0
26	Triplet	150	312	150	0	1	1	126800	691	1	hit	348	0
26	Triplet	151	313	151	8	0	0	127508	692	0	correct_rejection	NA	0
26	Triplet	152	314	152	7	0	0	128217	692	0	correct_rejection	NA	0
26	Triplet	153	315	153	7	0	0	128925	692	0	correct_rejection	NA	0
26	Triplet	154	316	154	8	0	0	129634	692	0	correct_rejection	NA	0
26	Triplet	155	317	155	9	0	0	130343	691	0	correct_rejection	NA	0
26	Triplet	156	318	156	7	0	0	131051	692	0	correct_rejection	NA	0
26	Triplet	157	319	157	0	1	1	131760	691	1	hit	422	0
26	Triplet	158	320	158	8	0	0	132468	692	0	correct_rejection	NA	0
26	Triplet	159	321	159	9	0	0	133177	692	0	correct_rejection	NA	0
26	Triplet	160	322	160	6	0	0	133885	692	0	correct_rejection	NA	0
26	Triplet	161	323	161	5	0	0	134594	692	0	correct_rejection	NA	0
26	Triplet	162	324	162	4	0	0	135303	691	0	correct_rejection	NA	0
26	Single	1	487	163	7	0	0	144472	692	0	correct_rejection	NA	7148
26	Single	2	488	164	4	0	0	145181	691	0	correct_rejection	NA	0
26	Single	3	489	165	5	0	0	145889	692	0	correct_rejection	NA	0
26	Single	4	490	166	0	1	1	146598	692	1	hit	344	0
26	Single	5	491	167	5	0	0	147307	691	0	correct_rejection	NA	0
26	Single	6	492	168	7	0	0	148015	692	0	correct_rejection	NA	0
26	Single	7	493	169	6	0	0	148724	691	0	correct_rejection	NA	0
26	Single	8	494	170	4	0	0	149432	692	0	correct_rejection	NA	0
26	Single	9	495	171	9	0	0	150141	691	0	correct_rejection	NA	0
26	Single	10	496	172	0	1	1	150849	692	1	hit	339	0
26	Single	11	497	173	5	0	0	151558	692	0	correct_rejection	NA	0
26	Single	12	498	174	9	0	0	152266	692	0	correct_rejection	NA	0
26	Single	13	499	175	0	1	1	152975	692	1	hit	409	0
26	Single	14	500	176	4	0	0	153684	691	0	correct_rejection	NA	0
26	Single	15	501	177	8	0	0	154392	692	0	correct_rejection	NA	0
26	Single	16	502	178	5	0	0	155101	691	0	correct_rejection	NA	0
26	Single	17	503	179	8	0	0	155809	692	0	correct_rejection	NA	0
26	Single	18	504	180	4	0	0	156518	692	0	correct_rejection	NA	0
26	Single	19	505	181	7	0	0	157226	692	0	correct_rejection	NA	0
26	Single	20	506	182	8	0	0	157935	692	0	correct_rejection	NA	0
26	Single	21	507	183	6	0	0	158644	691	0	correct_rejection	NA	0
26	Single	22	508	184	8	0	0	159352	692	0	correct_rejection	NA	0
26	Single	23	509	185	9	0	0	160061	691	0	correct_rejection	NA	0
26	Single	24	510	186	7	0	0	160769	692	0	correct_rejection	NA	0
26	Single	25	511	187	0	1	1	161478	692	1	hit	301	0
26	Single	26	512	188	5	0	0	162186	692	0	correct_rejection	NA	0
26	Single	27	513	189	6	0	0	162895	692	0	correct_rejection	NA	0
26	Single	28	514	190	9	0	0	163604	691	0	correct_rejection	NA	0
26	Single	29	515	191	6	0	0	164312	692	0	correct_rejection	NA	0
26	Single	30	516	192	6	0	0	165021	691	0	correct_rejection	NA	0
26	Single	31	517	193	5	0	0	165729	692	0	correct_rejection	NA	0
26	Single	32	518	194	4	0	0	166438	692	0	correct_rejection	NA	0
26	Single	33	519	195	4	0	0	167146	692	0	correct_rejection	NA	0
26	Single	34	520	196	0	1	1	167855	692	1	hit	341	0
26	Single	35	521	197	6	0	0	168564	691	0	correct_rejection	NA	0
26	Single	36	522	198	7	0	0	169272	692	0	correct_rejection	NA	0
26	Single	37	523	199	7	0	0	169981	691	0	correct_rejection	NA	0
26	Single	38	524	200	9	0	0	170689	692	0	correct_rejection	NA	0
26	Single	39	525	201	9	0	0	171398	691	0	correct_rejection	NA	0
26	Single	40	526	202	8	0	0	172106	692	0	correct_rejection	NA	0
26	Single	41	527	203	8	0	0	172815	692	0	correct_rejection	NA	0
26	Single	42	528	204	5	0	0	173524	691	0	correct_rejection	NA	0
26	Single	43	529	205	9	0	0	174232	692	0	correct_rejection	NA	0
26	Single	44	530	206	9	0	0	174941	691	0	correct_rejection	NA	0
26	Single	45	531	207	7	0	0	175649	692	0	correct_rejection	NA	0
26	Single	46	532	208	0	1	1	176358	691	1	hit	391	0
26	Single	47	533	209	9	0	0	177066	692	0	correct_rejection	NA	0
26	Single	48	534	210	5	0	0	177775	692	0	correct_rejection	NA	0
26	Single	49	535	211	5	0	0	178483	692	0	correct_rejection	NA	0
26	Single	50	536	212	0	1	1	179192	692	1	hit	416	0
26	Single	51	537	213	8	0	0	179901	691	0	correct_rejection	NA	0
26	Single	52	538	214	7	0	0	180609	692	0	correct_rejection	NA	0
26	Single	53	539	215	5	0	0	181318	691	0	correct_rejection	NA	0
26	Single	54	540	216	4	0	0	182026	692	0	correct_rejection	NA	0
26	Single	55	541	217	5	0	0	182735	692	0	correct_rejection	NA	0
26	Single	56	542	218	7	0	0	183443	692	0	correct_rejection	NA	0
26	Single	57	543	219	7	0	0	184152	692	0	correct_rejection	NA	0
26	Single	58	544	220	4	0	0	184861	691	0	correct_rejection	NA	0
26	Single	59	545	221	9	0	0	185569	692	0	correct_rejection	NA	0
26	Single	60	546	222	6	0	0	186278	691	0	correct_rejection	NA	0
26	Single	61	547	223	7	0	0	186986	692	0	correct_rejection	NA	0
26	Single	62	548	224	8	0	0	187695	692	0	correct_rejection	NA	0
26	Single	63	549	225	4	0	0	188403	692	0	correct_rejection	NA	0
26	Single	64	550	226	6	0	0	189112	692	0	correct_rejection	NA	0
26	Single	65	551	227	5	0	0	189821	691	0	correct_rejection	NA	0
26	Single	66	552	228	6	0	0	190529	692	0	correct_rejection	NA	0
26	Single	67	553	229	6	0	0	191238	691	0	correct_rejection	NA	0
26	Single	68	554	230	9	0	0	191946	692	0	correct_rejection	NA	0
26	Single	69	555	231	8	0	0	192655	692	0	correct_rejection	NA	0
26	Single	70	556	232	9	0	0	193363	692	0	correct_rejection	NA	0
26	Single	71	557	233	4	0	0	194072	692	0	correct_rejection	NA	0
26	Single	72	558	234	4	0	0	194781	691	0	correct_rejection	NA	0
26	Single	73	559	235	8	0	0	195489	692	0	correct_rejection	NA	0
26	Single	74	560	236	6	0	0	196198	691	0	correct_rejection	NA	0
26	Single	75	561	237	4	0	0	196906	692	0	correct_rejection	NA	0
26	Single	76	562	238	7	0	0	197615	691	0	correct_rejection	NA	0
26	Single	77	563	239	6	0	0	198323	692	0	correct_rejection	NA	0
26	Single	78	564	240	8	0	0	199032	692	0	correct_rejection	NA	0
26	Single	79	565	241	8	0	0	199741	691	0	correct_rejection	NA	0
26	Single	80	566	242	4	0	0	200449	692	0	correct_rejection	NA	0
26	Single	81	567	243	7	0	0	201158	691	0	correct_rejection	NA	0
26	Single	82	568	244	5	0	0	201866	692	0	correct_rejection	NA	0
26	Single	83	569	245	5	0	0	202575	691	0	correct_rejection	NA	0
26	Single	84	570	246	4	0	0	203283	692	0	correct_rejection	NA	0
26	Single	85	571	247	0	1	1	203992	692	1	hit	381	0
26	Single	86	572	248	8	0	0	204700	692	0	correct_rejection	NA	0
26	Single	87	573	249	9	0	0	205409	692	0	correct_rejection	NA	0
26	Single	88	574	250	0	1	1	206118	691	1	hit	453	0
26	Single	89	575	251	6	0	0	206826	692	0	correct_rejection	NA	0
26	Single	90	576	252	9	0	0	207535	691	0	correct_rejection	NA	0
26	Single	91	577	253	9	0	0	208243	692	0	correct_rejection	NA	0
26	Single	92	578	254	5	0	0	208952	692	0	correct_rejection	NA	0
26	Single	93	579	255	8	0	0	209660	692	0	correct_rejection	NA	0
26	Single	94	580	256	5	0	0	210369	692	0	correct_rejection	NA	0
26	Single	95	581	257	6	0	0	211078	691	0	correct_rejection	NA	0
26	Single	96	582	258	7	0	0	211786	692	0	correct_rejection	NA	0
26	Single	97	583	259	9	0	0	212495	691	0	correct_rejection	NA	0
26	Single	98	584	260	4	0	0	213203	692	0	correct_rejection	NA	0
26	Single	99	585	261	6	0	0	213912	692	0	correct_rejection	NA	0
26	Single	100	586	262	8	0	0	214620	692	0	correct_rejection	NA	0
26	Single	101	587	263	0	1	1	215329	692	1	hit	472	0
26	Single	102	588	264	4	0	0	216038	691	0	correct_rejection	NA	0
26	Single	103	589	265	5	0	0	216746	692	0	correct_rejection	NA	0
26	Single	104	590	266	9	0	0	217455	691	0	correct_rejection	NA	0
26	Single	105	591	267	8	0	0	218163	692	0	correct_rejection	NA	0
26	Single	106	592	268	7	0	0	218872	692	0	correct_rejection	NA	0
26	Single	107	593	269	0	1	1	219580	692	1	hit	461	0
26	Single	108	594	270	6	0	0	220289	692	0	correct_rejection	NA	0
26	Single	109	595	271	6	0	0	220998	691	0	correct_rejection	NA	0
26	Single	110	596	272	4	0	0	221706	692	0	correct_rejection	NA	0
26	Single	111	597	273	0	1	1	222415	691	1	hit	396	0
26	Single	112	598	274	4	0	0	223123	692	0	correct_rejection	NA	0
26	Single	113	599	275	9	0	0	223832	691	0	correct_rejection	NA	0
26	Single	114	600	276	7	0	0	224540	692	0	correct_rejection	NA	0
26	Single	115	601	277	7	0	0	225249	692	0	correct_rejection	NA	0
26	Single	116	602	278	0	1	1	225958	691	1	hit	385	0
26	Single	117	603	279	8	0	0	226666	692	0	correct_rejection	NA	0
26	Single	118	604	280	8	0	0	227375	691	0	correct_rejection	NA	0
26	Single	119	605	281	6	0	0	228083	692	0	correct_rejection	NA	0
26	Single	120	606	282	5	0	0	228792	691	0	correct_rejection	NA	0
26	Single	121	607	283	7	0	0	229500	692	0	correct_rejection	NA	0
26	Single	122	608	284	0	1	1	230209	692	1	hit	354	0
26	Single	123	609	285	7	0	0	230917	692	0	correct_rejection	NA	0
26	Single	124	610	286	8	0	0	231626	692	0	correct_rejection	NA	0
26	Single	125	611	287	5	0	0	232335	691	0	correct_rejection	NA	0
26	Single	126	612	288	0	1	1	233043	692	1	hit	371	0
26	Single	127	613	289	7	0	0	233752	691	0	correct_rejection	NA	0
26	Single	128	614	290	6	0	0	234460	692	0	correct_rejection	NA	0
26	Single	129	615	291	4	0	0	235169	692	0	correct_rejection	NA	0
26	Single	130	616	292	5	0	0	235877	692	0	correct_rejection	NA	0
26	Single	131	617	293	5	0	0	236586	692	0	correct_rejection	NA	0
26	Single	132	618	294	6	0	0	237295	691	0	correct_rejection	NA	0
26	Single	133	619	295	8	0	0	238003	692	0	correct_rejection	NA	0
26	Single	134	620	296	0	1	1	238712	691	1	hit	452	0
26	Single	135	621	297	6	0	0	239420	692	0	correct_rejection	NA	0
26	Single	136	622	298	9	0	0	240129	692	0	correct_rejection	NA	0
26	Single	137	623	299	4	0	0	240837	692	0	correct_rejection	NA	0
26	Single	138	624	300	8	0	0	241546	692	0	correct_rejection	NA	0
26	Single	139	625	301	7	0	0	242255	691	0	correct_rejection	NA	0
26	Single	140	626	302	0	1	1	242963	692	1	hit	356	0
26	Single	141	627	303	4	0	0	243672	691	0	correct_rejection	NA	0
26	Single	142	628	304	6	0	0	244380	692	0	correct_rejection	NA	0
26	Single	143	629	305	6	0	0	245089	692	0	correct_rejection	NA	0
26	Single	144	630	306	7	0	0	245797	692	0	correct_rejection	NA	0
26	Single	145	631	307	5	0	0	246506	692	0	correct_rejection	NA	0
26	Single	146	632	308	8	0	0	247215	691	0	correct_rejection	NA	0
26	Single	147	633	309	9	0	0	247923	692	0	correct_rejection	NA	0
26	Single	148	634	310	8	0	0	248632	691	0	correct_rejection	NA	0
26	Single	149	635	311	8	0	0	249340	692	0	correct_rejection	NA	0
26	Single	150	636	312	4	0	0	250049	691	0	correct_rejection	NA	0
26	Single	151	637	313	9	0	0	250757	692	0	correct_rejection	NA	0
26	Single	152	638	314	5	0	0	251466	692	0	correct_rejection	NA	0
26	Single	153	639	315	4	0	0	252174	692	0	correct_rejection	NA	0
26	Single	154	640	316	4	0	0	252883	692	0	correct_rejection	NA	0
26	Single	155	641	317	7	0	0	253592	691	0	correct_rejection	NA	0
26	Single	156	642	318	9	0	0	254300	692	0	correct_rejection	NA	0
26	Single	157	643	319	9	0	0	255009	691	0	correct_rejection	NA	0
26	Single	158	644	320	6	0	0	255717	692	1	false_alarm	562	0
26	Single	159	645	321	5	0	0	256426	692	0	correct_rejection	NA	0
26	Single	160	646	322	0	1	1	257134	692	1	hit	396	0
26	Single	161	647	323	9	0	0	257843	692	0	correct_rejection	NA	0
26	Single	162	648	324	7	0	0	258552	691	0	correct_rejection	NA	0
26	Triplet	1	325	325	6	0	0	266704	692	0	correct_rejection	NA	6378
26	Triplet	2	326	326	5	0	0	267413	692	0	correct_rejection	NA	0
26	Triplet	3	327	327	4	0	0	268121	692	0	correct_rejection	NA	0
26	Triplet	4	328	328	6	0	0	268830	692	0	correct_rejection	NA	0
26	Triplet	5	329	329	5	0	0	269539	691	0	correct_rejection	NA	0
26	Triplet	6	330	330	4	0	0	270247	692	0	correct_rejection	NA	0
26	Triplet	7	331	331	9	0	0	270956	691	0	correct_rejection	NA	0
26	Triplet	8	332	332	8	0	0	271664	692	0	correct_rejection	NA	0
26	Triplet	9	333	333	7	0	0	272373	692	0	correct_rejection	NA	0
26	Triplet	10	334	334	9	0	0	273081	692	0	correct_rejection	NA	0
26	Triplet	11	335	335	8	0	0	273790	692	0	correct_rejection	NA	0
26	Triplet	12	336	336	7	0	0	274499	691	0	correct_rejection	NA	0
26	Triplet	13	337	337	7	0	0	275207	692	0	correct_rejection	NA	0
26	Triplet	14	338	338	0	1	1	275916	691	1	hit	442	0
26	Triplet	15	339	339	8	0	0	276624	692	0	correct_rejection	NA	0
26	Triplet	16	340	340	9	0	0	277333	692	0	correct_rejection	NA	0
26	Triplet	17	341	341	9	0	0	278041	692	0	correct_rejection	NA	0
26	Triplet	18	342	342	8	0	0	278750	692	0	correct_rejection	NA	0
26	Triplet	19	343	343	7	0	0	279459	691	0	correct_rejection	NA	0
26	Triplet	20	344	344	6	0	0	280167	692	0	correct_rejection	NA	0
26	Triplet	21	345	345	5	0	0	280876	691	0	correct_rejection	NA	0
26	Triplet	22	346	346	4	0	0	281584	692	0	correct_rejection	NA	0
26	Triplet	23	347	347	7	0	0	282293	691	0	correct_rejection	NA	0
26	Triplet	24	348	348	8	0	0	283001	692	0	correct_rejection	NA	0
26	Triplet	25	349	349	9	0	0	283710	692	0	correct_rejection	NA	0
26	Triplet	26	350	350	4	0	0	284418	692	0	correct_rejection	NA	0
26	Triplet	27	351	351	5	0	0	285127	692	0	correct_rejection	NA	0
26	Triplet	28	352	352	6	0	0	285836	691	0	correct_rejection	NA	0
26	Triplet	29	353	353	6	0	0	286544	692	0	correct_rejection	NA	0
26	Triplet	30	354	354	0	1	1	287253	691	1	hit	501	0
26	Triplet	31	355	355	5	0	0	287961	692	0	correct_rejection	NA	0
26	Triplet	32	356	356	4	0	0	288670	692	0	correct_rejection	NA	0
26	Triplet	33	357	357	4	0	0	289378	692	0	correct_rejection	NA	0
26	Triplet	34	358	358	5	0	0	290087	692	0	correct_rejection	NA	0
26	Triplet	35	359	359	6	0	0	290796	691	0	correct_rejection	NA	0
26	Triplet	36	360	360	9	0	0	291504	692	0	correct_rejection	NA	0
26	Triplet	37	361	361	8	0	0	292213	691	0	correct_rejection	NA	0
26	Triplet	38	362	362	7	0	0	292921	692	0	correct_rejection	NA	0
26	Triplet	39	363	363	4	0	0	293630	692	0	correct_rejection	NA	0
26	Triplet	40	364	364	5	0	0	294338	692	0	correct_rejection	NA	0
26	Triplet	41	365	365	6	0	0	295047	692	0	correct_rejection	NA	0
26	Triplet	42	366	366	4	0	0	295756	691	0	correct_rejection	NA	0
26	Triplet	43	367	367	0	1	1	296464	692	1	hit	377	0
26	Triplet	44	368	368	5	0	0	297173	691	0	correct_rejection	NA	0
26	Triplet	45	369	369	6	0	0	297881	692	0	correct_rejection	NA	0
26	Triplet	46	370	370	7	0	0	298590	692	0	correct_rejection	NA	0
26	Triplet	47	371	371	8	0	0	299298	692	0	correct_rejection	NA	0
26	Triplet	48	372	372	9	0	0	300007	692	0	correct_rejection	NA	0
26	Triplet	49	373	373	7	0	0	300716	691	0	correct_rejection	NA	0
26	Triplet	50	374	374	8	0	0	301424	692	0	correct_rejection	NA	0
26	Triplet	51	375	375	9	0	0	302133	691	0	correct_rejection	NA	0
26	Triplet	52	376	376	0	1	2	302841	692	1	hit	370	0
26	Triplet	53	377	377	6	0	0	303550	691	0	correct_rejection	NA	0
26	Triplet	54	378	378	5	0	0	304258	692	0	correct_rejection	NA	0
26	Triplet	55	379	379	4	0	0	304967	692	0	correct_rejection	NA	0
26	Triplet	56	380	380	0	1	2	305676	691	1	hit	432	0
26	Triplet	57	381	381	7	0	0	306384	692	0	correct_rejection	NA	0
26	Triplet	58	382	382	8	0	0	307093	691	0	correct_rejection	NA	0
26	Triplet	59	383	383	9	0	0	307801	692	0	correct_rejection	NA	0
26	Triplet	60	384	384	9	0	0	308510	691	0	correct_rejection	NA	0
26	Triplet	61	385	385	8	0	0	309218	692	0	correct_rejection	NA	0
26	Triplet	62	386	386	7	0	0	309927	692	0	correct_rejection	NA	0
26	Triplet	63	387	387	4	0	0	310635	692	0	correct_rejection	NA	0
26	Triplet	64	388	388	5	0	0	311344	692	0	correct_rejection	NA	0
26	Triplet	65	389	389	6	0	0	312053	691	0	correct_rejection	NA	0
26	Triplet	66	390	390	7	0	0	312761	692	0	correct_rejection	NA	0
26	Triplet	67	391	391	8	0	0	313470	691	0	correct_rejection	NA	0
26	Triplet	68	392	392	0	1	1	314178	692	1	hit	471	0
26	Triplet	69	393	393	9	0	0	314887	692	0	correct_rejection	NA	0
26	Triplet	70	394	394	4	0	0	315595	692	0	correct_rejection	NA	0
26	Triplet	71	395	395	5	0	0	316304	692	0	correct_rejection	NA	0
26	Triplet	72	396	396	0	1	1	317013	691	1	hit	395	0
26	Triplet	73	397	397	6	0	0	317721	692	0	correct_rejection	NA	0
26	Triplet	74	398	398	4	0	0	318430	691	0	correct_rejection	NA	0
26	Triplet	75	399	399	0	1	1	319138	692	1	hit	371	0
26	Triplet	76	400	400	5	0	0	319847	692	0	correct_rejection	NA	0
26	Triplet	77	401	401	6	0	0	320555	692	0	correct_rejection	NA	0
26	Triplet	78	402	402	9	0	0	321264	692	0	correct_rejection	NA	0
26	Triplet	79	403	403	0	1	1	321973	691	1	hit	488	0
26	Triplet	80	404	404	8	0	0	322681	692	0	correct_rejection	NA	0
26	Triplet	81	405	405	7	0	0	323390	691	0	correct_rejection	NA	0
26	Triplet	82	406	406	9	0	0	324098	692	0	correct_rejection	NA	0
26	Triplet	83	407	407	8	0	0	324807	692	0	correct_rejection	NA	0
26	Triplet	84	408	408	7	0	0	325515	692	0	correct_rejection	NA	0
26	Triplet	85	409	409	6	0	0	326224	692	0	correct_rejection	NA	0
26	Triplet	86	410	410	5	0	0	326933	691	0	correct_rejection	NA	0
26	Triplet	87	411	411	4	0	0	327641	692	0	correct_rejection	NA	0
26	Triplet	88	412	412	4	0	0	328350	691	0	correct_rejection	NA	0
26	Triplet	89	413	413	5	0	0	329058	692	0	correct_rejection	NA	0
26	Triplet	90	414	414	6	0	0	329767	691	0	correct_rejection	NA	0
26	Triplet	91	415	415	6	0	0	330475	692	0	correct_rejection	NA	0
26	Triplet	92	416	416	5	0	0	331184	692	0	correct_rejection	NA	0
26	Triplet	93	417	417	4	0	0	331893	691	0	correct_rejection	NA	0
26	Triplet	94	418	418	9	0	0	332601	692	0	correct_rejection	NA	0
26	Triplet	95	419	419	8	0	0	333310	691	0	correct_rejection	NA	0
26	Triplet	96	420	420	7	0	0	334018	692	0	correct_rejection	NA	0
26	Triplet	97	421	421	0	1	2	334727	691	1	hit	326	0
26	Triplet	98	422	422	7	0	0	335435	692	0	correct_rejection	NA	0
26	Triplet	99	423	423	8	0	0	336144	692	0	correct_rejection	NA	0
26	Triplet	100	424	424	9	0	0	336852	692	0	correct_rejection	NA	0
26	Triplet	101	425	425	7	0	0	337561	692	0	correct_rejection	NA	0
26	Triplet	102	426	426	8	0	0	338270	691	0	correct_rejection	NA	0
26	Triplet	103	427	427	9	0	0	338978	692	0	correct_rejection	NA	0
26	Triplet	104	428	428	6	0	0	339687	691	0	correct_rejection	NA	0
26	Triplet	105	429	429	5	0	0	340395	692	0	correct_rejection	NA	0
26	Triplet	106	430	430	4	0	0	341104	692	0	correct_rejection	NA	0
26	Triplet	107	431	431	0	1	2	341812	692	1	hit	439	0
26	Triplet	108	432	432	6	0	0	342521	692	0	correct_rejection	NA	0
26	Triplet	109	433	433	5	0	0	343230	691	0	correct_rejection	NA	0
26	Triplet	110	434	434	0	1	1	343938	692	1	hit	459	0
26	Triplet	111	435	435	4	0	0	344647	691	0	correct_rejection	NA	0
26	Triplet	112	436	436	9	0	0	345355	692	0	correct_rejection	NA	0
26	Triplet	113	437	437	8	0	0	346064	692	0	correct_rejection	NA	0
26	Triplet	114	438	438	7	0	0	346772	692	0	correct_rejection	NA	0
26	Triplet	115	439	439	4	0	0	347481	692	0	correct_rejection	NA	0
26	Triplet	116	440	440	5	0	0	348190	691	0	correct_rejection	NA	0
26	Triplet	117	441	441	6	0	0	348898	692	0	correct_rejection	NA	0
26	Triplet	118	442	442	9	0	0	349607	691	0	correct_rejection	NA	0
26	Triplet	119	443	443	8	0	0	350315	692	0	correct_rejection	NA	0
26	Triplet	120	444	444	7	0	0	351024	692	0	correct_rejection	NA	0
26	Triplet	121	445	445	7	0	0	351732	692	0	correct_rejection	NA	0
26	Triplet	122	446	446	8	0	0	352441	692	0	correct_rejection	NA	0
26	Triplet	123	447	447	9	0	0	353150	691	0	correct_rejection	NA	0
26	Triplet	124	448	448	6	0	0	353858	692	0	correct_rejection	NA	0
26	Triplet	125	449	449	5	0	0	354567	691	0	correct_rejection	NA	0
26	Triplet	126	450	450	4	0	0	355275	692	0	correct_rejection	NA	0
26	Triplet	127	451	451	4	0	0	355984	691	0	correct_rejection	NA	0
26	Triplet	128	452	452	0	1	1	356692	692	1	hit	535	0
26	Triplet	129	453	453	5	0	0	357401	692	0	correct_rejection	NA	0
26	Triplet	130	454	454	6	0	0	358110	691	0	correct_rejection	NA	0
26	Triplet	131	455	455	0	1	2	358818	692	1	hit	441	0
26	Triplet	132	456	456	4	0	0	359527	691	0	correct_rejection	NA	0
26	Triplet	133	457	457	5	0	0	360235	692	0	correct_rejection	NA	0
26	Triplet	134	458	458	6	0	0	360944	691	0	correct_rejection	NA	0
26	Triplet	135	459	459	6	0	0	361652	692	0	correct_rejection	NA	0
26	Triplet	136	460	460	5	0	0	362361	692	0	correct_rejection	NA	0
26	Triplet	137	461	461	4	0	0	363069	692	0	correct_rejection	NA	0
26	Triplet	138	462	462	6	0	0	363778	692	0	correct_rejection	NA	0
26	Triplet	139	463	463	5	0	0	364487	691	0	correct_rejection	NA	0
26	Triplet	140	464	464	0	1	1	365195	692	1	hit	397	0
26	Triplet	141	465	465	4	0	0	365904	691	0	correct_rejection	NA	0
26	Triplet	142	466	466	7	0	0	366612	692	0	correct_rejection	NA	0
26	Triplet	143	467	467	8	0	0	367321	692	0	correct_rejection	NA	0
26	Triplet	144	468	468	9	0	0	368029	692	0	correct_rejection	NA	0
26	Triplet	145	469	469	7	0	0	368738	692	0	correct_rejection	NA	0
26	Triplet	146	470	470	8	0	0	369447	691	0	correct_rejection	NA	0
26	Triplet	147	471	471	9	0	0	370155	692	0	correct_rejection	NA	0
26	Triplet	148	472	472	4	0	0	370864	691	0	correct_rejection	NA	0
26	Triplet	149	473	473	5	0	0	371572	692	0	correct_rejection	NA	0
26	Triplet	150	474	474	6	0	0	372281	692	0	correct_rejection	NA	0
26	Triplet	151	475	475	0	1	2	372989	692	1	hit	392	0
26	Triplet	152	476	476	7	0	0	373698	692	0	correct_rejection	NA	0
26	Triplet	153	477	477	8	0	0	374407	691	0	correct_rejection	NA	0
26	Triplet	154	478	478	0	1	1	375115	692	0	miss	NA	0
26	Triplet	155	479	479	9	0	0	375824	691	0	correct_rejection	NA	0
26	Triplet	156	480	480	9	0	0	376532	692	0	correct_rejection	NA	0
26	Triplet	157	481	481	8	0	0	377241	692	0	correct_rejection	NA	0
26	Triplet	158	482	482	7	0	0	377949	692	0	correct_rejection	NA	0
26	Triplet	159	483	483	9	0	0	378658	692	0	correct_rejection	NA	0
26	Triplet	160	484	484	0	1	1	379367	691	1	hit	497	0
26	Triplet	161	485	485	8	0	0	380075	692	0	correct_rejection	NA	0
26	Triplet	162	486	486	7	0	0	380784	691	0	correct_rejection	NA	0
26	Correct	1	163	487	4	0	0	389803	692	0	correct_rejection	NA	6488
26	Correct	2	164	488	5	0	0	390512	692	0	correct_rejection	NA	0
26	Correct	3	165	489	6	0	0	391220	692	0	correct_rejection	NA	0
26	Correct	4	166	490	4	0	0	391929	692	0	correct_rejection	NA	0
26	Correct	5	167	491	5	0	0	392638	691	0	correct_rejection	NA	0
26	Correct	6	168	492	6	0	0	393346	692	0	correct_rejection	NA	0
26	Correct	7	169	493	4	0	0	394055	691	0	correct_rejection	NA	0
26	Correct	8	170	494	0	1	1	394763	692	1	hit	459	0
26	Correct	9	171	495	5	0	0	395472	692	0	correct_rejection	NA	0
26	Correct	10	172	496	6	0	0	396180	692	0	correct_rejection	NA	0
26	Correct	11	173	497	6	0	0	396889	692	0	correct_rejection	NA	0
26	Correct	12	174	498	5	0	0	397598	691	0	correct_rejection	NA	0
26	Correct	13	175	499	4	0	0	398306	692	0	correct_rejection	NA	0
26	Correct	14	176	500	0	1	2	399015	691	1	hit	372	0
26	Correct	15	177	501	6	0	0	399723	692	0	correct_rejection	NA	0
26	Correct	16	178	502	5	0	0	400432	692	0	correct_rejection	NA	0
26	Correct	17	179	503	4	0	0	401140	692	0	correct_rejection	NA	0
26	Correct	18	180	504	6	0	0	401849	692	0	correct_rejection	NA	0
26	Correct	19	181	505	5	0	0	402558	691	0	correct_rejection	NA	0
26	Correct	20	182	506	4	0	0	403266	692	0	correct_rejection	NA	0
26	Correct	21	183	507	0	1	3	403975	691	1	hit	410	0
26	Correct	22	184	508	9	0	0	404683	692	0	correct_rejection	NA	0
26	Correct	23	185	509	8	0	0	405392	691	0	correct_rejection	NA	0
26	Correct	24	186	510	7	0	0	406100	692	0	correct_rejection	NA	0
26	Correct	25	187	511	0	1	2	406809	692	1	hit	387	0
26	Correct	26	188	512	9	0	0	407517	692	0	correct_rejection	NA	0
26	Correct	27	189	513	8	0	0	408226	692	0	correct_rejection	NA	0
26	Correct	28	190	514	0	1	1	408935	691	1	hit	429	0
26	Correct	29	191	515	7	0	0	409643	692	0	correct_rejection	NA	0
26	Correct	30	192	516	9	0	0	410352	691	0	correct_rejection	NA	0
26	Correct	31	193	517	8	0	0	411060	692	0	correct_rejection	NA	0
26	Correct	32	194	518	7	0	0	411769	692	0	correct_rejection	NA	0
26	Correct	33	195	519	0	1	3	412477	692	1	hit	422	0
26	Correct	34	196	520	7	0	0	413186	692	0	correct_rejection	NA	0
26	Correct	35	197	521	8	0	0	413895	691	0	correct_rejection	NA	0
26	Correct	36	198	522	9	0	0	414603	692	0	correct_rejection	NA	0
26	Correct	37	199	523	7	0	0	415312	691	0	correct_rejection	NA	0
26	Correct	38	200	524	8	0	0	416020	692	0	correct_rejection	NA	0
26	Correct	39	201	525	9	0	0	416729	692	0	correct_rejection	NA	0
26	Correct	40	202	526	7	0	0	417437	692	0	correct_rejection	NA	0
26	Correct	41	203	527	8	0	0	418146	692	0	correct_rejection	NA	0
26	Correct	42	204	528	9	0	0	418855	691	0	correct_rejection	NA	0
26	Correct	43	205	529	4	0	0	419563	692	0	correct_rejection	NA	0
26	Correct	44	206	530	5	0	0	420272	691	0	correct_rejection	NA	0
26	Correct	45	207	531	6	0	0	420980	692	0	correct_rejection	NA	0
26	Correct	46	208	532	4	0	0	421689	692	0	correct_rejection	NA	0
26	Correct	47	209	533	5	0	0	422397	692	0	correct_rejection	NA	0
26	Correct	48	210	534	6	0	0	423106	692	0	correct_rejection	NA	0
26	Correct	49	211	535	4	0	0	423815	691	0	correct_rejection	NA	0
26	Correct	50	212	536	5	0	0	424523	692	0	correct_rejection	NA	0
26	Correct	51	213	537	6	0	0	425232	691	0	correct_rejection	NA	0
26	Correct	52	214	538	6	0	0	425940	692	0	correct_rejection	NA	0
26	Correct	53	215	539	5	0	0	426649	692	0	correct_rejection	NA	0
26	Correct	54	216	540	4	0	0	427357	692	0	correct_rejection	NA	0
26	Correct	55	217	541	6	0	0	428066	692	0	correct_rejection	NA	0
26	Correct	56	218	542	5	0	0	428775	691	0	correct_rejection	NA	0
26	Correct	57	219	543	4	0	0	429483	692	0	correct_rejection	NA	0
26	Correct	58	220	544	6	0	0	430192	691	0	correct_rejection	NA	0
26	Correct	59	221	545	5	0	0	430900	692	0	correct_rejection	NA	0
26	Correct	60	222	546	0	1	1	431609	691	1	hit	497	0
26	Correct	61	223	547	4	0	0	432317	692	0	correct_rejection	NA	0
26	Correct	62	224	548	9	0	0	433026	692	0	correct_rejection	NA	0
26	Correct	63	225	549	0	1	1	433734	692	1	hit	476	0
26	Correct	64	226	550	8	0	0	434443	692	0	correct_rejection	NA	0
26	Correct	65	227	551	7	0	0	435152	691	0	correct_rejection	NA	0
26	Correct	66	228	552	9	0	0	435860	692	0	correct_rejection	NA	0
26	Correct	67	229	553	8	0	0	436569	691	0	correct_rejection	NA	0
26	Correct	68	230	554	7	0	0	437277	692	0	correct_rejection	NA	0
26	Correct	69	231	555	9	0	0	437986	692	0	correct_rejection	NA	0
26	Correct	70	232	556	8	0	0	438694	692	0	correct_rejection	NA	0
26	Correct	71	233	557	7	0	0	439403	692	0	correct_rejection	NA	0
26	Correct	72	234	558	7	0	0	440112	691	0	correct_rejection	NA	0
26	Correct	73	235	559	8	0	0	440820	692	0	correct_rejection	NA	0
26	Correct	74	236	560	0	1	1	441529	691	1	hit	435	0
26	Correct	75	237	561	9	0	0	442237	692	0	correct_rejection	NA	0
26	Correct	76	238	562	7	0	0	442946	692	0	correct_rejection	NA	0
26	Correct	77	239	563	0	1	1	443654	692	1	hit	443	0
26	Correct	78	240	564	8	0	0	444363	692	0	correct_rejection	NA	0
26	Correct	79	241	565	9	0	0	445072	691	0	correct_rejection	NA	0
26	Correct	80	242	566	7	0	0	445780	692	0	correct_rejection	NA	0
26	Correct	81	243	567	0	1	1	446489	691	1	hit	426	0
26	Correct	82	244	568	8	0	0	447197	692	0	correct_rejection	NA	0
26	Correct	83	245	569	9	0	0	447906	692	0	correct_rejection	NA	0
26	Correct	84	246	570	4	0	0	448614	692	0	correct_rejection	NA	0
26	Correct	85	247	571	5	0	0	449323	692	0	correct_rejection	NA	0
26	Correct	86	248	572	6	0	0	450032	691	0	correct_rejection	NA	0
26	Correct	87	249	573	0	1	2	450740	692	1	hit	426	0
26	Correct	88	250	574	4	0	0	451449	691	0	correct_rejection	NA	0
26	Correct	89	251	575	5	0	0	452157	692	0	correct_rejection	NA	0
26	Correct	90	252	576	6	0	0	452866	692	0	correct_rejection	NA	0
26	Correct	91	253	577	4	0	0	453574	692	0	correct_rejection	NA	0
26	Correct	92	254	578	5	0	0	454283	692	0	correct_rejection	NA	0
26	Correct	93	255	579	6	0	0	454992	691	0	correct_rejection	NA	0
26	Correct	94	256	580	6	0	0	455700	692	0	correct_rejection	NA	0
26	Correct	95	257	581	0	1	1	456409	691	1	hit	409	0
26	Correct	96	258	582	5	0	0	457117	692	0	correct_rejection	NA	0
26	Correct	97	259	583	4	0	0	457826	691	0	correct_rejection	NA	0
26	Correct	98	260	584	6	0	0	458534	692	0	correct_rejection	NA	0
26	Correct	99	261	585	5	0	0	459243	692	0	correct_rejection	NA	0
26	Correct	100	262	586	4	0	0	459951	692	0	correct_rejection	NA	0
26	Correct	101	263	587	6	0	0	460660	692	0	correct_rejection	NA	0
26	Correct	102	264	588	5	0	0	461369	691	0	correct_rejection	NA	0
26	Correct	103	265	589	4	0	0	462077	692	0	correct_rejection	NA	0
26	Correct	104	266	590	9	0	0	462786	691	0	correct_rejection	NA	0
26	Correct	105	267	591	8	0	0	463494	692	0	correct_rejection	NA	0
26	Correct	106	268	592	7	0	0	464203	692	0	correct_rejection	NA	0
26	Correct	107	269	593	9	0	0	464911	692	0	correct_rejection	NA	0
26	Correct	108	270	594	8	0	0	465620	692	0	correct_rejection	NA	0
26	Correct	109	271	595	7	0	0	466329	691	0	correct_rejection	NA	0
26	Correct	110	272	596	9	0	0	467037	692	0	correct_rejection	NA	0
26	Correct	111	273	597	8	0	0	467746	691	0	correct_rejection	NA	0
26	Correct	112	274	598	7	0	0	468454	692	0	correct_rejection	NA	0
26	Correct	113	275	599	7	0	0	469163	692	0	correct_rejection	NA	0
26	Correct	114	276	600	8	0	0	469871	692	0	correct_rejection	NA	0
26	Correct	115	277	601	0	1	1	470580	692	1	hit	633	0
26	Correct	116	278	602	9	0	0	471289	691	0	correct_rejection	NA	0
26	Correct	117	279	603	7	0	0	471997	692	0	correct_rejection	NA	0
26	Correct	118	280	604	8	0	0	472706	691	0	correct_rejection	NA	0
26	Correct	119	281	605	9	0	0	473414	692	0	correct_rejection	NA	0
26	Correct	120	282	606	0	1	2	474123	692	1	hit	390	0
26	Correct	121	283	607	7	0	0	474831	692	0	correct_rejection	NA	0
26	Correct	122	284	608	8	0	0	475540	692	0	correct_rejection	NA	0
26	Correct	123	285	609	9	0	0	476249	691	0	correct_rejection	NA	0
26	Correct	124	286	610	4	0	0	476957	692	0	correct_rejection	NA	0
26	Correct	125	287	611	5	0	0	477666	691	0	correct_rejection	NA	0
26	Correct	126	288	612	0	1	1	478374	692	1	hit	464	0
26	Correct	127	289	613	6	0	0	479083	692	0	correct_rejection	NA	0
26	Correct	128	290	614	4	0	0	479791	692	0	correct_rejection	NA	0
26	Correct	129	291	615	5	0	0	480500	692	0	correct_rejection	NA	0
26	Correct	130	292	616	6	0	0	481209	691	0	correct_rejection	NA	0
26	Correct	131	293	617	4	0	0	481917	692	0	correct_rejection	NA	0
26	Correct	132	294	618	5	0	0	482626	691	0	correct_rejection	NA	0
26	Correct	133	295	619	6	0	0	483334	692	0	correct_rejection	NA	0
26	Correct	134	296	620	6	0	0	484043	691	0	correct_rejection	NA	0
26	Correct	135	297	621	5	0	0	484751	692	0	correct_rejection	NA	0
26	Correct	136	298	622	4	0	0	485460	692	0	correct_rejection	NA	0
26	Correct	137	299	623	6	0	0	486168	692	0	correct_rejection	NA	0
26	Correct	138	300	624	5	0	0	486877	692	0	correct_rejection	NA	0
26	Correct	139	301	625	4	0	0	487586	691	0	correct_rejection	NA	0
26	Correct	140	302	626	6	0	0	488294	692	0	correct_rejection	NA	0
26	Correct	141	303	627	5	0	0	489003	691	0	correct_rejection	NA	0
26	Correct	142	304	628	4	0	0	489711	692	0	correct_rejection	NA	0
26	Correct	143	305	629	9	0	0	490420	692	0	correct_rejection	NA	0
26	Correct	144	306	630	8	0	0	491128	692	0	correct_rejection	NA	0
26	Correct	145	307	631	7	0	0	491837	692	0	correct_rejection	NA	0
26	Correct	146	308	632	9	0	0	492546	691	0	correct_rejection	NA	0
26	Correct	147	309	633	8	0	0	493254	692	0	correct_rejection	NA	0
26	Correct	148	310	634	0	1	1	493963	691	1	hit	437	0
26	Correct	149	311	635	7	0	0	494671	692	0	correct_rejection	NA	0
26	Correct	150	312	636	9	0	0	495380	692	0	correct_rejection	NA	0
26	Correct	151	313	637	8	0	0	496088	692	0	correct_rejection	NA	0
26	Correct	152	314	638	7	0	0	496797	692	0	correct_rejection	NA	0
26	Correct	153	315	639	7	0	0	497506	691	0	correct_rejection	NA	0
26	Correct	154	316	640	0	1	1	498214	692	1	hit	495	0
26	Correct	155	317	641	8	0	0	498923	691	0	correct_rejection	NA	0
26	Correct	156	318	642	9	0	0	499631	692	0	correct_rejection	NA	0
26	Correct	157	319	643	7	0	0	500340	692	0	correct_rejection	NA	0
26	Correct	158	320	644	8	0	0	501048	692	0	correct_rejection	NA	0
26	Correct	159	321	645	9	0	0	501757	692	0	correct_rejection	NA	0
26	Correct	160	322	646	7	0	0	502466	691	0	correct_rejection	NA	0
26	Correct	161	323	647	8	0	0	503174	692	0	correct_rejection	NA	0
26	Correct	162	324	648	9	0	0	503883	691	0	correct_rejection	NA	0
26	Nonet	1	163	649	4	0	0	513978	691	0	correct_rejection	NA	7659
26	Nonet	2	164	650	5	0	0	514686	692	0	correct_rejection	NA	0
26	Nonet	3	165	651	6	0	0	515395	692	0	correct_rejection	NA	0
26	Nonet	4	166	652	4	0	0	516103	692	0	correct_rejection	NA	0
26	Nonet	5	167	653	5	0	0	516812	692	0	correct_rejection	NA	0
26	Nonet	6	168	654	6	0	0	517521	691	0	correct_rejection	NA	0
26	Nonet	7	169	655	4	0	0	518229	692	0	correct_rejection	NA	0
26	Nonet	8	170	656	5	0	0	518938	691	0	correct_rejection	NA	0
26	Nonet	9	171	657	0	1	1	519646	692	1	hit	627	0
26	Nonet	10	172	658	6	0	0	520355	691	0	correct_rejection	NA	0
26	Nonet	11	173	659	4	0	0	521063	692	0	correct_rejection	NA	0
26	Nonet	12	174	660	5	0	0	521772	692	0	correct_rejection	NA	0
26	Nonet	13	175	661	6	0	0	522480	692	0	correct_rejection	NA	0
26	Nonet	14	176	662	4	0	0	523189	692	0	correct_rejection	NA	0
26	Nonet	15	177	663	5	0	0	523898	691	0	correct_rejection	NA	0
26	Nonet	16	178	664	6	0	0	524606	692	0	correct_rejection	NA	0
26	Nonet	17	179	665	4	0	0	525315	691	0	correct_rejection	NA	0
26	Nonet	18	180	666	5	0	0	526023	692	0	correct_rejection	NA	0
26	Nonet	19	181	667	6	0	0	526732	692	0	correct_rejection	NA	0
26	Nonet	20	182	668	7	0	0	527440	692	0	correct_rejection	NA	0
26	Nonet	21	183	669	8	0	0	528149	692	0	correct_rejection	NA	0
26	Nonet	22	184	670	9	0	0	528858	691	0	correct_rejection	NA	0
26	Nonet	23	185	671	7	0	0	529566	692	0	correct_rejection	NA	0
26	Nonet	24	186	672	8	0	0	530275	691	0	correct_rejection	NA	0
26	Nonet	25	187	673	9	0	0	530983	692	0	correct_rejection	NA	0
26	Nonet	26	188	674	7	0	0	531692	692	0	correct_rejection	NA	0
26	Nonet	27	189	675	0	1	1	532400	692	1	hit	469	0
26	Nonet	28	190	676	8	0	0	533109	692	0	correct_rejection	NA	0
26	Nonet	29	191	677	9	0	0	533818	691	0	correct_rejection	NA	0
26	Nonet	30	192	678	0	1	3	534526	692	1	hit	429	0
26	Nonet	31	193	679	7	0	0	535235	691	0	correct_rejection	NA	0
26	Nonet	32	194	680	8	0	0	535943	692	0	correct_rejection	NA	0
26	Nonet	33	195	681	9	0	0	536652	692	0	correct_rejection	NA	0
26	Nonet	34	196	682	7	0	0	537360	692	0	correct_rejection	NA	0
26	Nonet	35	197	683	0	1	1	538069	692	1	hit	463	0
26	Nonet	36	198	684	8	0	0	538778	691	0	correct_rejection	NA	0
26	Nonet	37	199	685	9	0	0	539486	692	0	correct_rejection	NA	0
26	Nonet	38	200	686	7	0	0	540195	691	0	correct_rejection	NA	0
26	Nonet	39	201	687	8	0	0	540903	692	0	correct_rejection	NA	0
26	Nonet	40	202	688	9	0	0	541612	691	0	correct_rejection	NA	0
26	Nonet	41	203	689	6	0	0	542320	692	0	correct_rejection	NA	0
26	Nonet	42	204	690	5	0	0	543029	692	0	correct_rejection	NA	0
26	Nonet	43	205	691	4	0	0	543738	691	0	correct_rejection	NA	0
26	Nonet	44	206	692	6	0	0	544446	692	0	correct_rejection	NA	0
26	Nonet	45	207	693	5	0	0	545155	691	0	correct_rejection	NA	0
26	Nonet	46	208	694	4	0	0	545863	692	0	correct_rejection	NA	0
26	Nonet	47	209	695	6	0	0	546572	691	0	correct_rejection	NA	0
26	Nonet	48	210	696	5	0	0	547280	692	0	correct_rejection	NA	0
26	Nonet	49	211	697	0	1	1	547989	692	1	hit	443	0
26	Nonet	50	212	698	4	0	0	548697	692	0	correct_rejection	NA	0
26	Nonet	51	213	699	6	0	0	549406	692	0	correct_rejection	NA	0
26	Nonet	52	214	700	5	0	0	550115	691	0	correct_rejection	NA	0
26	Nonet	53	215	701	4	0	0	550823	692	0	correct_rejection	NA	0
26	Nonet	54	216	702	6	0	0	551532	691	0	correct_rejection	NA	0
26	Nonet	55	217	703	0	1	1	552240	692	1	hit	477	0
26	Nonet	56	218	704	5	0	0	552949	692	0	correct_rejection	NA	0
26	Nonet	57	219	705	4	0	0	553657	692	0	correct_rejection	NA	0
26	Nonet	58	220	706	6	0	0	554366	692	0	correct_rejection	NA	0
26	Nonet	59	221	707	5	0	0	555075	691	0	correct_rejection	NA	0
26	Nonet	60	222	708	4	0	0	555783	692	0	correct_rejection	NA	0
26	Nonet	61	223	709	4	0	0	556492	691	0	correct_rejection	NA	0
26	Nonet	62	224	710	0	1	1	557200	692	1	hit	467	0
26	Nonet	63	225	711	5	0	0	557909	692	0	correct_rejection	NA	0
26	Nonet	64	226	712	6	0	0	558617	692	0	correct_rejection	NA	0
26	Nonet	65	227	713	4	0	0	559326	692	0	correct_rejection	NA	0
26	Nonet	66	228	714	5	0	0	560035	691	0	correct_rejection	NA	0
26	Nonet	67	229	715	6	0	0	560743	692	0	correct_rejection	NA	0
26	Nonet	68	230	716	4	0	0	561452	691	0	correct_rejection	NA	0
26	Nonet	69	231	717	5	0	0	562160	692	0	correct_rejection	NA	0
26	Nonet	70	232	718	6	0	0	562869	692	0	correct_rejection	NA	0
26	Nonet	71	233	719	6	0	0	563577	692	0	correct_rejection	NA	0
26	Nonet	72	234	720	5	0	0	564286	692	0	correct_rejection	NA	0
26	Nonet	73	235	721	4	0	0	564995	691	0	correct_rejection	NA	0
26	Nonet	74	236	722	6	0	0	565703	692	0	correct_rejection	NA	0
26	Nonet	75	237	723	0	1	1	566412	691	1	hit	487	0
26	Nonet	76	238	724	5	0	0	567120	692	0	correct_rejection	NA	0
26	Nonet	77	239	725	4	0	0	567829	691	0	correct_rejection	NA	0
26	Nonet	78	240	726	0	1	2	568537	692	1	hit	391	0
26	Nonet	79	241	727	6	0	0	569246	692	0	correct_rejection	NA	0
26	Nonet	80	242	728	5	0	0	569955	691	0	correct_rejection	NA	0
26	Nonet	81	243	729	4	0	0	570663	692	0	correct_rejection	NA	0
26	Nonet	82	244	730	9	0	0	571372	691	0	correct_rejection	NA	0
26	Nonet	83	245	731	0	1	1	572080	692	1	hit	486	0
26	Nonet	84	246	732	8	0	0	572789	691	0	correct_rejection	NA	0
26	Nonet	85	247	733	7	0	0	573497	692	0	correct_rejection	NA	0
26	Nonet	86	248	734	9	0	0	574206	692	0	correct_rejection	NA	0
26	Nonet	87	249	735	8	0	0	574914	692	0	correct_rejection	NA	0
26	Nonet	88	250	736	7	0	0	575623	692	0	correct_rejection	NA	0
26	Nonet	89	251	737	9	0	0	576332	691	0	correct_rejection	NA	0
26	Nonet	90	252	738	8	0	0	577040	692	0	correct_rejection	NA	0
26	Nonet	91	253	739	7	0	0	577749	691	0	correct_rejection	NA	0
26	Nonet	92	254	740	4	0	0	578457	692	0	correct_rejection	NA	0
26	Nonet	93	255	741	5	0	0	579166	692	0	correct_rejection	NA	0
26	Nonet	94	256	742	6	0	0	579874	692	0	correct_rejection	NA	0
26	Nonet	95	257	743	0	1	2	580583	692	0	miss	NA	0
26	Nonet	96	258	744	4	0	0	581292	691	1	false_alarm	232	0
26	Nonet	97	259	745	5	0	0	582000	692	0	correct_rejection	NA	0
26	Nonet	98	260	746	6	0	0	582709	691	0	correct_rejection	NA	0
26	Nonet	99	261	747	4	0	0	583417	692	0	correct_rejection	NA	0
26	Nonet	100	262	748	0	1	1	584126	692	1	hit	443	0
26	Nonet	101	263	749	5	0	0	584834	692	0	correct_rejection	NA	0
26	Nonet	102	264	750	6	0	0	585543	692	0	correct_rejection	NA	0
26	Nonet	103	265	751	9	0	0	586252	691	0	correct_rejection	NA	0
26	Nonet	104	266	752	0	1	1	586960	692	1	hit	563	0
26	Nonet	105	267	753	8	0	0	587669	691	0	correct_rejection	NA	0
26	Nonet	106	268	754	7	0	0	588377	692	0	correct_rejection	NA	0
26	Nonet	107	269	755	9	0	0	589086	692	0	correct_rejection	NA	0
26	Nonet	108	270	756	0	1	1	589794	692	1	hit	453	0
26	Nonet	109	271	757	8	0	0	590503	692	0	correct_rejection	NA	0
26	Nonet	110	272	758	7	0	0	591212	691	0	correct_rejection	NA	0
26	Nonet	111	273	759	9	0	0	591920	692	0	correct_rejection	NA	0
26	Nonet	112	274	760	8	0	0	592629	691	0	correct_rejection	NA	0
26	Nonet	113	275	761	7	0	0	593337	692	0	correct_rejection	NA	0
26	Nonet	114	276	762	0	1	3	594046	691	1	hit	375	0
26	Nonet	115	277	763	7	0	0	594754	692	0	correct_rejection	NA	0
26	Nonet	116	278	764	8	0	0	595463	692	0	correct_rejection	NA	0
26	Nonet	117	279	765	9	0	0	596172	691	0	correct_rejection	NA	0
26	Nonet	118	280	766	7	0	0	596880	692	0	correct_rejection	NA	0
26	Nonet	119	281	767	8	0	0	597589	691	0	correct_rejection	NA	0
26	Nonet	120	282	768	9	0	0	598297	692	0	correct_rejection	NA	0
26	Nonet	121	283	769	7	0	0	599006	691	0	correct_rejection	NA	0
26	Nonet	122	284	770	8	0	0	599714	692	0	correct_rejection	NA	0
26	Nonet	123	285	771	9	0	0	600423	692	0	correct_rejection	NA	0
26	Nonet	124	286	772	9	0	0	601131	692	0	correct_rejection	NA	0
26	Nonet	125	287	773	8	0	0	601840	692	0	correct_rejection	NA	0
26	Nonet	126	288	774	7	0	0	602549	691	0	correct_rejection	NA	0
26	Nonet	127	289	775	9	0	0	603257	692	0	correct_rejection	NA	0
26	Nonet	128	290	776	8	0	0	603966	691	0	correct_rejection	NA	0
26	Nonet	129	291	777	7	0	0	604674	692	0	correct_rejection	NA	0
26	Nonet	130	292	778	9	0	0	605383	692	0	correct_rejection	NA	0
26	Nonet	131	293	779	8	0	0	606091	692	0	correct_rejection	NA	0
26	Nonet	132	294	780	7	0	0	606800	692	0	correct_rejection	NA	0
26	Nonet	133	295	781	0	1	3	607509	691	1	hit	392	0
26	Nonet	134	296	782	9	0	0	608217	692	0	correct_rejection	NA	0
26	Nonet	135	297	783	8	0	0	608926	691	0	correct_rejection	NA	0
26	Nonet	136	298	784	7	0	0	609634	692	0	correct_rejection	NA	0
26	Nonet	137	299	785	9	0	0	610343	692	0	correct_rejection	NA	0
26	Nonet	138	300	786	8	0	0	611051	692	0	correct_rejection	NA	0
26	Nonet	139	301	787	7	0	0	611760	692	0	correct_rejection	NA	0
26	Nonet	140	302	788	9	0	0	612469	691	0	correct_rejection	NA	0
26	Nonet	141	303	789	8	0	0	613177	692	0	correct_rejection	NA	0
26	Nonet	142	304	790	7	0	0	613886	691	0	correct_rejection	NA	0
26	Nonet	143	305	791	6	0	0	614594	692	0	correct_rejection	NA	0
26	Nonet	144	306	792	5	0	0	615303	692	0	correct_rejection	NA	0
26	Nonet	145	307	793	4	0	0	616011	692	0	correct_rejection	NA	0
26	Nonet	146	308	794	0	1	2	616720	692	1	hit	443	0
26	Nonet	147	309	795	6	0	0	617429	691	0	correct_rejection	NA	0
26	Nonet	148	310	796	5	0	0	618137	692	0	correct_rejection	NA	0
26	Nonet	149	311	797	4	0	0	618846	691	0	correct_rejection	NA	0
26	Nonet	150	312	798	6	0	0	619554	692	0	correct_rejection	NA	0
26	Nonet	151	313	799	5	0	0	620263	691	0	correct_rejection	NA	0
26	Nonet	152	314	800	4	0	0	620971	692	0	correct_rejection	NA	0
26	Nonet	153	315	801	7	0	0	621680	692	0	correct_rejection	NA	0
26	Nonet	154	316	802	8	0	0	622389	691	0	correct_rejection	NA	0
26	Nonet	155	317	803	0	1	1	623097	692	1	hit	491	0
26	Nonet	156	318	804	9	0	0	623806	691	0	correct_rejection	NA	0
26	Nonet	157	319	805	7	0	0	624514	692	0	correct_rejection	NA	0
26	Nonet	158	320	806	8	0	0	625223	691	0	correct_rejection	NA	0
26	Nonet	159	321	807	9	0	0	625931	692	0	correct_rejection	NA	0
26	Nonet	160	322	808	7	0	0	626640	692	0	correct_rejection	NA	0
26	Nonet	161	323	809	8	0	0	627348	692	0	correct_rejection	NA	0
26	Nonet	162	324	810	9	0	0	628057	692	0	correct_rejection	NA	0
trigger nr 620 at 630275
trigger nr 623 at 705112
26	Correct	1	325	811	4	0	0	712943	692	0	correct_rejection	NA	7799
26	Correct	2	326	812	5	0	0	713652	692	0	correct_rejection	NA	0
26	Correct	3	327	813	6	0	0	714361	691	0	correct_rejection	NA	0
26	Correct	4	328	814	4	0	0	715069	692	0	correct_rejection	NA	0
26	Correct	5	329	815	5	0	0	715778	691	0	correct_rejection	NA	0
26	Correct	6	330	816	6	0	0	716486	692	0	correct_rejection	NA	0
26	Correct	7	331	817	4	0	0	717195	692	0	correct_rejection	NA	0
26	Correct	8	332	818	5	0	0	717903	692	0	correct_rejection	NA	0
26	Correct	9	333	819	6	0	0	718612	692	0	correct_rejection	NA	0
26	Correct	10	334	820	0	1	3	719321	691	1	hit	374	0
26	Correct	11	335	821	6	0	0	720029	692	0	correct_rejection	NA	0
26	Correct	12	336	822	5	0	0	720738	691	0	correct_rejection	NA	0
26	Correct	13	337	823	4	0	0	721446	692	0	correct_rejection	NA	0
26	Correct	14	338	824	6	0	0	722155	692	0	correct_rejection	NA	0
26	Correct	15	339	825	5	0	0	722863	692	0	correct_rejection	NA	0
26	Correct	16	340	826	4	0	0	723572	692	0	correct_rejection	NA	0
26	Correct	17	341	827	6	0	0	724281	691	0	correct_rejection	NA	0
26	Correct	18	342	828	0	1	1	724989	692	1	hit	427	0
26	Correct	19	343	829	5	0	0	725698	691	0	correct_rejection	NA	0
26	Correct	20	344	830	4	0	0	726406	692	0	correct_rejection	NA	0
26	Correct	21	345	831	9	0	0	727115	691	0	correct_rejection	NA	0
26	Correct	22	346	832	8	0	0	727823	692	0	correct_rejection	NA	0
26	Correct	23	347	833	7	0	0	728532	692	0	correct_rejection	NA	0
26	Correct	24	348	834	0	1	2	729240	692	1	hit	394	0
26	Correct	25	349	835	9	0	0	729949	692	0	correct_rejection	NA	0
26	Correct	26	350	836	8	0	0	730658	691	0	correct_rejection	NA	0
26	Correct	27	351	837	7	0	0	731366	692	0	correct_rejection	NA	0
26	Correct	28	352	838	9	0	0	732075	691	0	correct_rejection	NA	0
26	Correct	29	353	839	8	0	0	732783	692	0	correct_rejection	NA	0
26	Correct	30	354	840	7	0	0	733492	692	0	correct_rejection	NA	0
26	Correct	31	355	841	7	0	0	734200	692	0	correct_rejection	NA	0
26	Correct	32	356	842	8	0	0	734909	692	0	correct_rejection	NA	0
26	Correct	33	357	843	9	0	0	735618	691	0	correct_rejection	NA	0
26	Correct	34	358	844	7	0	0	736326	692	0	correct_rejection	NA	0
26	Correct	35	359	845	8	0	0	737035	691	0	correct_rejection	NA	0
26	Correct	36	360	846	9	0	0	737743	692	0	correct_rejection	NA	0
26	Correct	37	361	847	7	0	0	738452	692	0	correct_rejection	NA	0
26	Correct	38	362	848	0	1	1	739160	692	1	hit	436	0
26	Correct	39	363	849	8	0	0	739869	692	0	correct_rejection	NA	0
26	Correct	40	364	850	9	0	0	740578	691	0	correct_rejection	NA	0
26	Correct	41	365	851	4	0	0	741286	692	0	correct_rejection	NA	0
26	Correct	42	366	852	5	0	0	741995	691	0	correct_rejection	NA	0
26	Correct	43	367	853	6	0	0	742703	692	0	correct_rejection	NA	0
26	Correct	44	368	854	4	0	0	743412	692	0	correct_rejection	NA	0
26	Correct	45	369	855	5	0	0	744120	692	0	correct_rejection	NA	0
26	Correct	46	370	856	6	0	0	744829	692	0	correct_rejection	NA	0
26	Correct	47	371	857	4	0	0	745538	691	0	correct_rejection	NA	0
26	Correct	48	372	858	0	1	1	746246	692	1	hit	530	0
26	Correct	49	373	859	5	0	0	746955	691	0	correct_rejection	NA	0
26	Correct	50	374	860	6	0	0	747663	692	0	correct_rejection	NA	0
26	Correct	51	375	861	6	0	0	748372	691	0	correct_rejection	NA	0
26	Correct	52	376	862	5	0	0	749080	692	0	correct_rejection	NA	0
26	Correct	53	377	863	4	0	0	749789	692	0	correct_rejection	NA	0
26	Correct	54	378	864	6	0	0	750498	691	0	correct_rejection	NA	0
26	Correct	55	379	865	5	0	0	751206	692	0	correct_rejection	NA	0
26	Correct	56	380	866	4	0	0	751915	691	0	correct_rejection	NA	0
26	Correct	57	381	867	6	0	0	752623	692	0	correct_rejection	NA	0
26	Correct	58	382	868	5	0	0	753332	691	0	correct_rejection	NA	0
26	Correct	59	383	869	4	0	0	754040	692	0	correct_rejection	NA	0
26	Correct	60	384	870	9	0	0	754749	692	0	correct_rejection	NA	0
26	Correct	61	385	871	8	0	0	755457	692	0	correct_rejection	NA	0
26	Correct	62	386	872	7	0	0	756166	692	0	correct_rejection	NA	0
26	Correct	63	387	873	9	0	0	756875	691	0	correct_rejection	NA	0
26	Correct	64	388	874	8	0	0	757583	692	0	correct_rejection	NA	0
26	Correct	65	389	875	0	1	1	758292	691	1	hit	441	0
26	Correct	66	390	876	7	0	0	759000	692	0	correct_rejection	NA	0
26	Correct	67	391	877	9	0	0	759709	692	0	correct_rejection	NA	0
26	Correct	68	392	878	8	0	0	760417	692	0	correct_rejection	NA	0
26	Correct	69	393	879	7	0	0	761126	692	0	correct_rejection	NA	0
26	Correct	70	394	880	7	0	0	761835	691	0	correct_rejection	NA	0
26	Correct	71	395	881	8	0	0	762543	692	0	correct_rejection	NA	0
26	Correct	72	396	882	9	0	0	763252	691	0	correct_rejection	NA	0
26	Correct	73	397	883	0	1	2	763960	692	1	hit	403	0
26	Correct	74	398	884	7	0	0	764669	692	0	correct_rejection	NA	0
26	Correct	75	399	885	8	0	0	765377	692	0	correct_rejection	NA	0
26	Correct	76	400	886	0	1	1	766086	692	1	hit	510	0
26	Correct	77	401	887	9	0	0	766795	691	0	correct_rejection	NA	0
26	Correct	78	402	888	7	0	0	767503	692	0	correct_rejection	NA	0
26	Correct	79	403	889	8	0	0	768212	691	0	correct_rejection	NA	0
26	Correct	80	404	890	0	1	1	768920	692	1	hit	410	0
26	Correct	81	405	891	9	0	0	769629	692	0	correct_rejection	NA	0
26	Correct	82	406	892	4	0	0	770337	692	0	correct_rejection	NA	0
26	Correct	83	407	893	5	0	0	771046	692	0	correct_rejection	NA	0
26	Correct	84	408	894	0	1	1	771755	691	1	hit	403	0
26	Correct	85	409	895	6	0	0	772463	692	0	correct_rejection	NA	0
26	Correct	86	410	896	4	0	0	773172	691	0	correct_rejection	NA	0
26	Correct	87	411	897	5	0	0	773880	692	0	correct_rejection	NA	0
26	Correct	88	412	898	6	0	0	774589	692	0	correct_rejection	NA	0
26	Correct	89	413	899	4	0	0	775297	692	0	correct_rejection	NA	0
26	Correct	90	414	900	5	0	0	776006	692	0	correct_rejection	NA	0
26	Correct	91	415	901	6	0	0	776715	691	0	correct_rejection	NA	0
26	Correct	92	416	902	6	0	0	777423	692	0	correct_rejection	NA	0
26	Correct	93	417	903	5	0	0	778132	691	0	correct_rejection	NA	0
26	Correct	94	418	904	4	0	0	778840	692	0	correct_rejection	NA	0
26	Correct	95	419	905	6	0	0	779549	691	0	correct_rejection	NA	0
26	Correct	96	420	906	5	0	0	780257	692	0	correct_rejection	NA	0
26	Correct	97	421	907	4	0	0	780966	692	0	correct_rejection	NA	0
26	Correct	98	422	908	6	0	0	781674	692	0	correct_rejection	NA	0
26	Correct	99	423	909	5	0	0	782383	692	0	correct_rejection	NA	0
26	Correct	100	424	910	4	0	0	783092	691	0	correct_rejection	NA	0
26	Correct	101	425	911	9	0	0	783800	692	0	correct_rejection	NA	0
26	Correct	102	426	912	8	0	0	784509	691	0	correct_rejection	NA	0
26	Correct	103	427	913	7	0	0	785217	692	0	correct_rejection	NA	0
26	Correct	104	428	914	0	1	2	785926	692	1	hit	451	0
26	Correct	105	429	915	9	0	0	786634	692	0	correct_rejection	NA	0
26	Correct	106	430	916	8	0	0	787343	692	0	correct_rejection	NA	0
26	Correct	107	431	917	7	0	0	788052	691	0	correct_rejection	NA	0
26	Correct	108	432	918	9	0	0	788760	692	0	correct_rejection	NA	0
26	Correct	109	433	919	8	0	0	789469	691	0	correct_rejection	NA	0
26	Correct	110	434	920	7	0	0	790177	692	0	correct_rejection	NA	0
26	Correct	111	435	921	0	1	3	790886	692	1	hit	453	0
26	Correct	112	436	922	7	0	0	791594	692	0	correct_rejection	NA	0
26	Correct	113	437	923	8	0	0	792303	692	0	correct_rejection	NA	0
26	Correct	114	438	924	9	0	0	793012	691	0	correct_rejection	NA	0
26	Correct	115	439	925	7	0	0	793720	692	0	correct_rejection	NA	0
26	Correct	116	440	926	0	1	1	794429	691	1	hit	476	0
26	Correct	117	441	927	8	0	0	795137	692	0	correct_rejection	NA	0
26	Correct	118	442	928	9	0	0	795846	692	0	correct_rejection	NA	0
26	Correct	119	443	929	7	0	0	796554	692	0	correct_rejection	NA	0
26	Correct	120	444	930	0	1	1	797263	692	1	hit	400	0
26	Correct	121	445	931	8	0	0	797972	691	0	correct_rejection	NA	0
26	Correct	122	446	932	9	0	0	798680	692	0	correct_rejection	NA	0
26	Correct	123	447	933	4	0	0	799389	691	0	correct_rejection	NA	0
26	Correct	124	448	934	5	0	0	800097	692	0	correct_rejection	NA	0
26	Correct	125	449	935	6	0	0	800806	691	0	correct_rejection	NA	0
26	Correct	126	450	936	4	0	0	801514	692	0	correct_rejection	NA	0
26	Correct	127	451	937	0	1	1	802223	692	1	hit	407	0
26	Correct	128	452	938	5	0	0	802932	691	0	correct_rejection	NA	0
26	Correct	129	453	939	6	0	0	803640	692	0	correct_rejection	NA	0
26	Correct	130	454	940	4	0	0	804349	691	0	correct_rejection	NA	0
26	Correct	131	455	941	5	0	0	805057	692	0	correct_rejection	NA	0
26	Correct	132	456	942	6	0	0	805766	691	0	correct_rejection	NA	0
26	Correct	133	457	943	6	0	0	806474	692	0	correct_rejection	NA	0
26	Correct	134	458	944	5	0	0	807183	692	0	correct_rejection	NA	0
26	Correct	135	459	945	0	1	1	807891	692	1	hit	492	0
26	Correct	136	460	946	4	0	0	808600	692	0	correct_rejection	NA	0
26	Correct	137	461	947	6	0	0	809309	691	0	correct_rejection	NA	0
26	Correct	138	462	948	5	0	0	810017	692	0	correct_rejection	NA	0
26	Correct	139	463	949	4	0	0	810726	691	0	correct_rejection	NA	0
26	Correct	140	464	950	6	0	0	811434	692	0	correct_rejection	NA	0
26	Correct	141	465	951	5	0	0	812143	692	0	correct_rejection	NA	0
26	Correct	142	466	952	4	0	0	812851	692	0	correct_rejection	NA	0
26	Correct	143	467	953	9	0	0	813560	692	0	correct_rejection	NA	0
26	Correct	144	468	954	8	0	0	814269	691	0	correct_rejection	NA	0
26	Correct	145	469	955	7	0	0	814977	692	0	correct_rejection	NA	0
26	Correct	146	470	956	9	0	0	815686	691	0	correct_rejection	NA	0
26	Correct	147	471	957	0	1	1	816394	692	1	hit	426	0
26	Correct	148	472	958	8	0	0	817103	692	0	correct_rejection	NA	0
26	Correct	149	473	959	7	0	0	817811	692	0	correct_rejection	NA	0
26	Correct	150	474	960	9	0	0	818520	692	0	correct_rejection	NA	0
26	Correct	151	475	961	8	0	0	819229	691	0	correct_rejection	NA	0
26	Correct	152	476	962	7	0	0	819937	692	0	correct_rejection	NA	0
26	Correct	153	477	963	7	0	0	820646	691	0	correct_rejection	NA	0
26	Correct	154	478	964	8	0	0	821354	692	0	correct_rejection	NA	0
26	Correct	155	479	965	9	0	0	822063	692	0	correct_rejection	NA	0
26	Correct	156	480	966	0	1	2	822771	692	1	hit	344	0
26	Correct	157	481	967	7	0	0	823480	692	0	correct_rejection	NA	0
26	Correct	158	482	968	8	0	0	824189	691	0	correct_rejection	NA	0
26	Correct	159	483	969	9	0	0	824897	692	0	correct_rejection	NA	0
26	Correct	160	484	970	7	0	0	825606	691	0	correct_rejection	NA	0
26	Correct	161	485	971	8	0	0	826314	692	0	correct_rejection	NA	0
26	Correct	162	486	972	9	0	0	827023	691	0	correct_rejection	NA	0
26	Single	1	649	973	8	0	0	836476	692	0	correct_rejection	NA	7329
26	Single	2	650	974	9	0	0	837184	692	0	correct_rejection	NA	0
26	Single	3	651	975	8	0	0	837893	692	0	correct_rejection	NA	0
26	Single	4	652	976	5	0	0	838602	691	0	correct_rejection	NA	0
26	Single	5	653	977	4	0	0	839310	692	0	correct_rejection	NA	0
26	Single	6	654	978	4	0	0	840019	691	0	correct_rejection	NA	0
26	Single	7	655	979	9	0	0	840727	692	0	correct_rejection	NA	0
26	Single	8	656	980	9	0	0	841436	692	0	correct_rejection	NA	0
26	Single	9	657	981	4	0	0	842144	692	0	correct_rejection	NA	0
26	Single	10	658	982	7	0	0	842853	692	0	correct_rejection	NA	0
26	Single	11	659	983	4	0	0	843562	691	0	correct_rejection	NA	0
26	Single	12	660	984	5	0	0	844270	692	0	correct_rejection	NA	0
26	Single	13	661	985	7	0	0	844979	691	0	correct_rejection	NA	0
26	Single	14	662	986	6	0	0	845687	692	0	correct_rejection	NA	0
26	Single	15	663	987	8	0	0	846396	692	0	correct_rejection	NA	0
26	Single	16	664	988	7	0	0	847104	692	0	correct_rejection	NA	0
26	Single	17	665	989	5	0	0	847813	692	0	correct_rejection	NA	0
26	Single	18	666	990	5	0	0	848522	691	0	correct_rejection	NA	0
26	Single	19	667	991	9	0	0	849230	692	0	correct_rejection	NA	0
26	Single	20	668	992	5	0	0	849939	691	0	correct_rejection	NA	0
26	Single	21	669	993	0	1	1	850647	692	1	hit	467	0
26	Single	22	670	994	8	0	0	851356	692	0	correct_rejection	NA	0
26	Single	23	671	995	6	0	0	852064	692	0	correct_rejection	NA	0
26	Single	24	672	996	5	0	0	852773	692	0	correct_rejection	NA	0
26	Single	25	673	997	6	0	0	853482	691	0	correct_rejection	NA	0
26	Single	26	674	998	6	0	0	854190	692	0	correct_rejection	NA	0
26	Single	27	675	999	7	0	0	854899	691	0	correct_rejection	NA	0
26	Single	28	676	1000	9	0	0	855607	692	0	correct_rejection	NA	0
26	Single	29	677	1001	6	0	0	856316	692	0	correct_rejection	NA	0
26	Single	30	678	1002	9	0	0	857024	692	0	correct_rejection	NA	0
26	Single	31	679	1003	7	0	0	857733	692	0	correct_rejection	NA	0
26	Single	32	680	1004	7	0	0	858442	691	0	correct_rejection	NA	0
26	Single	33	681	1005	0	1	1	859150	692	1	hit	434	0
26	Single	34	682	1006	8	0	0	859859	691	0	correct_rejection	NA	0
26	Single	35	683	1007	8	0	0	860567	692	0	correct_rejection	NA	0
26	Single	36	684	1008	4	0	0	861276	691	0	correct_rejection	NA	0
26	Single	37	685	1009	6	0	0	861984	692	0	correct_rejection	NA	0
26	Single	38	686	1010	4	0	0	862693	692	0	correct_rejection	NA	0
26	Single	39	687	1011	7	0	0	863401	692	0	correct_rejection	NA	0
26	Single	40	688	1012	9	0	0	864110	692	0	correct_rejection	NA	0
26	Single	41	689	1013	5	0	0	864819	691	0	correct_rejection	NA	0
26	Single	42	690	1014	9	0	0	865527	692	0	correct_rejection	NA	0
26	Single	43	691	1015	4	0	0	866236	691	0	correct_rejection	NA	0
26	Single	44	692	1016	8	0	0	866944	692	0	correct_rejection	NA	0
26	Single	45	693	1017	4	0	0	867653	692	0	correct_rejection	NA	0
26	Single	46	694	1018	9	0	0	868361	692	0	correct_rejection	NA	0
26	Single	47	695	1019	7	0	0	869070	692	0	correct_rejection	NA	0
26	Single	48	696	1020	8	0	0	869779	691	0	correct_rejection	NA	0
26	Single	49	697	1021	9	0	0	870487	692	0	correct_rejection	NA	0
26	Single	50	698	1022	6	0	0	871196	691	0	correct_rejection	NA	0
26	Single	51	699	1023	8	0	0	871904	692	0	correct_rejection	NA	0
26	Single	52	700	1024	8	0	0	872613	692	0	correct_rejection	NA	0
26	Single	53	701	1025	5	0	0	873321	692	0	correct_rejection	NA	0
26	Single	54	702	1026	8	0	0	874030	692	0	correct_rejection	NA	0
26	Single	55	703	1027	7	0	0	874739	691	0	correct_rejection	NA	0
26	Single	56	704	1028	7	0	0	875447	692	0	correct_rejection	NA	0
26	Single	57	705	1029	4	0	0	876156	691	0	correct_rejection	NA	0
26	Single	58	706	1030	0	1	1	876864	692	1	hit	479	0
26	Single	59	707	1031	4	0	0	877573	692	0	correct_rejection	NA	0
26	Single	60	708	1032	6	0	0	878281	692	0	correct_rejection	NA	0
26	Single	61	709	1033	5	0	0	878990	692	0	correct_rejection	NA	0
26	Single	62	710	1034	4	0	0	879699	691	0	correct_rejection	NA	0
26	Single	63	711	1035	7	0	0	880407	692	0	correct_rejection	NA	0
26	Single	64	712	1036	6	0	0	881116	691	0	correct_rejection	NA	0
26	Single	65	713	1037	6	0	0	881824	692	0	correct_rejection	NA	0
26	Single	66	714	1038	9	0	0	882533	692	0	correct_rejection	NA	0
26	Single	67	715	1039	0	1	1	883241	692	1	hit	399	0
26	Single	68	716	1040	9	0	0	883950	692	0	correct_rejection	NA	0
26	Single	69	717	1041	8	0	0	884659	691	0	correct_rejection	NA	0
26	Single	70	718	1042	0	1	1	885367	692	1	hit	583	0
26	Single	71	719	1043	6	0	0	886076	691	0	correct_rejection	NA	0
26	Single	72	720	1044	4	0	0	886784	692	0	correct_rejection	NA	0
26	Single	73	721	1045	5	0	0	887493	691	0	correct_rejection	NA	0
26	Single	74	722	1046	5	0	0	888201	692	0	correct_rejection	NA	0
26	Single	75	723	1047	0	1	1	888910	692	1	hit	370	0
26	Single	76	724	1048	6	0	0	889618	692	0	correct_rejection	NA	0
26	Single	77	725	1049	7	0	0	890327	692	0	correct_rejection	NA	0
26	Single	78	726	1050	0	1	1	891036	691	1	hit	425	0
26	Single	79	727	1051	5	0	0	891744	692	0	correct_rejection	NA	0
26	Single	80	728	1052	5	0	0	892453	691	0	correct_rejection	NA	0
26	Single	81	729	1053	4	0	0	893161	692	0	correct_rejection	NA	0
26	Single	82	730	1054	0	1	1	893870	692	1	hit	422	0
26	Single	83	731	1055	9	0	0	894578	692	0	correct_rejection	NA	0
26	Single	84	732	1056	5	0	0	895287	692	0	correct_rejection	NA	0
26	Single	85	733	1057	6	0	0	895996	691	0	correct_rejection	NA	0
26	Single	86	734	1058	4	0	0	896704	692	0	correct_rejection	NA	0
26	Single	87	735	1059	0	1	1	897413	691	1	hit	379	0
26	Single	88	736	1060	7	0	0	898121	692	0	correct_rejection	NA	0
26	Single	89	737	1061	9	0	0	898830	692	0	correct_rejection	NA	0
26	Single	90	738	1062	8	0	0	899538	692	0	correct_rejection	NA	0
26	Single	91	739	1063	8	0	0	900247	692	0	correct_rejection	NA	0
26	Single	92	740	1064	7	0	0	900956	691	0	correct_rejection	NA	0
26	Single	93	741	1065	8	0	0	901664	692	0	correct_rejection	NA	0
26	Single	94	742	1066	0	1	1	902373	691	1	hit	406	0
26	Single	95	743	1067	4	0	0	903081	692	0	correct_rejection	NA	0
26	Single	96	744	1068	8	0	0	903790	692	0	correct_rejection	NA	0
26	Single	97	745	1069	5	0	0	904498	692	0	correct_rejection	NA	0
26	Single	98	746	1070	5	0	0	905207	692	0	correct_rejection	NA	0
26	Single	99	747	1071	8	0	0	905916	691	0	correct_rejection	NA	0
26	Single	100	748	1072	9	0	0	906624	692	0	correct_rejection	NA	0
26	Single	101	749	1073	4	0	0	907333	691	0	correct_rejection	NA	0
26	Single	102	750	1074	4	0	0	908041	692	0	correct_rejection	NA	0
26	Single	103	751	1075	0	1	1	908750	692	1	hit	369	0
26	Single	104	752	1076	5	0	0	909458	692	0	correct_rejection	NA	0
26	Single	105	753	1077	9	0	0	910167	692	0	correct_rejection	NA	0
26	Single	106	754	1078	9	0	0	910876	691	0	correct_rejection	NA	0
26	Single	107	755	1079	7	0	0	911584	692	0	correct_rejection	NA	0
26	Single	108	756	1080	6	0	0	912293	691	0	correct_rejection	NA	0
26	Single	109	757	1081	7	0	0	913001	692	0	correct_rejection	NA	0
26	Single	110	758	1082	7	0	0	913710	691	0	correct_rejection	NA	0
26	Single	111	759	1083	5	0	0	914418	692	0	correct_rejection	NA	0
26	Single	112	760	1084	0	1	1	915127	692	1	hit	365	0
26	Single	113	761	1085	7	0	0	915835	692	0	correct_rejection	NA	0
26	Single	114	762	1086	4	0	0	916544	692	0	correct_rejection	NA	0
26	Single	115	763	1087	6	0	0	917253	691	0	correct_rejection	NA	0
26	Single	116	764	1088	9	0	0	917961	692	0	correct_rejection	NA	0
26	Single	117	765	1089	6	0	0	918670	691	0	correct_rejection	NA	0
26	Single	118	766	1090	6	0	0	919378	692	0	correct_rejection	NA	0
26	Single	119	767	1091	8	0	0	920087	692	0	correct_rejection	NA	0
26	Single	120	768	1092	6	0	0	920795	692	0	correct_rejection	NA	0
26	Single	121	769	1093	0	1	1	921504	692	1	hit	499	0
26	Single	122	770	1094	7	0	0	922213	691	0	correct_rejection	NA	0
26	Single	123	771	1095	7	0	0	922921	692	0	correct_rejection	NA	0
26	Single	124	772	1096	8	0	0	923630	691	0	correct_rejection	NA	0
26	Single	125	773	1097	7	0	0	924338	692	0	correct_rejection	NA	0
26	Single	126	774	1098	6	0	0	925047	692	0	correct_rejection	NA	0
26	Single	127	775	1099	9	0	0	925755	692	0	correct_rejection	NA	0
26	Single	128	776	1100	7	0	0	926464	692	0	correct_rejection	NA	0
26	Single	129	777	1101	0	1	1	927173	691	1	hit	379	0
26	Single	130	778	1102	4	0	0	927881	692	0	correct_rejection	NA	0
26	Single	131	779	1103	9	0	0	928590	691	0	correct_rejection	NA	0
26	Single	132	780	1104	6	0	0	929298	692	0	correct_rejection	NA	0
26	Single	133	781	1105	5	0	0	930007	692	0	correct_rejection	NA	0
26	Single	134	782	1106	6	0	0	930715	692	0	correct_rejection	NA	0
26	Single	135	783	1107	0	1	1	931424	692	1	hit	403	0
26	Single	136	784	1108	6	0	0	932133	691	0	correct_rejection	NA	0
26	Single	137	785	1109	7	0	0	932841	692	0	correct_rejection	NA	0
26	Single	138	786	1110	9	0	0	933550	691	0	correct_rejection	NA	0
26	Single	139	787	1111	9	0	0	934258	692	0	correct_rejection	NA	0
26	Single	140	788	1112	4	0	0	934967	691	0	correct_rejection	NA	0
26	Single	141	789	1113	5	0	0	935675	692	0	correct_rejection	NA	0
26	Single	142	790	1114	8	0	0	936384	692	0	correct_rejection	NA	0
26	Single	143	791	1115	6	0	0	937093	691	0	correct_rejection	NA	0
26	Single	144	792	1116	8	0	0	937801	692	0	correct_rejection	NA	0
26	Single	145	793	1117	9	0	0	938510	691	0	correct_rejection	NA	0
26	Single	146	794	1118	5	0	0	939218	692	0	correct_rejection	NA	0
26	Single	147	795	1119	7	0	0	939927	691	0	correct_rejection	NA	0
26	Single	148	796	1120	5	0	0	940635	692	0	correct_rejection	NA	0
26	Single	149	797	1121	5	0	0	941344	692	0	correct_rejection	NA	0
26	Single	150	798	1122	9	0	0	942052	692	0	correct_rejection	NA	0
26	Single	151	799	1123	8	0	0	942761	692	0	correct_rejection	NA	0
26	Single	152	800	1124	0	1	1	943470	691	1	hit	451	0
26	Single	153	801	1125	5	0	0	944178	692	0	correct_rejection	NA	0
26	Single	154	802	1126	4	0	0	944887	691	0	correct_rejection	NA	0
26	Single	155	803	1127	6	0	0	945595	692	0	correct_rejection	NA	0
26	Single	156	804	1128	0	1	1	946304	692	1	hit	369	0
26	Single	157	805	1129	4	0	0	947012	692	0	correct_rejection	NA	0
26	Single	158	806	1130	4	0	0	947721	692	0	correct_rejection	NA	0
26	Single	159	807	1131	8	0	0	948430	691	0	correct_rejection	NA	0
26	Single	160	808	1132	0	1	1	949138	692	1	hit	453	0
26	Single	161	809	1133	8	0	0	949847	691	0	correct_rejection	NA	0
26	Single	162	810	1134	4	0	0	950555	692	0	correct_rejection	NA	0
26	Nonet	1	649	1135	6	0	0	960959	691	0	correct_rejection	NA	7809
26	Nonet	2	650	1136	5	0	0	961667	692	0	correct_rejection	NA	0
26	Nonet	3	651	1137	4	0	0	962376	692	0	correct_rejection	NA	0
26	Nonet	4	652	1138	6	0	0	963084	692	0	correct_rejection	NA	0
26	Nonet	5	653	1139	5	0	0	963793	692	0	correct_rejection	NA	0
26	Nonet	6	654	1140	4	0	0	964502	691	0	correct_rejection	NA	0
26	Nonet	7	655	1141	6	0	0	965210	692	0	correct_rejection	NA	0
26	Nonet	8	656	1142	5	0	0	965919	691	0	correct_rejection	NA	0
26	Nonet	9	657	1143	4	0	0	966627	692	0	correct_rejection	NA	0
26	Nonet	10	658	1144	9	0	0	967336	692	0	correct_rejection	NA	0
26	Nonet	11	659	1145	8	0	0	968044	692	0	correct_rejection	NA	0
26	Nonet	12	660	1146	7	0	0	968753	692	0	correct_rejection	NA	0
26	Nonet	13	661	1147	9	0	0	969462	691	0	correct_rejection	NA	0
26	Nonet	14	662	1148	8	0	0	970170	692	0	correct_rejection	NA	0
26	Nonet	15	663	1149	7	0	0	970879	691	0	correct_rejection	NA	0
26	Nonet	16	664	1150	0	1	2	971587	692	1	hit	544	0
26	Nonet	17	665	1151	9	0	0	972296	691	0	correct_rejection	NA	0
26	Nonet	18	666	1152	8	0	0	973004	692	0	correct_rejection	NA	0
26	Nonet	19	667	1153	7	0	0	973713	692	0	correct_rejection	NA	0
26	Nonet	20	668	1154	0	1	3	974422	691	1	hit	525	0
26	Nonet	21	669	1155	4	0	0	975130	692	0	correct_rejection	NA	0
26	Nonet	22	670	1156	5	0	0	975839	691	0	correct_rejection	NA	0
26	Nonet	23	671	1157	0	1	1	976547	692	1	hit	455	0
26	Nonet	24	672	1158	6	0	0	977256	691	0	correct_rejection	NA	0
26	Nonet	25	673	1159	4	0	0	977964	692	0	correct_rejection	NA	0
26	Nonet	26	674	1160	5	0	0	978673	692	0	correct_rejection	NA	0
26	Nonet	27	675	1161	6	0	0	979381	692	0	correct_rejection	NA	0
26	Nonet	28	676	1162	4	0	0	980090	692	0	correct_rejection	NA	0
26	Nonet	29	677	1163	5	0	0	980799	691	0	correct_rejection	NA	0
26	Nonet	30	678	1164	0	1	1	981507	692	1	hit	589	0
26	Nonet	31	679	1165	6	0	0	982216	691	0	correct_rejection	NA	0
26	Nonet	32	680	1166	4	0	0	982924	692	0	correct_rejection	NA	0
26	Nonet	33	681	1167	5	0	0	983633	692	0	correct_rejection	NA	0
26	Nonet	34	682	1168	6	0	0	984341	692	0	correct_rejection	NA	0
26	Nonet	35	683	1169	4	0	0	985050	692	0	correct_rejection	NA	0
26	Nonet	36	684	1170	5	0	0	985759	691	0	correct_rejection	NA	0
26	Nonet	37	685	1171	6	0	0	986467	692	0	correct_rejection	NA	0
26	Nonet	38	686	1172	4	0	0	987176	691	0	correct_rejection	NA	0
26	Nonet	39	687	1173	5	0	0	987884	692	0	correct_rejection	NA	0
26	Nonet	40	688	1174	6	0	0	988593	692	0	correct_rejection	NA	0
26	Nonet	41	689	1175	6	0	0	989301	692	0	correct_rejection	NA	0
26	Nonet	42	690	1176	5	0	0	990010	692	0	correct_rejection	NA	0
26	Nonet	43	691	1177	4	0	0	990719	691	0	correct_rejection	NA	0
26	Nonet	44	692	1178	6	0	0	991427	692	0	correct_rejection	NA	0
26	Nonet	45	693	1179	5	0	0	992136	691	0	correct_rejection	NA	0
26	Nonet	46	694	1180	4	0	0	992844	692	0	correct_rejection	NA	0
26	Nonet	47	695	1181	6	0	0	993553	692	0	correct_rejection	NA	0
26	Nonet	48	696	1182	5	0	0	994261	692	0	correct_rejection	NA	0
26	Nonet	49	697	1183	0	1	1	994970	692	1	hit	474	0
26	Nonet	50	698	1184	4	0	0	995679	691	0	correct_rejection	NA	0
26	Nonet	51	699	1185	6	0	0	996387	692	0	correct_rejection	NA	0
26	Nonet	52	700	1186	5	0	0	997096	691	0	correct_rejection	NA	0
26	Nonet	53	701	1187	4	0	0	997804	692	0	correct_rejection	NA	0
26	Nonet	54	702	1188	6	0	0	998513	691	0	correct_rejection	NA	0
26	Nonet	55	703	1189	0	1	1	999221	692	1	hit	502	0
26	Nonet	56	704	1190	5	0	0	999930	692	0	correct_rejection	NA	0
26	Nonet	57	705	1191	4	0	0	1000639	691	0	correct_rejection	NA	0
26	Nonet	58	706	1192	0	1	2	1001347	692	1	hit	497	0
26	Nonet	59	707	1193	6	0	0	1002056	691	0	correct_rejection	NA	0
26	Nonet	60	708	1194	5	0	0	1002764	692	0	correct_rejection	NA	0
26	Nonet	61	709	1195	4	0	0	1003473	691	0	correct_rejection	NA	0
26	Nonet	62	710	1196	4	0	0	1004181	692	0	correct_rejection	NA	0
26	Nonet	63	711	1197	5	0	0	1004890	692	0	correct_rejection	NA	0
26	Nonet	64	712	1198	6	0	0	1005598	692	0	correct_rejection	NA	0
26	Nonet	65	713	1199	4	0	0	1006307	692	0	correct_rejection	NA	0
26	Nonet	66	714	1200	5	0	0	1007016	691	0	correct_rejection	NA	0
26	Nonet	67	715	1201	6	0	0	1007724	692	0	correct_rejection	NA	0
26	Nonet	68	716	1202	4	0	0	1008433	691	0	correct_rejection	NA	0
26	Nonet	69	717	1203	5	0	0	1009141	692	0	correct_rejection	NA	0
26	Nonet	70	718	1204	6	0	0	1009850	692	0	correct_rejection	NA	0
26	Nonet	71	719	1205	7	0	0	1010558	692	0	correct_rejection	NA	0
26	Nonet	72	720	1206	8	0	0	1011267	692	0	correct_rejection	NA	0
26	Nonet	73	721	1207	9	0	0	1011976	691	0	correct_rejection	NA	0
26	Nonet	74	722	1208	0	1	2	1012684	692	1	hit	487	0
26	Nonet	75	723	1209	7	0	0	1013393	691	0	correct_rejection	NA	0
26	Nonet	76	724	1210	8	0	0	1014101	692	0	correct_rejection	NA	0
26	Nonet	77	725	1211	0	1	1	1014810	692	1	hit	552	0
26	Nonet	78	726	1212	9	0	0	1015518	692	0	correct_rejection	NA	0
26	Nonet	79	727	1213	7	0	0	1016227	692	0	correct_rejection	NA	0
26	Nonet	80	728	1214	8	0	0	1016936	691	0	correct_rejection	NA	0
26	Nonet	81	729	1215	9	0	0	1017644	692	0	correct_rejection	NA	0
26	Nonet	82	730	1216	6	0	0	1018353	691	0	correct_rejection	NA	0
26	Nonet	83	731	1217	5	0	0	1019061	692	0	correct_rejection	NA	0
26	Nonet	84	732	1218	4	0	0	1019770	692	0	correct_rejection	NA	0
26	Nonet	85	733	1219	6	0	0	1020478	692	0	correct_rejection	NA	0
26	Nonet	86	734	1220	5	0	0	1021187	692	0	correct_rejection	NA	0
26	Nonet	87	735	1221	4	0	0	1021896	691	0	correct_rejection	NA	0
26	Nonet	88	736	1222	0	1	2	1022604	692	1	hit	327	0
26	Nonet	89	737	1223	6	0	0	1023313	691	0	correct_rejection	NA	0
26	Nonet	90	738	1224	5	0	0	1024021	692	0	correct_rejection	NA	0
26	Nonet	91	739	1225	4	0	0	1024730	691	0	correct_rejection	NA	0
26	Nonet	92	740	1226	7	0	0	1025438	692	0	correct_rejection	NA	0
26	Nonet	93	741	1227	8	0	0	1026147	692	0	correct_rejection	NA	0
26	Nonet	94	742	1228	9	0	0	1026856	691	0	correct_rejection	NA	0
26	Nonet	95	743	1229	7	0	0	1027564	692	0	correct_rejection	NA	0
26	Nonet	96	744	1230	8	0	0	1028273	691	0	correct_rejection	NA	0
26	Nonet	97	745	1231	9	0	0	1028981	692	0	correct_rejection	NA	0
26	Nonet	98	746	1232	7	0	0	1029690	691	0	correct_rejection	NA	0
26	Nonet	99	747	1233	0	1	1	1030398	692	1	hit	431	0
26	Nonet	100	748	1234	8	0	0	1031107	692	0	correct_rejection	NA	0
26	Nonet	101	749	1235	9	0	0	1031815	692	0	correct_rejection	NA	0
26	Nonet	102	750	1236	4	0	0	1032524	692	0	correct_rejection	NA	0
26	Nonet	103	751	1237	0	1	1	1033233	691	1	hit	491	0
26	Nonet	104	752	1238	5	0	0	1033941	692	0	correct_rejection	NA	0
26	Nonet	105	753	1239	6	0	0	1034650	691	0	correct_rejection	NA	0
26	Nonet	106	754	1240	0	1	2	1035358	692	1	hit	456	0
26	Nonet	107	755	1241	4	0	0	1036067	692	0	correct_rejection	NA	0
26	Nonet	108	756	1242	5	0	0	1036775	692	0	correct_rejection	NA	0
26	Nonet	109	757	1243	6	0	0	1037484	692	0	correct_rejection	NA	0
26	Nonet	110	758	1244	4	0	0	1038193	691	0	correct_rejection	NA	0
26	Nonet	111	759	1245	5	0	0	1038901	692	0	correct_rejection	NA	0
26	Nonet	112	760	1246	6	0	0	1039610	691	0	correct_rejection	NA	0
26	Nonet	113	761	1247	9	0	0	1040318	692	0	correct_rejection	NA	0
26	Nonet	114	762	1248	8	0	0	1041027	692	0	correct_rejection	NA	0
26	Nonet	115	763	1249	7	0	0	1041735	692	0	correct_rejection	NA	0
26	Nonet	116	764	1250	9	0	0	1042444	692	0	correct_rejection	NA	0
26	Nonet	117	765	1251	0	1	1	1043153	691	1	hit	454	0
26	Nonet	118	766	1252	8	0	0	1043861	692	0	correct_rejection	NA	0
26	Nonet	119	767	1253	7	0	0	1044570	691	0	correct_rejection	NA	0
26	Nonet	120	768	1254	9	0	0	1045278	692	0	correct_rejection	NA	0
26	Nonet	121	769	1255	8	0	0	1045987	692	0	correct_rejection	NA	0
26	Nonet	122	770	1256	0	1	1	1046695	692	1	hit	410	0
26	Nonet	123	771	1257	7	0	0	1047404	692	0	correct_rejection	NA	0
26	Nonet	124	772	1258	9	0	0	1048113	691	0	correct_rejection	NA	0
26	Nonet	125	773	1259	8	0	0	1048821	692	0	correct_rejection	NA	0
26	Nonet	126	774	1260	7	0	0	1049530	691	0	correct_rejection	NA	0
26	Nonet	127	775	1261	0	1	2	1050238	692	1	hit	405	0
26	Nonet	128	776	1262	9	0	0	1050947	691	0	correct_rejection	NA	0
26	Nonet	129	777	1263	8	0	0	1051655	692	0	correct_rejection	NA	0
26	Nonet	130	778	1264	0	1	1	1052364	692	1	hit	421	0
26	Nonet	131	779	1265	7	0	0	1053073	691	0	correct_rejection	NA	0
26	Nonet	132	780	1266	9	0	0	1053781	692	0	correct_rejection	NA	0
26	Nonet	133	781	1267	8	0	0	1054490	691	0	correct_rejection	NA	0
26	Nonet	134	782	1268	7	0	0	1055198	692	0	correct_rejection	NA	0
26	Nonet	135	783	1269	7	0	0	1055907	691	0	correct_rejection	NA	0
26	Nonet	136	784	1270	8	0	0	1056615	692	0	correct_rejection	NA	0
26	Nonet	137	785	1271	9	0	0	1057324	692	0	correct_rejection	NA	0
26	Nonet	138	786	1272	7	0	0	1058032	692	0	correct_rejection	NA	0
26	Nonet	139	787	1273	8	0	0	1058741	692	0	correct_rejection	NA	0
26	Nonet	140	788	1274	9	0	0	1059450	691	0	correct_rejection	NA	0
26	Nonet	141	789	1275	7	0	0	1060158	692	0	correct_rejection	NA	0
26	Nonet	142	790	1276	8	0	0	1060867	691	0	correct_rejection	NA	0
26	Nonet	143	791	1277	9	0	0	1061575	692	0	correct_rejection	NA	0
26	Nonet	144	792	1278	0	1	3	1062284	692	1	hit	388	0
26	Nonet	145	793	1279	7	0	0	1062992	692	0	correct_rejection	NA	0
26	Nonet	146	794	1280	8	0	0	1063701	692	0	correct_rejection	NA	0
26	Nonet	147	795	1281	9	0	0	1064410	691	0	correct_rejection	NA	0
26	Nonet	148	796	1282	7	0	0	1065118	692	0	correct_rejection	NA	0
26	Nonet	149	797	1283	8	0	0	1065827	691	0	correct_rejection	NA	0
26	Nonet	150	798	1284	9	0	0	1066535	692	0	correct_rejection	NA	0
26	Nonet	151	799	1285	7	0	0	1067244	692	0	correct_rejection	NA	0
26	Nonet	152	800	1286	8	0	0	1067952	692	0	correct_rejection	NA	0
26	Nonet	153	801	1287	9	0	0	1068661	692	0	correct_rejection	NA	0
26	Nonet	154	802	1288	9	0	0	1069370	691	0	correct_rejection	NA	0
26	Nonet	155	803	1289	8	0	0	1070078	692	0	correct_rejection	NA	0
26	Nonet	156	804	1290	7	0	0	1070787	691	0	correct_rejection	NA	0
26	Nonet	157	805	1291	9	0	0	1071495	692	0	correct_rejection	NA	0
26	Nonet	158	806	1292	8	0	0	1072204	692	0	correct_rejection	NA	0
26	Nonet	159	807	1293	7	0	0	1072912	692	0	correct_rejection	NA	0
26	Nonet	160	808	1294	9	0	0	1073621	692	0	correct_rejection	NA	0
26	Nonet	161	809	1295	8	0	0	1074330	691	0	correct_rejection	NA	0
26	Nonet	162	810	1296	7	0	0	1075038	692	0	correct_rejection	NA	0
26	Triplet	1	487	1297	6	0	0	1084366	692	0	correct_rejection	NA	7219
26	Triplet	2	488	1298	5	0	0	1085075	691	0	correct_rejection	NA	0
26	Triplet	3	489	1299	4	0	0	1085783	692	0	correct_rejection	NA	0
26	Triplet	4	490	1300	4	0	0	1086492	692	0	correct_rejection	NA	0
26	Triplet	5	491	1301	5	0	0	1087200	692	0	correct_rejection	NA	0
26	Triplet	6	492	1302	6	0	0	1087909	692	0	correct_rejection	NA	0
26	Triplet	7	493	1303	9	0	0	1088618	691	0	correct_rejection	NA	0
26	Triplet	8	494	1304	8	0	0	1089326	692	0	correct_rejection	NA	0
26	Triplet	9	495	1305	7	0	0	1090035	691	0	correct_rejection	NA	0
26	Triplet	10	496	1306	0	1	2	1090743	692	1	hit	456	0
26	Triplet	11	497	1307	4	0	0	1091452	692	0	correct_rejection	NA	0
26	Triplet	12	498	1308	5	0	0	1092160	692	0	correct_rejection	NA	0
26	Triplet	13	499	1309	0	1	1	1092869	692	1	hit	664	0
26	Triplet	14	500	1310	6	0	0	1093578	691	0	correct_rejection	NA	0
26	Triplet	15	501	1311	6	0	0	1094286	692	0	correct_rejection	NA	0
26	Triplet	16	502	1312	5	0	0	1094995	691	0	correct_rejection	NA	0
26	Triplet	17	503	1313	0	1	1	1095703	692	1	hit	403	0
26	Triplet	18	504	1314	4	0	0	1096412	692	0	correct_rejection	NA	0
26	Triplet	19	505	1315	6	0	0	1097120	692	0	correct_rejection	NA	0
26	Triplet	20	506	1316	5	0	0	1097829	692	0	correct_rejection	NA	0
26	Triplet	21	507	1317	4	0	0	1098538	691	0	correct_rejection	NA	0
26	Triplet	22	508	1318	7	0	0	1099246	692	0	correct_rejection	NA	0
26	Triplet	23	509	1319	0	1	1	1099955	691	1	hit	390	0
26	Triplet	24	510	1320	8	0	0	1100663	692	0	correct_rejection	NA	0
26	Triplet	25	511	1321	9	0	0	1101372	691	0	correct_rejection	NA	0
26	Triplet	26	512	1322	6	0	0	1102080	692	0	correct_rejection	NA	0
26	Triplet	27	513	1323	0	1	1	1102789	692	1	hit	438	0
26	Triplet	28	514	1324	5	0	0	1103498	691	0	correct_rejection	NA	0
26	Triplet	29	515	1325	4	0	0	1104206	692	0	correct_rejection	NA	0
26	Triplet	30	516	1326	9	0	0	1104915	691	0	correct_rejection	NA	0
26	Triplet	31	517	1327	0	1	1	1105623	692	1	hit	433	0
26	Triplet	32	518	1328	8	0	0	1106332	691	0	correct_rejection	NA	0
26	Triplet	33	519	1329	7	0	0	1107040	692	0	correct_rejection	NA	0
26	Triplet	34	520	1330	9	0	0	1107749	692	0	correct_rejection	NA	0
26	Triplet	35	521	1331	8	0	0	1108457	692	0	correct_rejection	NA	0
26	Triplet	36	522	1332	0	1	1	1109166	692	1	hit	412	0
26	Triplet	37	523	1333	7	0	0	1109875	691	0	correct_rejection	NA	0
26	Triplet	38	524	1334	7	0	0	1110583	692	0	correct_rejection	NA	0
26	Triplet	39	525	1335	8	0	0	1111292	691	0	correct_rejection	NA	0
26	Triplet	40	526	1336	9	0	0	1112000	692	0	correct_rejection	NA	0
26	Triplet	41	527	1337	0	1	2	1112709	692	1	hit	426	0
26	Triplet	42	528	1338	4	0	0	1113417	692	0	correct_rejection	NA	0
26	Triplet	43	529	1339	5	0	0	1114126	692	0	correct_rejection	NA	0
26	Triplet	44	530	1340	6	0	0	1114835	691	0	correct_rejection	NA	0
26	Triplet	45	531	1341	4	0	0	1115543	692	0	correct_rejection	NA	0
26	Triplet	46	532	1342	5	0	0	1116252	691	0	correct_rejection	NA	0
26	Triplet	47	533	1343	6	0	0	1116960	692	0	correct_rejection	NA	0
26	Triplet	48	534	1344	7	0	0	1117669	692	0	correct_rejection	NA	0
26	Triplet	49	535	1345	8	0	0	1118377	692	0	correct_rejection	NA	0
26	Triplet	50	536	1346	9	0	0	1119086	692	0	correct_rejection	NA	0
26	Triplet	51	537	1347	7	0	0	1119795	691	0	correct_rejection	NA	0
26	Triplet	52	538	1348	8	0	0	1120503	692	0	correct_rejection	NA	0
26	Triplet	53	539	1349	0	1	1	1121212	691	1	hit	446	0
26	Triplet	54	540	1350	9	0	0	1121920	692	0	correct_rejection	NA	0
26	Triplet	55	541	1351	9	0	0	1122629	692	0	correct_rejection	NA	0
26	Triplet	56	542	1352	8	0	0	1123337	692	0	correct_rejection	NA	0
26	Triplet	57	543	1353	7	0	0	1124046	692	0	correct_rejection	NA	0
26	Triplet	58	544	1354	4	0	0	1124755	691	0	correct_rejection	NA	0
26	Triplet	59	545	1355	5	0	0	1125463	692	0	correct_rejection	NA	0
26	Triplet	60	546	1356	0	1	1	1126172	691	1	hit	475	0
26	Triplet	61	547	1357	6	0	0	1126880	692	0	correct_rejection	NA	0
26	Triplet	62	548	1358	7	0	0	1127589	691	0	correct_rejection	NA	0
26	Triplet	63	549	1359	8	0	0	1128297	692	0	correct_rejection	NA	0
26	Triplet	64	550	1360	9	0	0	1129006	692	0	correct_rejection	NA	0
26	Triplet	65	551	1361	6	0	0	1129715	691	0	correct_rejection	NA	0
26	Triplet	66	552	1362	0	1	1	1130423	692	1	hit	440	0
26	Triplet	67	553	1363	5	0	0	1131132	691	0	correct_rejection	NA	0
26	Triplet	68	554	1364	4	0	0	1131840	692	0	correct_rejection	NA	0
26	Triplet	69	555	1365	6	0	0	1132549	691	0	correct_rejection	NA	0
26	Triplet	70	556	1366	5	0	0	1133257	692	0	correct_rejection	NA	0
26	Triplet	71	557	1367	4	0	0	1133966	692	0	correct_rejection	NA	0
26	Triplet	72	558	1368	4	0	0	1134674	692	0	correct_rejection	NA	0
26	Triplet	73	559	1369	5	0	0	1135383	692	0	correct_rejection	NA	0
26	Triplet	74	560	1370	6	0	0	1136092	691	0	correct_rejection	NA	0
26	Triplet	75	561	1371	4	0	0	1136800	692	0	correct_rejection	NA	0
26	Triplet	76	562	1372	5	0	0	1137509	691	0	correct_rejection	NA	0
26	Triplet	77	563	1373	6	0	0	1138217	692	0	correct_rejection	NA	0
26	Triplet	78	564	1374	0	1	2	1138926	692	1	hit	421	0
26	Triplet	79	565	1375	6	0	0	1139634	692	0	correct_rejection	NA	0
26	Triplet	80	566	1376	5	0	0	1140343	692	0	correct_rejection	NA	0
26	Triplet	81	567	1377	4	0	0	1141052	691	0	correct_rejection	NA	0
26	Triplet	82	568	1378	7	0	0	1141760	692	0	correct_rejection	NA	0
26	Triplet	83	569	1379	0	1	1	1142469	691	1	hit	360	0
26	Triplet	84	570	1380	8	0	0	1143177	692	0	correct_rejection	NA	0
26	Triplet	85	571	1381	9	0	0	1143886	692	0	correct_rejection	NA	0
26	Triplet	86	572	1382	0	1	2	1144594	692	1	hit	383	0
26	Triplet	87	573	1383	9	0	0	1145303	692	0	correct_rejection	NA	0
26	Triplet	88	574	1384	8	0	0	1146012	691	0	correct_rejection	NA	0
26	Triplet	89	575	1385	0	1	1	1146720	692	1	hit	390	0
26	Triplet	90	576	1386	7	0	0	1147429	691	0	correct_rejection	NA	0
26	Triplet	91	577	1387	4	0	0	1148137	692	0	correct_rejection	NA	0
26	Triplet	92	578	1388	5	0	0	1148846	692	0	correct_rejection	NA	0
26	Triplet	93	579	1389	6	0	0	1149554	692	0	correct_rejection	NA	0
26	Triplet	94	580	1390	9	0	0	1150263	692	0	correct_rejection	NA	0
26	Triplet	95	581	1391	8	0	0	1150972	691	0	correct_rejection	NA	0
26	Triplet	96	582	1392	7	0	0	1151680	692	0	correct_rejection	NA	0
26	Triplet	97	583	1393	9	0	0	1152389	691	0	correct_rejection	NA	0
26	Triplet	98	584	1394	8	0	0	1153097	692	0	correct_rejection	NA	0
26	Triplet	99	585	1395	0	1	1	1153806	691	1	hit	391	0
26	Triplet	100	586	1396	7	0	0	1154514	692	0	correct_rejection	NA	0
26	Triplet	101	587	1397	6	0	0	1155223	692	0	correct_rejection	NA	0
26	Triplet	102	588	1398	5	0	0	1155931	692	0	correct_rejection	NA	0
26	Triplet	103	589	1399	4	0	0	1156640	692	0	correct_rejection	NA	0
26	Triplet	104	590	1400	9	0	0	1157349	691	0	correct_rejection	NA	0
26	Triplet	105	591	1401	8	0	0	1158057	692	0	correct_rejection	NA	0
26	Triplet	106	592	1402	7	0	0	1158766	691	0	correct_rejection	NA	0
26	Triplet	107	593	1403	7	0	0	1159474	692	0	correct_rejection	NA	0
26	Triplet	108	594	1404	8	0	0	1160183	692	0	correct_rejection	NA	0
26	Triplet	109	595	1405	9	0	0	1160891	692	0	correct_rejection	NA	0
26	Triplet	110	596	1406	7	0	0	1161600	692	0	correct_rejection	NA	0
26	Triplet	111	597	1407	8	0	0	1162309	691	0	correct_rejection	NA	0
26	Triplet	112	598	1408	9	0	0	1163017	692	0	correct_rejection	NA	0
26	Triplet	113	599	1409	6	0	0	1163726	691	0	correct_rejection	NA	0
26	Triplet	114	600	1410	5	0	0	1164434	692	0	correct_rejection	NA	0
26	Triplet	115	601	1411	4	0	0	1165143	692	0	correct_rejection	NA	0
26	Triplet	116	602	1412	0	1	2	1165851	692	1	hit	393	0
26	Triplet	117	603	1413	9	0	0	1166560	692	0	correct_rejection	NA	0
26	Triplet	118	604	1414	8	0	0	1167269	691	0	correct_rejection	NA	0
26	Triplet	119	605	1415	7	0	0	1167977	692	0	correct_rejection	NA	0
26	Triplet	120	606	1416	6	0	0	1168686	691	0	correct_rejection	NA	0
26	Triplet	121	607	1417	5	0	0	1169394	692	0	correct_rejection	NA	0
26	Triplet	122	608	1418	4	0	0	1170103	692	0	correct_rejection	NA	0
26	Triplet	123	609	1419	7	0	0	1170811	692	0	correct_rejection	NA	0
26	Triplet	124	610	1420	8	0	0	1171520	692	0	correct_rejection	NA	0
26	Triplet	125	611	1421	9	0	0	1172229	691	0	correct_rejection	NA	0
26	Triplet	126	612	1422	7	0	0	1172937	692	0	correct_rejection	NA	0
26	Triplet	127	613	1423	8	0	0	1173646	691	0	correct_rejection	NA	0
26	Triplet	128	614	1424	9	0	0	1174354	692	0	correct_rejection	NA	0
26	Triplet	129	615	1425	4	0	0	1175063	692	0	correct_rejection	NA	0
26	Triplet	130	616	1426	5	0	0	1175771	692	0	correct_rejection	NA	0
26	Triplet	131	617	1427	6	0	0	1176480	692	0	correct_rejection	NA	0
26	Triplet	132	618	1428	6	0	0	1177189	691	0	correct_rejection	NA	0
26	Triplet	133	619	1429	5	0	0	1177897	692	0	correct_rejection	NA	0
26	Triplet	134	620	1430	4	0	0	1178606	691	0	correct_rejection	NA	0
26	Triplet	135	621	1431	4	0	0	1179314	692	0	correct_rejection	NA	0
26	Triplet	136	622	1432	5	0	0	1180023	691	0	correct_rejection	NA	0
26	Triplet	137	623	1433	6	0	0	1180731	692	0	correct_rejection	NA	0
26	Triplet	138	624	1434	7	0	0	1181440	692	0	correct_rejection	NA	0
26	Triplet	139	625	1435	8	0	0	1182148	692	0	correct_rejection	NA	0
26	Triplet	140	626	1436	9	0	0	1182857	692	0	correct_rejection	NA	0
26	Triplet	141	627	1437	9	0	0	1183566	691	0	correct_rejection	NA	0
26	Triplet	142	628	1438	8	0	0	1184274	692	0	correct_rejection	NA	0
26	Triplet	143	629	1439	7	0	0	1184983	691	0	correct_rejection	NA	0
26	Triplet	144	630	1440	0	1	2	1185691	692	1	hit	389	0
26	Triplet	145	631	1441	9	0	0	1186400	692	0	correct_rejection	NA	0
26	Triplet	146	632	1442	8	0	0	1187108	692	0	correct_rejection	NA	0
26	Triplet	147	633	1443	7	0	0	1187817	692	0	correct_rejection	NA	0
26	Triplet	148	634	1444	4	0	0	1188526	691	0	correct_rejection	NA	0
26	Triplet	149	635	1445	5	0	0	1189234	692	0	correct_rejection	NA	0
26	Triplet	150	636	1446	6	0	0	1189943	691	0	correct_rejection	NA	0
26	Triplet	151	637	1447	4	0	0	1190651	692	0	correct_rejection	NA	0
26	Triplet	152	638	1448	5	0	0	1191360	692	0	correct_rejection	NA	0
26	Triplet	153	639	1449	6	0	0	1192068	692	0	correct_rejection	NA	0
26	Triplet	154	640	1450	9	0	0	1192777	692	0	correct_rejection	NA	0
26	Triplet	155	641	1451	8	0	0	1193486	691	0	correct_rejection	NA	0
26	Triplet	156	642	1452	7	0	0	1194194	692	0	correct_rejection	NA	0
26	Triplet	157	643	1453	7	0	0	1194903	691	0	correct_rejection	NA	0
26	Triplet	158	644	1454	8	0	0	1195611	692	0	correct_rejection	NA	0
26	Triplet	159	645	1455	9	0	0	1196320	692	0	correct_rejection	NA	0
26	Triplet	160	646	1456	6	0	0	1197028	692	0	correct_rejection	NA	0
26	Triplet	161	647	1457	5	0	0	1197737	692	0	correct_rejection	NA	0
26	Triplet	162	648	1458	4	0	0	1198446	691	0	correct_rejection	NA	0
26	Correct	1	1	1459	4	0	0	1208232	692	0	correct_rejection	NA	7099
26	Correct	2	2	1460	5	0	0	1208941	691	0	correct_rejection	NA	0
26	Correct	3	3	1461	6	0	0	1209649	692	0	correct_rejection	NA	0
26	Correct	4	4	1462	0	1	2	1210358	692	1	hit	453	0
26	Correct	5	5	1463	4	0	0	1211066	692	0	correct_rejection	NA	0
26	Correct	6	6	1464	5	0	0	1211775	692	0	correct_rejection	NA	0
26	Correct	7	7	1465	6	0	0	1212484	691	0	correct_rejection	NA	0
26	Correct	8	8	1466	4	0	0	1213192	692	0	correct_rejection	NA	0
26	Correct	9	9	1467	5	0	0	1213901	691	0	correct_rejection	NA	0
26	Correct	10	10	1468	6	0	0	1214609	692	0	correct_rejection	NA	0
26	Correct	11	11	1469	0	1	3	1215318	691	1	hit	619	0
26	Correct	12	12	1470	6	0	0	1216026	692	0	correct_rejection	NA	0
26	Correct	13	13	1471	5	0	0	1216735	692	0	correct_rejection	NA	0
26	Correct	14	14	1472	4	0	0	1217443	692	0	correct_rejection	NA	0
26	Correct	15	15	1473	6	0	0	1218152	692	0	correct_rejection	NA	0
26	Correct	16	16	1474	0	1	1	1218861	691	1	hit	377	0
26	Correct	17	17	1475	5	0	0	1219569	692	0	correct_rejection	NA	0
26	Correct	18	18	1476	4	0	0	1220278	691	0	correct_rejection	NA	0
26	Correct	19	19	1477	6	0	0	1220986	692	0	correct_rejection	NA	0
26	Correct	20	20	1478	5	0	0	1221695	692	0	correct_rejection	NA	0
26	Correct	21	21	1479	4	0	0	1222403	692	0	correct_rejection	NA	0
26	Correct	22	22	1480	9	0	0	1223112	692	0	correct_rejection	NA	0
26	Correct	23	23	1481	8	0	0	1223821	691	0	correct_rejection	NA	0
26	Correct	24	24	1482	7	0	0	1224529	692	0	correct_rejection	NA	0
26	Correct	25	25	1483	9	0	0	1225238	691	0	correct_rejection	NA	0
26	Correct	26	26	1484	8	0	0	1225946	692	0	correct_rejection	NA	0
26	Correct	27	27	1485	7	0	0	1226655	692	0	correct_rejection	NA	0
26	Correct	28	28	1486	0	1	2	1227363	692	1	hit	471	0
26	Correct	29	29	1487	9	0	0	1228072	692	0	correct_rejection	NA	0
26	Correct	30	30	1488	8	0	0	1228781	691	0	correct_rejection	NA	0
26	Correct	31	31	1489	7	0	0	1229489	692	0	correct_rejection	NA	0
26	Correct	32	32	1490	7	0	0	1230198	691	0	correct_rejection	NA	0
26	Correct	33	33	1491	8	0	0	1230906	692	0	correct_rejection	NA	0
26	Correct	34	34	1492	9	0	0	1231615	692	0	correct_rejection	NA	0
26	Correct	35	35	1493	7	0	0	1232323	692	0	correct_rejection	NA	0
26	Correct	36	36	1494	8	0	0	1233032	692	0	correct_rejection	NA	0
26	Correct	37	37	1495	9	0	0	1233741	691	0	correct_rejection	NA	0
26	Correct	38	38	1496	7	0	0	1234449	692	0	correct_rejection	NA	0
26	Correct	39	39	1497	8	0	0	1235158	691	0	correct_rejection	NA	0
26	Correct	40	40	1498	9	0	0	1235866	692	0	correct_rejection	NA	0
26	Correct	41	41	1499	0	1	4	1236575	692	1	hit	386	0
26	Correct	42	42	1500	4	0	0	1237283	692	0	correct_rejection	NA	0
26	Correct	43	43	1501	5	0	0	1237992	692	0	correct_rejection	NA	0
26	Correct	44	44	1502	0	1	1	1238701	691	1	hit	463	0
26	Correct	45	45	1503	6	0	0	1239409	692	0	correct_rejection	NA	0
26	Correct	46	46	1504	4	0	0	1240118	691	0	correct_rejection	NA	0
26	Correct	47	47	1505	5	0	0	1240826	692	0	correct_rejection	NA	0
26	Correct	48	48	1506	6	0	0	1241535	691	0	correct_rejection	NA	0
26	Correct	49	49	1507	4	0	0	1242243	692	0	correct_rejection	NA	0
26	Correct	50	50	1508	5	0	0	1242952	692	0	correct_rejection	NA	0
26	Correct	51	51	1509	6	0	0	1243660	692	0	correct_rejection	NA	0
26	Correct	52	52	1510	6	0	0	1244369	692	0	correct_rejection	NA	0
26	Correct	53	53	1511	5	0	0	1245078	691	0	correct_rejection	NA	0
26	Correct	54	54	1512	4	0	0	1245786	692	0	correct_rejection	NA	0
26	Correct	55	55	1513	6	0	0	1246495	691	0	correct_rejection	NA	0
26	Correct	56	56	1514	5	0	0	1247203	692	0	correct_rejection	NA	0
26	Correct	57	57	1515	4	0	0	1247912	692	0	correct_rejection	NA	0
26	Correct	58	58	1516	6	0	0	1248620	692	0	correct_rejection	NA	0
26	Correct	59	59	1517	5	0	0	1249329	692	0	correct_rejection	NA	0
26	Correct	60	60	1518	4	0	0	1250038	691	0	correct_rejection	NA	0
26	Correct	61	61	1519	9	0	0	1250746	692	0	correct_rejection	NA	0
26	Correct	62	62	1520	8	0	0	1251455	691	0	correct_rejection	NA	0
26	Correct	63	63	1521	7	0	0	1252163	692	0	correct_rejection	NA	0
26	Correct	64	64	1522	9	0	0	1252872	692	0	correct_rejection	NA	0
26	Correct	65	65	1523	8	0	0	1253580	692	0	correct_rejection	NA	0
26	Correct	66	66	1524	7	0	0	1254289	692	0	correct_rejection	NA	0
26	Correct	67	67	1525	9	0	0	1254998	691	0	correct_rejection	NA	0
26	Correct	68	68	1526	8	0	0	1255706	692	0	correct_rejection	NA	0
26	Correct	69	69	1527	7	0	0	1256415	691	0	correct_rejection	NA	0
26	Correct	70	70	1528	7	0	0	1257123	692	0	correct_rejection	NA	0
26	Correct	71	71	1529	8	0	0	1257832	692	0	correct_rejection	NA	0
26	Correct	72	72	1530	9	0	0	1258540	692	0	correct_rejection	NA	0
26	Correct	73	73	1531	7	0	0	1259249	692	0	correct_rejection	NA	0
26	Correct	74	74	1532	8	0	0	1259958	691	0	correct_rejection	NA	0
26	Correct	75	75	1533	9	0	0	1260666	692	0	correct_rejection	NA	0
26	Correct	76	76	1534	7	0	0	1261375	691	0	correct_rejection	NA	0
26	Correct	77	77	1535	8	0	0	1262083	692	0	correct_rejection	NA	0
26	Correct	78	78	1536	9	0	0	1262792	691	0	correct_rejection	NA	0
26	Correct	79	79	1537	4	0	0	1263500	692	0	correct_rejection	NA	0
26	Correct	80	80	1538	0	1	1	1264209	692	0	miss	NA	0
26	Correct	81	81	1539	5	0	0	1264918	691	0	correct_rejection	NA	0
26	Correct	82	82	1540	6	0	0	1265626	692	0	correct_rejection	NA	0
26	Correct	83	83	1541	4	0	0	1266335	691	0	correct_rejection	NA	0
26	Correct	84	84	1542	5	0	0	1267043	692	0	correct_rejection	NA	0
26	Correct	85	85	1543	6	0	0	1267752	691	0	correct_rejection	NA	0
26	Correct	86	86	1544	4	0	0	1268460	692	0	correct_rejection	NA	0
26	Correct	87	87	1545	0	1	1	1269169	692	1	hit	368	0
26	Correct	88	88	1546	5	0	0	1269877	692	0	correct_rejection	NA	0
26	Correct	89	89	1547	6	0	0	1270586	692	0	correct_rejection	NA	0
26	Correct	90	90	1548	6	0	0	1271295	691	0	correct_rejection	NA	0
26	Correct	91	91	1549	5	0	0	1272003	692	0	correct_rejection	NA	0
26	Correct	92	92	1550	0	1	1	1272712	691	1	hit	381	0
26	Correct	93	93	1551	4	0	0	1273420	692	0	correct_rejection	NA	0
26	Correct	94	94	1552	6	0	0	1274129	692	0	correct_rejection	NA	0
26	Correct	95	95	1553	5	0	0	1274837	692	0	correct_rejection	NA	0
26	Correct	96	96	1554	0	1	1	1275546	692	1	hit	387	0
26	Correct	97	97	1555	4	0	0	1276255	691	0	correct_rejection	NA	0
26	Correct	98	98	1556	6	0	0	1276963	692	0	correct_rejection	NA	0
26	Correct	99	99	1557	5	0	0	1277672	691	0	correct_rejection	NA	0
26	Correct	100	100	1558	4	0	0	1278380	692	0	correct_rejection	NA	0
26	Correct	101	101	1559	9	0	0	1279089	692	0	correct_rejection	NA	0
26	Correct	102	102	1560	0	1	1	1279797	692	1	hit	409	0
26	Correct	103	103	1561	8	0	0	1280506	692	0	correct_rejection	NA	0
26	Correct	104	104	1562	7	0	0	1281215	691	0	correct_rejection	NA	0
26	Correct	105	105	1563	9	0	0	1281923	692	0	correct_rejection	NA	0
26	Correct	106	106	1564	8	0	0	1282632	691	0	correct_rejection	NA	0
26	Correct	107	107	1565	7	0	0	1283340	692	0	correct_rejection	NA	0
26	Correct	108	108	1566	9	0	0	1284049	692	0	correct_rejection	NA	0
26	Correct	109	109	1567	8	0	0	1284757	692	0	correct_rejection	NA	0
26	Correct	110	110	1568	0	1	1	1285466	692	1	hit	400	0
26	Correct	111	111	1569	7	0	0	1286175	691	0	correct_rejection	NA	0
26	Correct	112	112	1570	7	0	0	1286883	692	0	correct_rejection	NA	0
26	Correct	113	113	1571	8	0	0	1287592	691	0	correct_rejection	NA	0
26	Correct	114	114	1572	9	0	0	1288300	692	0	correct_rejection	NA	0
26	Correct	115	115	1573	7	0	0	1289009	691	0	correct_rejection	NA	0
26	Correct	116	116	1574	8	0	0	1289717	692	0	correct_rejection	NA	0
26	Correct	117	117	1575	9	0	0	1290426	692	0	correct_rejection	NA	0
26	Correct	118	118	1576	7	0	0	1291135	691	0	correct_rejection	NA	0
26	Correct	119	119	1577	8	0	0	1291843	692	0	correct_rejection	NA	0
26	Correct	120	120	1578	0	1	1	1292552	691	1	hit	449	0
26	Correct	121	121	1579	9	0	0	1293260	692	0	correct_rejection	NA	0
26	Correct	122	122	1580	4	0	0	1293969	691	0	correct_rejection	NA	0
26	Correct	123	123	1581	5	0	0	1294677	692	0	correct_rejection	NA	0
26	Correct	124	124	1582	6	0	0	1295386	692	0	correct_rejection	NA	0
26	Correct	125	125	1583	4	0	0	1296094	692	0	correct_rejection	NA	0
26	Correct	126	126	1584	5	0	0	1296803	692	0	correct_rejection	NA	0
26	Correct	127	127	1585	6	0	0	1297512	691	0	correct_rejection	NA	0
26	Correct	128	128	1586	4	0	0	1298220	692	0	correct_rejection	NA	0
26	Correct	129	129	1587	5	0	0	1298929	691	0	correct_rejection	NA	0
26	Correct	130	130	1588	0	1	1	1299637	692	1	hit	454	0
26	Correct	131	131	1589	6	0	0	1300346	692	0	correct_rejection	NA	0
26	Correct	132	132	1590	6	0	0	1301054	692	0	correct_rejection	NA	0
26	Correct	133	133	1591	0	1	1	1301763	692	0	miss	NA	0
