ID	block	trial_block	trial_cat	trial_total	number	violation	level_violation	onset	duration	Response	Hit_Miss	RT	pre_trial_fixcross_ISI
first_trigger_at: 11077
trigger nr 3 at 13077
27	Nonet	1	163	1	4	0	0	20781	692	0	correct_rejection	NA	7658
27	Nonet	2	164	2	5	0	0	21490	692	0	correct_rejection	NA	0
27	Nonet	3	165	3	6	0	0	22198	692	0	correct_rejection	NA	0
27	Nonet	4	166	4	4	0	0	22907	692	0	correct_rejection	NA	0
27	Nonet	5	167	5	5	0	0	23616	691	0	correct_rejection	NA	0
27	Nonet	6	168	6	6	0	0	24324	692	0	correct_rejection	NA	0
27	Nonet	7	169	7	4	0	0	25033	691	0	correct_rejection	NA	0
27	Nonet	8	170	8	5	0	0	25741	692	0	correct_rejection	NA	0
27	Nonet	9	171	9	0	1	1	26450	692	1	hit	314	0
27	Nonet	10	172	10	6	0	0	27158	692	0	correct_rejection	NA	0
27	Nonet	11	173	11	4	0	0	27867	692	0	correct_rejection	NA	0
27	Nonet	12	174	12	5	0	0	28576	691	0	correct_rejection	NA	0
27	Nonet	13	175	13	6	0	0	29284	692	0	correct_rejection	NA	0
27	Nonet	14	176	14	4	0	0	29993	691	0	correct_rejection	NA	0
27	Nonet	15	177	15	5	0	0	30701	692	0	correct_rejection	NA	0
27	Nonet	16	178	16	6	0	0	31410	692	0	correct_rejection	NA	0
27	Nonet	17	179	17	4	0	0	32118	692	0	correct_rejection	NA	0
27	Nonet	18	180	18	5	0	0	32827	692	0	correct_rejection	NA	0
27	Nonet	19	181	19	6	0	0	33536	691	0	correct_rejection	NA	0
27	Nonet	20	182	20	7	0	0	34244	692	0	correct_rejection	NA	0
27	Nonet	21	183	21	8	0	0	34953	691	0	correct_rejection	NA	0
27	Nonet	22	184	22	9	0	0	35661	692	0	correct_rejection	NA	0
27	Nonet	23	185	23	7	0	0	36370	692	0	correct_rejection	NA	0
27	Nonet	24	186	24	8	0	0	37078	692	0	correct_rejection	NA	0
27	Nonet	25	187	25	9	0	0	37787	692	0	correct_rejection	NA	0
27	Nonet	26	188	26	7	0	0	38496	691	0	correct_rejection	NA	0
27	Nonet	27	189	27	0	1	1	39204	692	1	hit	323	0
27	Nonet	28	190	28	8	0	0	39913	691	0	correct_rejection	NA	0
27	Nonet	29	191	29	9	0	0	40621	692	0	correct_rejection	NA	0
27	Nonet	30	192	30	0	1	3	41330	691	1	hit	369	0
27	Nonet	31	193	31	7	0	0	42038	692	0	correct_rejection	NA	0
27	Nonet	32	194	32	8	0	0	42747	692	0	correct_rejection	NA	0
27	Nonet	33	195	33	9	0	0	43455	692	0	correct_rejection	NA	0
27	Nonet	34	196	34	7	0	0	44164	692	0	correct_rejection	NA	0
27	Nonet	35	197	35	0	1	1	44873	691	1	hit	323	0
27	Nonet	36	198	36	8	0	0	45581	692	0	correct_rejection	NA	0
27	Nonet	37	199	37	9	0	0	46290	691	0	correct_rejection	NA	0
27	Nonet	38	200	38	7	0	0	46998	692	0	correct_rejection	NA	0
27	Nonet	39	201	39	8	0	0	47707	692	0	correct_rejection	NA	0
27	Nonet	40	202	40	9	0	0	48415	692	0	correct_rejection	NA	0
27	Nonet	41	203	41	6	0	0	49124	692	0	correct_rejection	NA	0
27	Nonet	42	204	42	5	0	0	49833	691	0	correct_rejection	NA	0
27	Nonet	43	205	43	4	0	0	50541	692	0	correct_rejection	NA	0
27	Nonet	44	206	44	6	0	0	51250	691	0	correct_rejection	NA	0
27	Nonet	45	207	45	5	0	0	51958	692	0	correct_rejection	NA	0
27	Nonet	46	208	46	4	0	0	52667	692	0	correct_rejection	NA	0
27	Nonet	47	209	47	6	0	0	53375	692	0	correct_rejection	NA	0
27	Nonet	48	210	48	5	0	0	54084	692	0	correct_rejection	NA	0
27	Nonet	49	211	49	0	1	1	54793	691	1	hit	287	0
27	Nonet	50	212	50	4	0	0	55501	692	0	correct_rejection	NA	0
27	Nonet	51	213	51	6	0	0	56210	691	0	correct_rejection	NA	0
27	Nonet	52	214	52	5	0	0	56918	692	0	correct_rejection	NA	0
27	Nonet	53	215	53	4	0	0	57627	692	0	correct_rejection	NA	0
27	Nonet	54	216	54	6	0	0	58335	692	0	correct_rejection	NA	0
27	Nonet	55	217	55	0	1	1	59044	692	1	hit	318	0
27	Nonet	56	218	56	5	0	0	59753	691	0	correct_rejection	NA	0
27	Nonet	57	219	57	4	0	0	60461	692	0	correct_rejection	NA	0
27	Nonet	58	220	58	6	0	0	61170	691	0	correct_rejection	NA	0
27	Nonet	59	221	59	5	0	0	61878	692	0	correct_rejection	NA	0
27	Nonet	60	222	60	4	0	0	62587	692	0	correct_rejection	NA	0
27	Nonet	61	223	61	4	0	0	63295	692	0	correct_rejection	NA	0
27	Nonet	62	224	62	0	1	1	64004	692	1	hit	310	0
27	Nonet	63	225	63	5	0	0	64713	691	0	correct_rejection	NA	0
27	Nonet	64	226	64	6	0	0	65421	692	0	correct_rejection	NA	0
27	Nonet	65	227	65	4	0	0	66130	691	0	correct_rejection	NA	0
27	Nonet	66	228	66	5	0	0	66838	692	0	correct_rejection	NA	0
27	Nonet	67	229	67	6	0	0	67547	691	0	correct_rejection	NA	0
27	Nonet	68	230	68	4	0	0	68255	692	0	correct_rejection	NA	0
27	Nonet	69	231	69	5	0	0	68964	692	0	correct_rejection	NA	0
27	Nonet	70	232	70	6	0	0	69672	692	0	correct_rejection	NA	0
27	Nonet	71	233	71	6	0	0	70381	692	0	correct_rejection	NA	0
27	Nonet	72	234	72	5	0	0	71090	691	0	correct_rejection	NA	0
27	Nonet	73	235	73	4	0	0	71798	692	0	correct_rejection	NA	0
27	Nonet	74	236	74	6	0	0	72507	691	0	correct_rejection	NA	0
27	Nonet	75	237	75	0	1	1	73215	692	1	hit	294	0
27	Nonet	76	238	76	5	0	0	73924	692	0	correct_rejection	NA	0
27	Nonet	77	239	77	4	0	0	74632	692	0	correct_rejection	NA	0
27	Nonet	78	240	78	0	1	2	75341	692	1	hit	339	0
27	Nonet	79	241	79	6	0	0	76050	691	0	correct_rejection	NA	0
27	Nonet	80	242	80	5	0	0	76758	692	0	correct_rejection	NA	0
27	Nonet	81	243	81	4	0	0	77467	691	0	correct_rejection	NA	0
27	Nonet	82	244	82	9	0	0	78175	692	0	correct_rejection	NA	0
27	Nonet	83	245	83	0	1	1	78884	692	1	hit	303	0
27	Nonet	84	246	84	8	0	0	79592	692	0	correct_rejection	NA	0
27	Nonet	85	247	85	7	0	0	80301	692	0	correct_rejection	NA	0
27	Nonet	86	248	86	9	0	0	81010	691	0	correct_rejection	NA	0
27	Nonet	87	249	87	8	0	0	81718	692	0	correct_rejection	NA	0
27	Nonet	88	250	88	7	0	0	82427	691	0	correct_rejection	NA	0
27	Nonet	89	251	89	9	0	0	83135	692	0	correct_rejection	NA	0
27	Nonet	90	252	90	8	0	0	83844	692	0	correct_rejection	NA	0
27	Nonet	91	253	91	7	0	0	84552	692	0	correct_rejection	NA	0
27	Nonet	92	254	92	4	0	0	85261	692	0	correct_rejection	NA	0
27	Nonet	93	255	93	5	0	0	85970	691	0	correct_rejection	NA	0
27	Nonet	94	256	94	6	0	0	86678	692	0	correct_rejection	NA	0
27	Nonet	95	257	95	0	1	2	87387	691	1	hit	280	0
27	Nonet	96	258	96	4	0	0	88095	692	0	correct_rejection	NA	0
27	Nonet	97	259	97	5	0	0	88804	692	0	correct_rejection	NA	0
27	Nonet	98	260	98	6	0	0	89512	692	0	correct_rejection	NA	0
27	Nonet	99	261	99	4	0	0	90221	692	0	correct_rejection	NA	0
27	Nonet	100	262	100	0	1	1	90930	691	1	hit	291	0
27	Nonet	101	263	101	5	0	0	91638	692	0	correct_rejection	NA	0
27	Nonet	102	264	102	6	0	0	92347	691	0	correct_rejection	NA	0
27	Nonet	103	265	103	9	0	0	93055	692	0	correct_rejection	NA	0
27	Nonet	104	266	104	0	1	1	93764	691	1	hit	290	0
27	Nonet	105	267	105	8	0	0	94472	692	0	correct_rejection	NA	0
27	Nonet	106	268	106	7	0	0	95181	692	0	correct_rejection	NA	0
27	Nonet	107	269	107	9	0	0	95889	692	0	correct_rejection	NA	0
27	Nonet	108	270	108	0	1	1	96598	692	1	hit	284	0
27	Nonet	109	271	109	8	0	0	97307	691	0	correct_rejection	NA	0
27	Nonet	110	272	110	7	0	0	98015	692	0	correct_rejection	NA	0
27	Nonet	111	273	111	9	0	0	98724	691	0	correct_rejection	NA	0
27	Nonet	112	274	112	8	0	0	99432	692	0	correct_rejection	NA	0
27	Nonet	113	275	113	7	0	0	100141	692	0	correct_rejection	NA	0
27	Nonet	114	276	114	0	1	3	100849	692	1	hit	287	0
27	Nonet	115	277	115	7	0	0	101558	692	0	correct_rejection	NA	0
27	Nonet	116	278	116	8	0	0	102267	691	0	correct_rejection	NA	0
27	Nonet	117	279	117	9	0	0	102975	692	0	correct_rejection	NA	0
27	Nonet	118	280	118	7	0	0	103684	691	0	correct_rejection	NA	0
27	Nonet	119	281	119	8	0	0	104392	692	0	correct_rejection	NA	0
27	Nonet	120	282	120	9	0	0	105101	692	0	correct_rejection	NA	0
27	Nonet	121	283	121	7	0	0	105809	692	0	correct_rejection	NA	0
27	Nonet	122	284	122	8	0	0	106518	692	0	correct_rejection	NA	0
27	Nonet	123	285	123	9	0	0	107227	691	0	correct_rejection	NA	0
27	Nonet	124	286	124	9	0	0	107935	692	0	correct_rejection	NA	0
27	Nonet	125	287	125	8	0	0	108644	691	0	correct_rejection	NA	0
27	Nonet	126	288	126	7	0	0	109352	692	0	correct_rejection	NA	0
27	Nonet	127	289	127	9	0	0	110061	692	0	correct_rejection	NA	0
27	Nonet	128	290	128	8	0	0	110769	692	0	correct_rejection	NA	0
27	Nonet	129	291	129	7	0	0	111478	692	0	correct_rejection	NA	0
27	Nonet	130	292	130	9	0	0	112187	691	0	correct_rejection	NA	0
27	Nonet	131	293	131	8	0	0	112895	692	0	correct_rejection	NA	0
27	Nonet	132	294	132	7	0	0	113604	691	0	correct_rejection	NA	0
27	Nonet	133	295	133	0	1	3	114312	692	1	hit	321	0
27	Nonet	134	296	134	9	0	0	115021	691	0	correct_rejection	NA	0
27	Nonet	135	297	135	8	0	0	115729	692	0	correct_rejection	NA	0
27	Nonet	136	298	136	7	0	0	116438	692	0	correct_rejection	NA	0
27	Nonet	137	299	137	9	0	0	117147	691	0	correct_rejection	NA	0
27	Nonet	138	300	138	8	0	0	117855	692	0	correct_rejection	NA	0
27	Nonet	139	301	139	7	0	0	118564	691	0	correct_rejection	NA	0
27	Nonet	140	302	140	9	0	0	119272	692	0	correct_rejection	NA	0
27	Nonet	141	303	141	8	0	0	119981	691	0	correct_rejection	NA	0
27	Nonet	142	304	142	7	0	0	120689	692	0	correct_rejection	NA	0
27	Nonet	143	305	143	6	0	0	121398	692	0	correct_rejection	NA	0
27	Nonet	144	306	144	5	0	0	122106	692	0	correct_rejection	NA	0
27	Nonet	145	307	145	4	0	0	122815	692	0	correct_rejection	NA	0
27	Nonet	146	308	146	0	1	2	123524	691	1	hit	316	0
27	Nonet	147	309	147	6	0	0	124232	692	0	correct_rejection	NA	0
27	Nonet	148	310	148	5	0	0	124941	691	0	correct_rejection	NA	0
27	Nonet	149	311	149	4	0	0	125649	692	0	correct_rejection	NA	0
27	Nonet	150	312	150	6	0	0	126358	692	0	correct_rejection	NA	0
27	Nonet	151	313	151	5	0	0	127066	692	0	correct_rejection	NA	0
27	Nonet	152	314	152	4	0	0	127775	692	0	correct_rejection	NA	0
27	Nonet	153	315	153	7	0	0	128484	691	0	correct_rejection	NA	0
27	Nonet	154	316	154	8	0	0	129192	692	0	correct_rejection	NA	0
27	Nonet	155	317	155	0	1	1	129901	691	1	hit	304	0
27	Nonet	156	318	156	9	0	0	130609	692	0	correct_rejection	NA	0
27	Nonet	157	319	157	7	0	0	131318	692	0	correct_rejection	NA	0
27	Nonet	158	320	158	8	0	0	132026	692	0	correct_rejection	NA	0
27	Nonet	159	321	159	9	0	0	132735	692	0	correct_rejection	NA	0
27	Nonet	160	322	160	7	0	0	133444	691	0	correct_rejection	NA	0
27	Nonet	161	323	161	8	0	0	134152	692	0	correct_rejection	NA	0
27	Nonet	162	324	162	9	0	0	134861	691	0	correct_rejection	NA	0
27	Single	1	649	163	8	0	0	144439	692	0	correct_rejection	NA	7329
27	Single	2	650	164	9	0	0	145147	692	0	correct_rejection	NA	0
27	Single	3	651	165	8	0	0	145856	692	0	correct_rejection	NA	0
27	Single	4	652	166	5	0	0	146565	691	0	correct_rejection	NA	0
27	Single	5	653	167	4	0	0	147273	692	0	correct_rejection	NA	0
27	Single	6	654	168	4	0	0	147982	691	0	correct_rejection	NA	0
27	Single	7	655	169	9	0	0	148690	692	0	correct_rejection	NA	0
27	Single	8	656	170	9	0	0	149399	692	0	correct_rejection	NA	0
27	Single	9	657	171	4	0	0	150107	692	0	correct_rejection	NA	0
27	Single	10	658	172	7	0	0	150816	692	0	correct_rejection	NA	0
27	Single	11	659	173	4	0	0	151525	691	0	correct_rejection	NA	0
27	Single	12	660	174	5	0	0	152233	692	0	correct_rejection	NA	0
27	Single	13	661	175	7	0	0	152942	691	0	correct_rejection	NA	0
27	Single	14	662	176	6	0	0	153650	692	0	correct_rejection	NA	0
27	Single	15	663	177	8	0	0	154359	691	0	correct_rejection	NA	0
27	Single	16	664	178	7	0	0	155067	692	0	correct_rejection	NA	0
27	Single	17	665	179	5	0	0	155776	692	0	correct_rejection	NA	0
27	Single	18	666	180	5	0	0	156485	691	0	correct_rejection	NA	0
27	Single	19	667	181	9	0	0	157193	692	0	correct_rejection	NA	0
27	Single	20	668	182	5	0	0	157902	691	0	correct_rejection	NA	0
27	Single	21	669	183	0	1	1	158610	692	1	hit	327	0
27	Single	22	670	184	8	0	0	159319	691	0	correct_rejection	NA	0
27	Single	23	671	185	6	0	0	160027	692	0	correct_rejection	NA	0
27	Single	24	672	186	5	0	0	160736	692	0	correct_rejection	NA	0
27	Single	25	673	187	6	0	0	161444	692	0	correct_rejection	NA	0
27	Single	26	674	188	6	0	0	162153	692	0	correct_rejection	NA	0
27	Single	27	675	189	7	0	0	162862	691	0	correct_rejection	NA	0
27	Single	28	676	190	9	0	0	163570	692	0	correct_rejection	NA	0
27	Single	29	677	191	6	0	0	164279	691	0	correct_rejection	NA	0
27	Single	30	678	192	9	0	0	164987	692	0	correct_rejection	NA	0
27	Single	31	679	193	7	0	0	165696	692	0	correct_rejection	NA	0
27	Single	32	680	194	7	0	0	166404	692	0	correct_rejection	NA	0
27	Single	33	681	195	0	1	1	167113	692	1	hit	304	0
27	Single	34	682	196	8	0	0	167822	691	0	correct_rejection	NA	0
27	Single	35	683	197	8	0	0	168530	692	0	correct_rejection	NA	0
27	Single	36	684	198	4	0	0	169239	691	0	correct_rejection	NA	0
27	Single	37	685	199	6	0	0	169947	692	0	correct_rejection	NA	0
27	Single	38	686	200	4	0	0	170656	692	0	correct_rejection	NA	0
27	Single	39	687	201	7	0	0	171364	692	0	correct_rejection	NA	0
27	Single	40	688	202	9	0	0	172073	692	0	correct_rejection	NA	0
27	Single	41	689	203	5	0	0	172782	691	0	correct_rejection	NA	0
27	Single	42	690	204	9	0	0	173490	692	0	correct_rejection	NA	0
27	Single	43	691	205	4	0	0	174199	691	0	correct_rejection	NA	0
27	Single	44	692	206	8	0	0	174907	692	0	correct_rejection	NA	0
27	Single	45	693	207	4	0	0	175616	692	0	correct_rejection	NA	0
27	Single	46	694	208	9	0	0	176324	692	0	correct_rejection	NA	0
27	Single	47	695	209	7	0	0	177033	692	0	correct_rejection	NA	0
27	Single	48	696	210	8	0	0	177742	691	0	correct_rejection	NA	0
27	Single	49	697	211	9	0	0	178450	692	0	correct_rejection	NA	0
27	Single	50	698	212	6	0	0	179159	691	0	correct_rejection	NA	0
27	Single	51	699	213	8	0	0	179867	692	0	correct_rejection	NA	0
27	Single	52	700	214	8	0	0	180576	691	0	correct_rejection	NA	0
27	Single	53	701	215	5	0	0	181284	692	0	correct_rejection	NA	0
27	Single	54	702	216	8	0	0	181993	692	0	correct_rejection	NA	0
27	Single	55	703	217	7	0	0	182701	692	0	correct_rejection	NA	0
27	Single	56	704	218	7	0	0	183410	692	0	correct_rejection	NA	0
27	Single	57	705	219	4	0	0	184119	691	0	correct_rejection	NA	0
27	Single	58	706	220	0	1	1	184827	692	1	hit	353	0
27	Single	59	707	221	4	0	0	185536	691	0	correct_rejection	NA	0
27	Single	60	708	222	6	0	0	186244	692	0	correct_rejection	NA	0
27	Single	61	709	223	5	0	0	186953	692	0	correct_rejection	NA	0
27	Single	62	710	224	4	0	0	187661	692	0	correct_rejection	NA	0
27	Single	63	711	225	7	0	0	188370	692	0	correct_rejection	NA	0
27	Single	64	712	226	6	0	0	189079	691	0	correct_rejection	NA	0
27	Single	65	713	227	6	0	0	189787	692	0	correct_rejection	NA	0
27	Single	66	714	228	9	0	0	190496	691	0	correct_rejection	NA	0
27	Single	67	715	229	0	1	1	191204	692	1	hit	339	0
27	Single	68	716	230	9	0	0	191913	692	0	correct_rejection	NA	0
27	Single	69	717	231	8	0	0	192621	692	0	correct_rejection	NA	0
27	Single	70	718	232	0	1	1	193330	692	1	hit	392	0
27	Single	71	719	233	6	0	0	194039	691	0	correct_rejection	NA	0
27	Single	72	720	234	4	0	0	194747	692	0	correct_rejection	NA	0
27	Single	73	721	235	5	0	0	195456	691	0	correct_rejection	NA	0
27	Single	74	722	236	5	0	0	196164	692	0	correct_rejection	NA	0
27	Single	75	723	237	0	1	1	196873	692	1	hit	323	0
27	Single	76	724	238	6	0	0	197581	692	0	correct_rejection	NA	0
27	Single	77	725	239	7	0	0	198290	692	0	correct_rejection	NA	0
27	Single	78	726	240	0	1	1	198999	691	1	hit	343	0
27	Single	79	727	241	5	0	0	199707	692	0	correct_rejection	NA	0
27	Single	80	728	242	5	0	0	200416	691	0	correct_rejection	NA	0
27	Single	81	729	243	4	0	0	201124	692	0	correct_rejection	NA	0
27	Single	82	730	244	0	1	1	201833	692	1	hit	305	0
27	Single	83	731	245	9	0	0	202541	692	0	correct_rejection	NA	0
27	Single	84	732	246	5	0	0	203250	692	0	correct_rejection	NA	0
27	Single	85	733	247	6	0	0	203959	691	0	correct_rejection	NA	0
27	Single	86	734	248	4	0	0	204667	692	0	correct_rejection	NA	0
27	Single	87	735	249	0	1	1	205376	691	1	hit	291	0
27	Single	88	736	250	7	0	0	206084	692	0	correct_rejection	NA	0
27	Single	89	737	251	9	0	0	206793	691	0	correct_rejection	NA	0
27	Single	90	738	252	8	0	0	207501	692	0	correct_rejection	NA	0
27	Single	91	739	253	8	0	0	208210	692	0	correct_rejection	NA	0
27	Single	92	740	254	7	0	0	208918	692	0	correct_rejection	NA	0
27	Single	93	741	255	8	0	0	209627	692	0	correct_rejection	NA	0
27	Single	94	742	256	0	1	1	210336	691	1	hit	306	0
27	Single	95	743	257	4	0	0	211044	692	0	correct_rejection	NA	0
27	Single	96	744	258	8	0	0	211753	691	0	correct_rejection	NA	0
27	Single	97	745	259	5	0	0	212461	692	0	correct_rejection	NA	0
27	Single	98	746	260	5	0	0	213170	692	0	correct_rejection	NA	0
27	Single	99	747	261	8	0	0	213878	692	0	correct_rejection	NA	0
27	Single	100	748	262	9	0	0	214587	692	0	correct_rejection	NA	0
27	Single	101	749	263	4	0	0	215296	691	0	correct_rejection	NA	0
27	Single	102	750	264	4	0	0	216004	692	0	correct_rejection	NA	0
27	Single	103	751	265	0	1	1	216713	691	1	hit	297	0
27	Single	104	752	266	5	0	0	217421	692	0	correct_rejection	NA	0
27	Single	105	753	267	9	0	0	218130	692	0	correct_rejection	NA	0
27	Single	106	754	268	9	0	0	218838	692	0	correct_rejection	NA	0
27	Single	107	755	269	7	0	0	219547	692	0	correct_rejection	NA	0
27	Single	108	756	270	6	0	0	220256	691	0	correct_rejection	NA	0
27	Single	109	757	271	7	0	0	220964	692	0	correct_rejection	NA	0
27	Single	110	758	272	7	0	0	221673	691	0	correct_rejection	NA	0
27	Single	111	759	273	5	0	0	222381	692	0	correct_rejection	NA	0
27	Single	112	760	274	0	1	1	223090	692	1	hit	313	0
27	Single	113	761	275	7	0	0	223798	692	0	correct_rejection	NA	0
27	Single	114	762	276	4	0	0	224507	692	0	correct_rejection	NA	0
27	Single	115	763	277	6	0	0	225216	691	0	correct_rejection	NA	0
27	Single	116	764	278	9	0	0	225924	692	0	correct_rejection	NA	0
27	Single	117	765	279	6	0	0	226633	691	0	correct_rejection	NA	0
27	Single	118	766	280	6	0	0	227341	692	0	correct_rejection	NA	0
27	Single	119	767	281	8	0	0	228050	692	0	correct_rejection	NA	0
27	Single	120	768	282	6	0	0	228758	692	0	correct_rejection	NA	0
27	Single	121	769	283	0	1	1	229467	692	1	hit	332	0
27	Single	122	770	284	7	0	0	230176	691	0	correct_rejection	NA	0
27	Single	123	771	285	7	0	0	230884	692	0	correct_rejection	NA	0
27	Single	124	772	286	8	0	0	231593	691	0	correct_rejection	NA	0
27	Single	125	773	287	7	0	0	232301	692	0	correct_rejection	NA	0
27	Single	126	774	288	6	0	0	233010	691	0	correct_rejection	NA	0
27	Single	127	775	289	9	0	0	233718	692	0	correct_rejection	NA	0
27	Single	128	776	290	7	0	0	234427	692	0	correct_rejection	NA	0
27	Single	129	777	291	0	1	1	235135	692	1	hit	303	0
27	Single	130	778	292	4	0	0	235844	692	0	correct_rejection	NA	0
27	Single	131	779	293	9	0	0	236553	691	0	correct_rejection	NA	0
27	Single	132	780	294	6	0	0	237261	692	0	correct_rejection	NA	0
27	Single	133	781	295	5	0	0	237970	691	0	correct_rejection	NA	0
27	Single	134	782	296	6	0	0	238678	692	0	correct_rejection	NA	0
27	Single	135	783	297	0	1	1	239387	692	1	hit	323	0
27	Single	136	784	298	6	0	0	240095	692	0	correct_rejection	NA	0
27	Single	137	785	299	7	0	0	240804	692	0	correct_rejection	NA	0
27	Single	138	786	300	9	0	0	241513	691	0	correct_rejection	NA	0
27	Single	139	787	301	9	0	0	242221	692	0	correct_rejection	NA	0
27	Single	140	788	302	4	0	0	242930	691	0	correct_rejection	NA	0
27	Single	141	789	303	5	0	0	243638	692	0	correct_rejection	NA	0
27	Single	142	790	304	8	0	0	244347	692	0	correct_rejection	NA	0
27	Single	143	791	305	6	0	0	245055	692	0	correct_rejection	NA	0
27	Single	144	792	306	8	0	0	245764	692	0	correct_rejection	NA	0
27	Single	145	793	307	9	0	0	246473	691	0	correct_rejection	NA	0
27	Single	146	794	308	5	0	0	247181	692	0	correct_rejection	NA	0
27	Single	147	795	309	7	0	0	247890	691	0	correct_rejection	NA	0
27	Single	148	796	310	5	0	0	248598	692	0	correct_rejection	NA	0
27	Single	149	797	311	5	0	0	249307	692	0	correct_rejection	NA	0
27	Single	150	798	312	9	0	0	250015	692	0	correct_rejection	NA	0
27	Single	151	799	313	8	0	0	250724	692	0	correct_rejection	NA	0
27	Single	152	800	314	0	1	1	251433	691	0	miss	NA	0
27	Single	153	801	315	5	0	0	252141	692	0	correct_rejection	NA	0
27	Single	154	802	316	4	0	0	252850	691	0	correct_rejection	NA	0
27	Single	155	803	317	6	0	0	253558	692	0	correct_rejection	NA	0
27	Single	156	804	318	0	1	1	254267	692	1	hit	299	0
27	Single	157	805	319	4	0	0	254975	692	0	correct_rejection	NA	0
27	Single	158	806	320	4	0	0	255684	692	0	correct_rejection	NA	0
27	Single	159	807	321	8	0	0	256393	691	0	correct_rejection	NA	0
27	Single	160	808	322	0	1	1	257101	692	1	hit	309	0
27	Single	161	809	323	8	0	0	257810	691	0	correct_rejection	NA	0
27	Single	162	810	324	4	0	0	258518	692	0	correct_rejection	NA	0
27	Nonet	1	1	325	9	0	0	267538	692	0	correct_rejection	NA	6429
27	Nonet	2	2	326	8	0	0	268246	692	0	correct_rejection	NA	0
27	Nonet	3	3	327	7	0	0	268955	692	0	correct_rejection	NA	0
27	Nonet	4	4	328	9	0	0	269664	691	0	correct_rejection	NA	0
27	Nonet	5	5	329	8	0	0	270372	692	0	correct_rejection	NA	0
27	Nonet	6	6	330	7	0	0	271081	691	0	correct_rejection	NA	0
27	Nonet	7	7	331	9	0	0	271789	692	0	correct_rejection	NA	0
27	Nonet	8	8	332	8	0	0	272498	692	0	correct_rejection	NA	0
27	Nonet	9	9	333	7	0	0	273206	692	0	correct_rejection	NA	0
27	Nonet	10	10	334	6	0	0	273915	692	0	correct_rejection	NA	0
27	Nonet	11	11	335	5	0	0	274624	691	0	correct_rejection	NA	0
27	Nonet	12	12	336	4	0	0	275332	692	0	correct_rejection	NA	0
27	Nonet	13	13	337	6	0	0	276041	691	0	correct_rejection	NA	0
27	Nonet	14	14	338	5	0	0	276749	692	0	correct_rejection	NA	0
27	Nonet	15	15	339	4	0	0	277458	691	0	correct_rejection	NA	0
27	Nonet	16	16	340	6	0	0	278166	692	0	correct_rejection	NA	0
27	Nonet	17	17	341	0	1	1	278875	692	1	hit	310	0
27	Nonet	18	18	342	5	0	0	279584	691	0	correct_rejection	NA	0
27	Nonet	19	19	343	4	0	0	280292	692	0	correct_rejection	NA	0
27	Nonet	20	20	344	6	0	0	281001	691	0	correct_rejection	NA	0
27	Nonet	21	21	345	5	0	0	281709	692	0	correct_rejection	NA	0
27	Nonet	22	22	346	0	1	1	282418	691	1	hit	296	0
27	Nonet	23	23	347	4	0	0	283126	692	0	correct_rejection	NA	0
27	Nonet	24	24	348	6	0	0	283835	692	0	correct_rejection	NA	0
27	Nonet	25	25	349	5	0	0	284543	692	0	correct_rejection	NA	0
27	Nonet	26	26	350	4	0	0	285252	692	0	correct_rejection	NA	0
27	Nonet	27	27	351	6	0	0	285961	691	0	correct_rejection	NA	0
27	Nonet	28	28	352	5	0	0	286669	692	0	correct_rejection	NA	0
27	Nonet	29	29	353	4	0	0	287378	691	0	correct_rejection	NA	0
27	Nonet	30	30	354	9	0	0	288086	692	0	correct_rejection	NA	0
27	Nonet	31	31	355	8	0	0	288795	692	0	correct_rejection	NA	0
27	Nonet	32	32	356	0	1	1	289503	692	1	hit	297	0
27	Nonet	33	33	357	7	0	0	290212	692	0	correct_rejection	NA	0
27	Nonet	34	34	358	9	0	0	290921	691	0	correct_rejection	NA	0
27	Nonet	35	35	359	8	0	0	291629	692	0	correct_rejection	NA	0
27	Nonet	36	36	360	7	0	0	292338	691	0	correct_rejection	NA	0
27	Nonet	37	37	361	9	0	0	293046	692	0	correct_rejection	NA	0
27	Nonet	38	38	362	8	0	0	293755	692	0	correct_rejection	NA	0
27	Nonet	39	39	363	7	0	0	294463	692	0	correct_rejection	NA	0
27	Nonet	40	40	364	4	0	0	295172	692	0	correct_rejection	NA	0
27	Nonet	41	41	365	5	0	0	295881	691	0	correct_rejection	NA	0
27	Nonet	42	42	366	6	0	0	296589	692	0	correct_rejection	NA	0
27	Nonet	43	43	367	0	1	2	297298	691	1	hit	469	0
27	Nonet	44	44	368	4	0	0	298006	692	0	correct_rejection	NA	0
27	Nonet	45	45	369	5	0	0	298715	692	0	correct_rejection	NA	0
27	Nonet	46	46	370	6	0	0	299423	692	0	correct_rejection	NA	0
27	Nonet	47	47	371	0	1	2	300132	692	1	hit	271	0
27	Nonet	48	48	372	4	0	0	300841	691	0	correct_rejection	NA	0
27	Nonet	49	49	373	5	0	0	301549	692	0	correct_rejection	NA	0
27	Nonet	50	50	374	6	0	0	302258	691	0	correct_rejection	NA	0
27	Nonet	51	51	375	4	0	0	302966	692	0	correct_rejection	NA	0
27	Nonet	52	52	376	5	0	0	303675	691	0	correct_rejection	NA	0
27	Nonet	53	53	377	0	1	1	304383	692	1	hit	308	0
27	Nonet	54	54	378	6	0	0	305092	692	0	correct_rejection	NA	0
27	Nonet	55	55	379	4	0	0	305800	692	0	correct_rejection	NA	0
27	Nonet	56	56	380	5	0	0	306509	692	0	correct_rejection	NA	0
27	Nonet	57	57	381	6	0	0	307218	691	0	correct_rejection	NA	0
27	Nonet	58	58	382	4	0	0	307926	692	0	correct_rejection	NA	0
27	Nonet	59	59	383	5	0	0	308635	691	0	correct_rejection	NA	0
27	Nonet	60	60	384	6	0	0	309343	692	0	correct_rejection	NA	0
27	Nonet	61	61	385	7	0	0	310052	692	0	correct_rejection	NA	0
27	Nonet	62	62	386	8	0	0	310760	692	0	correct_rejection	NA	0
27	Nonet	63	63	387	9	0	0	311469	692	0	correct_rejection	NA	0
27	Nonet	64	64	388	7	0	0	312178	691	0	correct_rejection	NA	0
27	Nonet	65	65	389	8	0	0	312886	692	0	correct_rejection	NA	0
27	Nonet	66	66	390	0	1	1	313595	691	1	hit	301	0
27	Nonet	67	67	391	9	0	0	314303	692	0	correct_rejection	NA	0
27	Nonet	68	68	392	7	0	0	315012	692	0	correct_rejection	NA	0
27	Nonet	69	69	393	8	0	0	315720	692	0	correct_rejection	NA	0
27	Nonet	70	70	394	9	0	0	316429	692	0	correct_rejection	NA	0
27	Nonet	71	71	395	4	0	0	317138	691	0	correct_rejection	NA	0
27	Nonet	72	72	396	5	0	0	317846	692	0	correct_rejection	NA	0
27	Nonet	73	73	397	6	0	0	318555	691	0	correct_rejection	NA	0
27	Nonet	74	74	398	4	0	0	319263	692	0	correct_rejection	NA	0
27	Nonet	75	75	399	5	0	0	319972	692	0	correct_rejection	NA	0
27	Nonet	76	76	400	6	0	0	320680	692	0	correct_rejection	NA	0
27	Nonet	77	77	401	4	0	0	321389	692	0	correct_rejection	NA	0
27	Nonet	78	78	402	5	0	0	322098	691	0	correct_rejection	NA	0
27	Nonet	79	79	403	6	0	0	322806	692	0	correct_rejection	NA	0
27	Nonet	80	80	404	9	0	0	323515	691	0	correct_rejection	NA	0
27	Nonet	81	81	405	8	0	0	324223	692	0	correct_rejection	NA	0
27	Nonet	82	82	406	0	1	1	324932	692	1	hit	308	0
27	Nonet	83	83	407	7	0	0	325640	692	0	correct_rejection	NA	0
27	Nonet	84	84	408	9	0	0	326349	692	0	correct_rejection	NA	0
27	Nonet	85	85	409	8	0	0	327058	691	0	correct_rejection	NA	0
27	Nonet	86	86	410	0	1	1	327766	692	1	hit	366	0
27	Nonet	87	87	411	7	0	0	328475	691	0	correct_rejection	NA	0
27	Nonet	88	88	412	9	0	0	329183	692	0	correct_rejection	NA	0
27	Nonet	89	89	413	8	0	0	329892	691	0	correct_rejection	NA	0
27	Nonet	90	90	414	7	0	0	330600	692	0	correct_rejection	NA	0
27	Nonet	91	91	415	0	1	3	331309	692	1	hit	379	0
27	Nonet	92	92	416	9	0	0	332017	692	0	correct_rejection	NA	0
27	Nonet	93	93	417	8	0	0	332726	692	0	correct_rejection	NA	0
27	Nonet	94	94	418	7	0	0	333435	691	0	correct_rejection	NA	0
27	Nonet	95	95	419	9	0	0	334143	692	0	correct_rejection	NA	0
27	Nonet	96	96	420	8	0	0	334852	691	0	correct_rejection	NA	0
27	Nonet	97	97	421	7	0	0	335560	692	0	correct_rejection	NA	0
27	Nonet	98	98	422	9	0	0	336269	692	0	correct_rejection	NA	0
27	Nonet	99	99	423	8	0	0	336977	692	0	correct_rejection	NA	0
27	Nonet	100	100	424	7	0	0	337686	692	0	correct_rejection	NA	0
27	Nonet	101	101	425	7	0	0	338395	691	0	correct_rejection	NA	0
27	Nonet	102	102	426	0	1	1	339103	692	1	hit	313	0
27	Nonet	103	103	427	8	0	0	339812	691	0	correct_rejection	NA	0
27	Nonet	104	104	428	9	0	0	340520	692	0	correct_rejection	NA	0
27	Nonet	105	105	429	7	0	0	341229	692	0	correct_rejection	NA	0
27	Nonet	106	106	430	8	0	0	341937	692	0	correct_rejection	NA	0
27	Nonet	107	107	431	9	0	0	342646	692	0	correct_rejection	NA	0
27	Nonet	108	108	432	7	0	0	343355	691	0	correct_rejection	NA	0
27	Nonet	109	109	433	8	0	0	344063	692	0	correct_rejection	NA	0
27	Nonet	110	110	434	9	0	0	344772	691	0	correct_rejection	NA	0
27	Nonet	111	111	435	6	0	0	345480	692	0	correct_rejection	NA	0
27	Nonet	112	112	436	5	0	0	346189	692	0	correct_rejection	NA	0
27	Nonet	113	113	437	0	1	1	346897	692	1	hit	330	0
27	Nonet	114	114	438	4	0	0	347606	692	0	correct_rejection	NA	0
27	Nonet	115	115	439	6	0	0	348315	691	0	correct_rejection	NA	0
27	Nonet	116	116	440	5	0	0	349023	692	0	correct_rejection	NA	0
27	Nonet	117	117	441	4	0	0	349732	691	0	correct_rejection	NA	0
27	Nonet	118	118	442	0	1	2	350440	692	1	hit	302	0
27	Nonet	119	119	443	6	0	0	351149	692	0	correct_rejection	NA	0
27	Nonet	120	120	444	5	0	0	351857	692	0	correct_rejection	NA	0
27	Nonet	121	121	445	4	0	0	352566	692	0	correct_rejection	NA	0
27	Nonet	122	122	446	4	0	0	353275	691	0	correct_rejection	NA	0
27	Nonet	123	123	447	5	0	0	353983	692	0	correct_rejection	NA	0
27	Nonet	124	124	448	6	0	0	354692	691	0	correct_rejection	NA	0
27	Nonet	125	125	449	4	0	0	355400	692	0	correct_rejection	NA	0
27	Nonet	126	126	450	5	0	0	356109	692	0	correct_rejection	NA	0
27	Nonet	127	127	451	0	1	1	356817	692	1	hit	330	0
27	Nonet	128	128	452	6	0	0	357526	692	0	correct_rejection	NA	0
27	Nonet	129	129	453	4	0	0	358234	692	0	correct_rejection	NA	0
27	Nonet	130	130	454	0	1	1	358943	692	1	hit	316	0
27	Nonet	131	131	455	5	0	0	359652	691	0	correct_rejection	NA	0
27	Nonet	132	132	456	6	0	0	360360	692	0	correct_rejection	NA	0
27	Nonet	133	133	457	6	0	0	361069	691	0	correct_rejection	NA	0
27	Nonet	134	134	458	5	0	0	361777	692	0	correct_rejection	NA	0
27	Nonet	135	135	459	4	0	0	362486	692	0	correct_rejection	NA	0
27	Nonet	136	136	460	6	0	0	363194	692	0	correct_rejection	NA	0
27	Nonet	137	137	461	5	0	0	363903	692	0	correct_rejection	NA	0
27	Nonet	138	138	462	4	0	0	364612	691	0	correct_rejection	NA	0
27	Nonet	139	139	463	6	0	0	365320	692	0	correct_rejection	NA	0
27	Nonet	140	140	464	5	0	0	366029	691	0	correct_rejection	NA	0
27	Nonet	141	141	465	4	0	0	366737	692	0	correct_rejection	NA	0
27	Nonet	142	142	466	7	0	0	367446	692	0	correct_rejection	NA	0
27	Nonet	143	143	467	8	0	0	368154	692	0	correct_rejection	NA	0
27	Nonet	144	144	468	0	1	1	368863	692	1	hit	334	0
27	Nonet	145	145	469	9	0	0	369572	691	0	correct_rejection	NA	0
27	Nonet	146	146	470	7	0	0	370280	692	0	correct_rejection	NA	0
27	Nonet	147	147	471	8	0	0	370989	691	0	correct_rejection	NA	0
27	Nonet	148	148	472	9	0	0	371697	692	0	correct_rejection	NA	0
27	Nonet	149	149	473	0	1	2	372406	692	1	hit	313	0
27	Nonet	150	150	474	7	0	0	373114	692	0	correct_rejection	NA	0
27	Nonet	151	151	475	8	0	0	373823	692	0	correct_rejection	NA	0
27	Nonet	152	152	476	9	0	0	374532	691	0	correct_rejection	NA	0
27	Nonet	153	153	477	7	0	0	375240	692	0	correct_rejection	NA	0
27	Nonet	154	154	478	8	0	0	375949	691	0	correct_rejection	NA	0
27	Nonet	155	155	479	9	0	0	376657	692	0	correct_rejection	NA	0
27	Nonet	156	156	480	7	0	0	377366	691	0	correct_rejection	NA	0
27	Nonet	157	157	481	8	0	0	378074	692	0	correct_rejection	NA	0
27	Nonet	158	158	482	9	0	0	378783	692	0	correct_rejection	NA	0
27	Nonet	159	159	483	0	1	2	379492	691	1	hit	315	0
27	Nonet	160	160	484	7	0	0	380200	692	0	correct_rejection	NA	0
27	Nonet	161	161	485	8	0	0	380909	691	0	correct_rejection	NA	0
27	Nonet	162	162	486	9	0	0	381617	692	0	correct_rejection	NA	0
27	Triplet	1	1	487	9	0	0	391937	692	0	correct_rejection	NA	7828
27	Triplet	2	2	488	8	0	0	392646	692	0	correct_rejection	NA	0
27	Triplet	3	3	489	7	0	0	393354	692	0	correct_rejection	NA	0
27	Triplet	4	4	490	6	0	0	394063	692	0	correct_rejection	NA	0
27	Triplet	5	5	491	5	0	0	394772	691	0	correct_rejection	NA	0
27	Triplet	6	6	492	4	0	0	395480	692	0	correct_rejection	NA	0
27	Triplet	7	7	493	7	0	0	396189	691	0	correct_rejection	NA	0
27	Triplet	8	8	494	8	0	0	396897	692	0	correct_rejection	NA	0
27	Triplet	9	9	495	9	0	0	397606	692	0	correct_rejection	NA	0
27	Triplet	10	10	496	7	0	0	398314	692	0	correct_rejection	NA	0
27	Triplet	11	11	497	8	0	0	399023	692	0	correct_rejection	NA	0
27	Triplet	12	12	498	9	0	0	399732	691	0	correct_rejection	NA	0
27	Triplet	13	13	499	0	1	2	400440	692	1	hit	323	0
27	Triplet	14	14	500	4	0	0	401149	691	0	correct_rejection	NA	0
27	Triplet	15	15	501	5	0	0	401857	692	0	correct_rejection	NA	0
27	Triplet	16	16	502	0	1	1	402566	691	1	hit	353	0
27	Triplet	17	17	503	6	0	0	403274	692	0	correct_rejection	NA	0
27	Triplet	18	18	504	6	0	0	403983	692	0	correct_rejection	NA	0
27	Triplet	19	19	505	0	1	1	404691	692	1	hit	315	0
27	Triplet	20	20	506	5	0	0	405400	692	0	correct_rejection	NA	0
27	Triplet	21	21	507	4	0	0	406109	691	0	correct_rejection	NA	0
27	Triplet	22	22	508	4	0	0	406817	692	0	correct_rejection	NA	0
27	Triplet	23	23	509	5	0	0	407526	691	0	correct_rejection	NA	0
27	Triplet	24	24	510	6	0	0	408234	692	0	correct_rejection	NA	0
27	Triplet	25	25	511	0	1	2	408943	692	1	hit	333	0
27	Triplet	26	26	512	7	0	0	409651	692	0	correct_rejection	NA	0
27	Triplet	27	27	513	8	0	0	410360	692	0	correct_rejection	NA	0
27	Triplet	28	28	514	9	0	0	411069	691	0	correct_rejection	NA	0
27	Triplet	29	29	515	9	0	0	411777	692	0	correct_rejection	NA	0
27	Triplet	30	30	516	8	0	0	412486	691	0	correct_rejection	NA	0
27	Triplet	31	31	517	7	0	0	413194	692	0	correct_rejection	NA	0
27	Triplet	32	32	518	7	0	0	413903	692	0	correct_rejection	NA	0
27	Triplet	33	33	519	8	0	0	414611	692	0	correct_rejection	NA	0
27	Triplet	34	34	520	9	0	0	415320	692	0	correct_rejection	NA	0
27	Triplet	35	35	521	6	0	0	416029	691	0	correct_rejection	NA	0
27	Triplet	36	36	522	5	0	0	416737	692	0	correct_rejection	NA	0
27	Triplet	37	37	523	4	0	0	417446	691	0	correct_rejection	NA	0
27	Triplet	38	38	524	6	0	0	418154	692	0	correct_rejection	NA	0
27	Triplet	39	39	525	5	0	0	418863	692	0	correct_rejection	NA	0
27	Triplet	40	40	526	4	0	0	419571	692	0	correct_rejection	NA	0
27	Triplet	41	41	527	9	0	0	420280	692	0	correct_rejection	NA	0
27	Triplet	42	42	528	8	0	0	420989	691	0	correct_rejection	NA	0
27	Triplet	43	43	529	7	0	0	421697	692	0	correct_rejection	NA	0
27	Triplet	44	44	530	9	0	0	422406	691	0	correct_rejection	NA	0
27	Triplet	45	45	531	8	0	0	423114	692	0	correct_rejection	NA	0
27	Triplet	46	46	532	7	0	0	423823	692	0	correct_rejection	NA	0
27	Triplet	47	47	533	0	1	2	424531	692	1	hit	353	0
27	Triplet	48	48	534	4	0	0	425240	692	0	correct_rejection	NA	0
27	Triplet	49	49	535	5	0	0	425949	691	0	correct_rejection	NA	0
27	Triplet	50	50	536	0	1	1	426657	692	0	miss	NA	0
27	Triplet	51	51	537	6	0	0	427366	691	0	correct_rejection	NA	0
27	Triplet	52	52	538	4	0	0	428074	692	0	correct_rejection	NA	0
27	Triplet	53	53	539	5	0	0	428783	691	0	correct_rejection	NA	0
27	Triplet	54	54	540	6	0	0	429491	692	0	correct_rejection	NA	0
27	Triplet	55	55	541	9	0	0	430200	692	0	correct_rejection	NA	0
27	Triplet	56	56	542	8	0	0	430908	692	0	correct_rejection	NA	0
27	Triplet	57	57	543	7	0	0	431617	692	0	correct_rejection	NA	0
27	Triplet	58	58	544	4	0	0	432326	691	0	correct_rejection	NA	0
27	Triplet	59	59	545	5	0	0	433034	692	0	correct_rejection	NA	0
27	Triplet	60	60	546	6	0	0	433743	691	0	correct_rejection	NA	0
27	Triplet	61	61	547	0	1	2	434451	692	1	hit	371	0
27	Triplet	62	62	548	6	0	0	435160	692	0	correct_rejection	NA	0
27	Triplet	63	63	549	5	0	0	435868	692	0	correct_rejection	NA	0
27	Triplet	64	64	550	0	1	1	436577	692	1	hit	301	0
27	Triplet	65	65	551	4	0	0	437286	691	0	correct_rejection	NA	0
27	Triplet	66	66	552	6	0	0	437994	692	0	correct_rejection	NA	0
27	Triplet	67	67	553	5	0	0	438703	691	0	correct_rejection	NA	0
27	Triplet	68	68	554	4	0	0	439411	692	0	correct_rejection	NA	0
27	Triplet	69	69	555	0	1	2	440120	692	1	hit	305	0
27	Triplet	70	70	556	7	0	0	440828	692	0	correct_rejection	NA	0
27	Triplet	71	71	557	8	0	0	441537	692	0	correct_rejection	NA	0
27	Triplet	72	72	558	0	1	1	442246	691	1	hit	343	0
27	Triplet	73	73	559	9	0	0	442954	692	0	correct_rejection	NA	0
27	Triplet	74	74	560	4	0	0	443663	691	0	correct_rejection	NA	0
27	Triplet	75	75	561	0	1	1	444371	692	1	hit	302	0
27	Triplet	76	76	562	5	0	0	445080	692	0	correct_rejection	NA	0
27	Triplet	77	77	563	6	0	0	445788	692	0	correct_rejection	NA	0
27	Triplet	78	78	564	9	0	0	446497	692	0	correct_rejection	NA	0
27	Triplet	79	79	565	8	0	0	447206	691	0	correct_rejection	NA	0
27	Triplet	80	80	566	7	0	0	447914	692	0	correct_rejection	NA	0
27	Triplet	81	81	567	7	0	0	448623	691	0	correct_rejection	NA	0
27	Triplet	82	82	568	8	0	0	449331	692	0	correct_rejection	NA	0
27	Triplet	83	83	569	9	0	0	450040	692	0	correct_rejection	NA	0
27	Triplet	84	84	570	0	1	2	450748	692	1	hit	331	0
27	Triplet	85	85	571	9	0	0	451457	692	0	correct_rejection	NA	0
27	Triplet	86	86	572	8	0	0	452166	691	0	correct_rejection	NA	0
27	Triplet	87	87	573	7	0	0	452874	692	0	correct_rejection	NA	0
27	Triplet	88	88	574	6	0	0	453583	691	0	correct_rejection	NA	0
27	Triplet	89	89	575	5	0	0	454291	692	0	correct_rejection	NA	0
27	Triplet	90	90	576	4	0	0	455000	691	0	correct_rejection	NA	0
27	Triplet	91	91	577	4	0	0	455708	692	0	correct_rejection	NA	0
27	Triplet	92	92	578	5	0	0	456417	692	0	correct_rejection	NA	0
27	Triplet	93	93	579	6	0	0	457125	692	0	correct_rejection	NA	0
27	Triplet	94	94	580	4	0	0	457834	692	0	correct_rejection	NA	0
27	Triplet	95	95	581	0	1	1	458543	691	1	hit	365	0
27	Triplet	96	96	582	5	0	0	459251	692	0	correct_rejection	NA	0
27	Triplet	97	97	583	6	0	0	459960	691	0	correct_rejection	NA	0
27	Triplet	98	98	584	7	0	0	460668	692	0	correct_rejection	NA	0
27	Triplet	99	99	585	8	0	0	461377	692	0	correct_rejection	NA	0
27	Triplet	100	100	586	9	0	0	462085	692	0	correct_rejection	NA	0
27	Triplet	101	101	587	7	0	0	462794	692	0	correct_rejection	NA	0
27	Triplet	102	102	588	8	0	0	463503	691	0	correct_rejection	NA	0
27	Triplet	103	103	589	9	0	0	464211	692	0	correct_rejection	NA	0
27	Triplet	104	104	590	6	0	0	464920	691	0	correct_rejection	NA	0
27	Triplet	105	105	591	5	0	0	465628	692	0	correct_rejection	NA	0
27	Triplet	106	106	592	4	0	0	466337	692	0	correct_rejection	NA	0
27	Triplet	107	107	593	9	0	0	467045	692	0	correct_rejection	NA	0
27	Triplet	108	108	594	8	0	0	467754	692	0	correct_rejection	NA	0
27	Triplet	109	109	595	0	1	1	468463	691	1	hit	335	0
27	Triplet	110	110	596	7	0	0	469171	692	0	correct_rejection	NA	0
27	Triplet	111	111	597	7	0	0	469880	691	0	correct_rejection	NA	0
27	Triplet	112	112	598	8	0	0	470588	692	0	correct_rejection	NA	0
27	Triplet	113	113	599	9	0	0	471297	692	0	correct_rejection	NA	0
27	Triplet	114	114	600	4	0	0	472005	692	0	correct_rejection	NA	0
27	Triplet	115	115	601	5	0	0	472714	692	0	correct_rejection	NA	0
27	Triplet	116	116	602	6	0	0	473423	691	0	correct_rejection	NA	0
27	Triplet	117	117	603	4	0	0	474131	692	0	correct_rejection	NA	0
27	Triplet	118	118	604	5	0	0	474840	691	0	correct_rejection	NA	0
27	Triplet	119	119	605	6	0	0	475548	692	0	correct_rejection	NA	0
27	Triplet	120	120	606	0	1	2	476257	692	1	hit	336	0
27	Triplet	121	121	607	9	0	0	476965	692	0	correct_rejection	NA	0
27	Triplet	122	122	608	8	0	0	477674	692	0	correct_rejection	NA	0
27	Triplet	123	123	609	7	0	0	478383	691	0	correct_rejection	NA	0
27	Triplet	124	124	610	4	0	0	479091	692	0	correct_rejection	NA	0
27	Triplet	125	125	611	5	0	0	479800	691	0	correct_rejection	NA	0
27	Triplet	126	126	612	6	0	0	480508	692	0	correct_rejection	NA	0
27	Triplet	127	127	613	7	0	0	481217	691	0	correct_rejection	NA	0
27	Triplet	128	128	614	8	0	0	481925	692	0	correct_rejection	NA	0
27	Triplet	129	129	615	0	1	1	482634	692	1	hit	333	0
27	Triplet	130	130	616	9	0	0	483342	692	0	correct_rejection	NA	0
27	Triplet	131	131	617	6	0	0	484051	692	0	correct_rejection	NA	0
27	Triplet	132	132	618	5	0	0	484760	691	0	correct_rejection	NA	0
27	Triplet	133	133	619	4	0	0	485468	692	0	correct_rejection	NA	0
27	Triplet	134	134	620	0	1	2	486177	691	0	miss	NA	0
27	Triplet	135	135	621	4	0	0	486885	692	0	correct_rejection	NA	0
27	Triplet	136	136	622	5	0	0	487594	692	0	correct_rejection	NA	0
27	Triplet	137	137	623	6	0	0	488302	692	0	correct_rejection	NA	0
27	Triplet	138	138	624	6	0	0	489011	692	0	correct_rejection	NA	0
27	Triplet	139	139	625	5	0	0	489720	691	0	correct_rejection	NA	0
27	Triplet	140	140	626	4	0	0	490428	692	0	correct_rejection	NA	0
27	Triplet	141	141	627	9	0	0	491137	691	0	correct_rejection	NA	0
27	Triplet	142	142	628	8	0	0	491845	692	0	correct_rejection	NA	0
27	Triplet	143	143	629	7	0	0	492554	692	0	correct_rejection	NA	0
27	Triplet	144	144	630	7	0	0	493262	692	0	correct_rejection	NA	0
27	Triplet	145	145	631	8	0	0	493971	692	0	correct_rejection	NA	0
27	Triplet	146	146	632	9	0	0	494680	691	0	correct_rejection	NA	0
27	Triplet	147	147	633	7	0	0	495388	692	0	correct_rejection	NA	0
27	Triplet	148	148	634	8	0	0	496097	691	0	correct_rejection	NA	0
27	Triplet	149	149	635	9	0	0	496805	692	0	correct_rejection	NA	0
27	Triplet	150	150	636	9	0	0	497514	692	0	correct_rejection	NA	0
27	Triplet	151	151	637	0	1	1	498222	692	1	hit	347	0
27	Triplet	152	152	638	8	0	0	498931	692	0	correct_rejection	NA	0
27	Triplet	153	153	639	7	0	0	499640	691	0	correct_rejection	NA	0
27	Triplet	154	154	640	9	0	0	500348	692	0	correct_rejection	NA	0
27	Triplet	155	155	641	8	0	0	501057	691	0	correct_rejection	NA	0
27	Triplet	156	156	642	7	0	0	501765	692	0	correct_rejection	NA	0
27	Triplet	157	157	643	6	0	0	502474	691	0	correct_rejection	NA	0
27	Triplet	158	158	644	5	0	0	503182	692	0	correct_rejection	NA	0
27	Triplet	159	159	645	4	0	0	503891	692	0	correct_rejection	NA	0
27	Triplet	160	160	646	6	0	0	504600	691	0	correct_rejection	NA	0
27	Triplet	161	161	647	5	0	0	505308	692	0	correct_rejection	NA	0
27	Triplet	162	162	648	4	0	0	506017	691	0	correct_rejection	NA	0
27	Correct	1	649	649	4	0	0	516053	692	0	correct_rejection	NA	7948
27	Correct	2	650	650	5	0	0	516762	692	0	correct_rejection	NA	0
27	Correct	3	651	651	6	0	0	517470	692	0	correct_rejection	NA	0
27	Correct	4	652	652	4	0	0	518179	692	0	correct_rejection	NA	0
27	Correct	5	653	653	5	0	0	518888	691	0	correct_rejection	NA	0
27	Correct	6	654	654	6	0	0	519596	692	0	correct_rejection	NA	0
27	Correct	7	655	655	4	0	0	520305	691	0	correct_rejection	NA	0
27	Correct	8	656	656	5	0	0	521013	692	0	correct_rejection	NA	0
27	Correct	9	657	657	6	0	0	521722	692	0	correct_rejection	NA	0
27	Correct	10	658	658	6	0	0	522430	692	0	correct_rejection	NA	0
27	Correct	11	659	659	5	0	0	523139	692	0	correct_rejection	NA	0
27	Correct	12	660	660	4	0	0	523848	691	0	correct_rejection	NA	0
27	Correct	13	661	661	6	0	0	524556	692	0	correct_rejection	NA	0
27	Correct	14	662	662	5	0	0	525265	691	0	correct_rejection	NA	0
27	Correct	15	663	663	4	0	0	525973	692	0	correct_rejection	NA	0
27	Correct	16	664	664	6	0	0	526682	691	0	correct_rejection	NA	0
27	Correct	17	665	665	5	0	0	527390	692	0	correct_rejection	NA	0
27	Correct	18	666	666	4	0	0	528099	692	0	correct_rejection	NA	0
27	Correct	19	667	667	9	0	0	528807	692	0	correct_rejection	NA	0
27	Correct	20	668	668	8	0	0	529516	692	0	correct_rejection	NA	0
27	Correct	21	669	669	7	0	0	530225	691	0	correct_rejection	NA	0
27	Correct	22	670	670	0	1	2	530933	692	1	hit	286	0
27	Correct	23	671	671	9	0	0	531642	691	0	correct_rejection	NA	0
27	Correct	24	672	672	8	0	0	532350	692	0	correct_rejection	NA	0
27	Correct	25	673	673	7	0	0	533059	692	0	correct_rejection	NA	0
27	Correct	26	674	674	9	0	0	533767	692	0	correct_rejection	NA	0
27	Correct	27	675	675	8	0	0	534476	692	0	correct_rejection	NA	0
27	Correct	28	676	676	7	0	0	535185	691	0	correct_rejection	NA	0
27	Correct	29	677	677	7	0	0	535893	692	0	correct_rejection	NA	0
27	Correct	30	678	678	8	0	0	536602	691	0	correct_rejection	NA	0
27	Correct	31	679	679	9	0	0	537310	692	0	correct_rejection	NA	0
27	Correct	32	680	680	7	0	0	538019	692	0	correct_rejection	NA	0
27	Correct	33	681	681	8	0	0	538727	692	0	correct_rejection	NA	0
27	Correct	34	682	682	9	0	0	539436	692	0	correct_rejection	NA	0
27	Correct	35	683	683	0	1	2	540145	691	1	hit	310	0
27	Correct	36	684	684	7	0	0	540853	692	0	correct_rejection	NA	0
27	Correct	37	685	685	8	0	0	541562	691	0	correct_rejection	NA	0
27	Correct	38	686	686	9	0	0	542270	692	0	correct_rejection	NA	0
27	Correct	39	687	687	0	1	4	542979	692	1	hit	419	0
27	Correct	40	688	688	4	0	0	543687	692	0	correct_rejection	NA	0
27	Correct	41	689	689	5	0	0	544396	692	0	correct_rejection	NA	0
27	Correct	42	690	690	6	0	0	545105	691	0	correct_rejection	NA	0
27	Correct	43	691	691	4	0	0	545813	692	0	correct_rejection	NA	0
27	Correct	44	692	692	0	1	1	546522	691	1	hit	365	0
27	Correct	45	693	693	5	0	0	547230	692	0	correct_rejection	NA	0
27	Correct	46	694	694	6	0	0	547939	692	0	correct_rejection	NA	0
27	Correct	47	695	695	4	0	0	548647	692	0	correct_rejection	NA	0
27	Correct	48	696	696	5	0	0	549356	692	0	correct_rejection	NA	0
27	Correct	49	697	697	6	0	0	550065	691	0	correct_rejection	NA	0
27	Correct	50	698	698	6	0	0	550773	692	0	correct_rejection	NA	0
27	Correct	51	699	699	5	0	0	551482	691	0	correct_rejection	NA	0
27	Correct	52	700	700	4	0	0	552190	692	0	correct_rejection	NA	0
27	Correct	53	701	701	6	0	0	552899	691	0	correct_rejection	NA	0
27	Correct	54	702	702	5	0	0	553607	692	0	correct_rejection	NA	0
27	Correct	55	703	703	4	0	0	554316	692	0	correct_rejection	NA	0
27	Correct	56	704	704	6	0	0	555024	692	0	correct_rejection	NA	0
27	Correct	57	705	705	5	0	0	555733	692	0	correct_rejection	NA	0
27	Correct	58	706	706	0	1	1	556442	691	1	hit	365	0
27	Correct	59	707	707	4	0	0	557150	692	0	correct_rejection	NA	0
27	Correct	60	708	708	9	0	0	557859	691	0	correct_rejection	NA	0
27	Correct	61	709	709	8	0	0	558567	692	0	correct_rejection	NA	0
27	Correct	62	710	710	7	0	0	559276	692	0	correct_rejection	NA	0
27	Correct	63	711	711	9	0	0	559984	692	0	correct_rejection	NA	0
27	Correct	64	712	712	0	1	1	560693	692	1	hit	338	0
27	Correct	65	713	713	8	0	0	561402	691	0	correct_rejection	NA	0
27	Correct	66	714	714	7	0	0	562110	692	0	correct_rejection	NA	0
27	Correct	67	715	715	9	0	0	562819	691	0	correct_rejection	NA	0
27	Correct	68	716	716	8	0	0	563527	692	0	correct_rejection	NA	0
27	Correct	69	717	717	7	0	0	564236	692	0	correct_rejection	NA	0
27	Correct	70	718	718	7	0	0	564944	692	0	correct_rejection	NA	0
27	Correct	71	719	719	8	0	0	565653	692	0	correct_rejection	NA	0
27	Correct	72	720	720	9	0	0	566362	691	0	correct_rejection	NA	0
27	Correct	73	721	721	7	0	0	567070	692	0	correct_rejection	NA	0
27	Correct	74	722	722	8	0	0	567779	691	0	correct_rejection	NA	0
27	Correct	75	723	723	9	0	0	568487	692	0	correct_rejection	NA	0
27	Correct	76	724	724	7	0	0	569196	692	0	correct_rejection	NA	0
27	Correct	77	725	725	0	1	1	569904	692	1	hit	342	0
27	Correct	78	726	726	8	0	0	570613	692	0	correct_rejection	NA	0
27	Correct	79	727	727	9	0	0	571322	691	0	correct_rejection	NA	0
27	Correct	80	728	728	4	0	0	572030	692	0	correct_rejection	NA	0
27	Correct	81	729	729	5	0	0	572739	691	0	correct_rejection	NA	0
27	Correct	82	730	730	6	0	0	573447	692	0	correct_rejection	NA	0
27	Correct	83	731	731	4	0	0	574156	692	0	correct_rejection	NA	0
27	Correct	84	732	732	5	0	0	574864	692	0	correct_rejection	NA	0
27	Correct	85	733	733	6	0	0	575573	692	0	correct_rejection	NA	0
27	Correct	86	734	734	4	0	0	576282	691	0	correct_rejection	NA	0
27	Correct	87	735	735	5	0	0	576990	692	0	correct_rejection	NA	0
27	Correct	88	736	736	6	0	0	577699	691	0	correct_rejection	NA	0
27	Correct	89	737	737	6	0	0	578407	692	0	correct_rejection	NA	0
27	Correct	90	738	738	5	0	0	579116	691	0	correct_rejection	NA	0
27	Correct	91	739	739	4	0	0	579824	692	0	correct_rejection	NA	0
27	Correct	92	740	740	6	0	0	580533	692	0	correct_rejection	NA	0
27	Correct	93	741	741	0	1	1	581241	692	0	miss	NA	0
27	Correct	94	742	742	5	0	0	581950	692	0	correct_rejection	NA	0
27	Correct	95	743	743	4	0	0	582659	691	0	correct_rejection	NA	0
27	Correct	96	744	744	6	0	0	583367	692	0	correct_rejection	NA	0
27	Correct	97	745	745	5	0	0	584076	691	0	correct_rejection	NA	0
27	Correct	98	746	746	4	0	0	584784	692	0	correct_rejection	NA	0
27	Correct	99	747	747	0	1	3	585493	692	1	hit	354	0
27	Correct	100	748	748	9	0	0	586201	692	0	correct_rejection	NA	0
27	Correct	101	749	749	8	0	0	586910	692	0	correct_rejection	NA	0
27	Correct	102	750	750	7	0	0	587619	691	0	correct_rejection	NA	0
27	Correct	103	751	751	9	0	0	588327	692	0	correct_rejection	NA	0
27	Correct	104	752	752	8	0	0	589036	691	0	correct_rejection	NA	0
27	Correct	105	753	753	7	0	0	589744	692	0	correct_rejection	NA	0
27	Correct	106	754	754	9	0	0	590453	692	0	correct_rejection	NA	0
27	Correct	107	755	755	8	0	0	591161	692	0	correct_rejection	NA	0
27	Correct	108	756	756	7	0	0	591870	692	0	correct_rejection	NA	0
27	Correct	109	757	757	0	1	3	592579	691	1	hit	346	0
27	Correct	110	758	758	7	0	0	593287	692	0	correct_rejection	NA	0
27	Correct	111	759	759	8	0	0	593996	691	0	correct_rejection	NA	0
27	Correct	112	760	760	9	0	0	594704	692	0	correct_rejection	NA	0
27	Correct	113	761	761	0	1	2	595413	692	1	hit	368	0
27	Correct	114	762	762	7	0	0	596121	692	0	correct_rejection	NA	0
27	Correct	115	763	763	8	0	0	596830	692	0	correct_rejection	NA	0
27	Correct	116	764	764	9	0	0	597539	691	0	correct_rejection	NA	0
27	Correct	117	765	765	7	0	0	598247	692	0	correct_rejection	NA	0
27	Correct	118	766	766	8	0	0	598956	691	0	correct_rejection	NA	0
27	Correct	119	767	767	9	0	0	599664	692	0	correct_rejection	NA	0
27	Correct	120	768	768	4	0	0	600373	692	0	correct_rejection	NA	0
27	Correct	121	769	769	0	1	1	601081	692	1	hit	453	0
27	Correct	122	770	770	5	0	0	601790	692	0	correct_rejection	NA	0
27	Correct	123	771	771	6	0	0	602499	691	0	correct_rejection	NA	0
27	Correct	124	772	772	4	0	0	603207	692	0	correct_rejection	NA	0
27	Correct	125	773	773	5	0	0	603916	691	0	correct_rejection	NA	0
27	Correct	126	774	774	0	1	1	604624	692	1	hit	351	0
27	Correct	127	775	775	6	0	0	605333	691	0	correct_rejection	NA	0
27	Correct	128	776	776	4	0	0	606041	692	0	correct_rejection	NA	0
27	Correct	129	777	777	5	0	0	606750	692	0	correct_rejection	NA	0
27	Correct	130	778	778	6	0	0	607458	692	0	correct_rejection	NA	0
27	Correct	131	779	779	6	0	0	608167	692	0	correct_rejection	NA	0
27	Correct	132	780	780	5	0	0	608876	691	0	correct_rejection	NA	0
27	Correct	133	781	781	0	1	1	609584	692	1	hit	321	0
27	Correct	134	782	782	4	0	0	610293	691	0	correct_rejection	NA	0
27	Correct	135	783	783	6	0	0	611001	692	0	correct_rejection	NA	0
27	Correct	136	784	784	0	1	1	611710	692	1	hit	480	0
27	Correct	137	785	785	5	0	0	612418	692	0	correct_rejection	NA	0
27	Correct	138	786	786	4	0	0	613127	692	0	correct_rejection	NA	0
27	Correct	139	787	787	6	0	0	613836	691	0	correct_rejection	NA	0
27	Correct	140	788	788	5	0	0	614544	692	0	correct_rejection	NA	0
27	Correct	141	789	789	4	0	0	615253	691	0	correct_rejection	NA	0
27	Correct	142	790	790	9	0	0	615961	692	0	correct_rejection	NA	0
27	Correct	143	791	791	8	0	0	616670	692	0	correct_rejection	NA	0
27	Correct	144	792	792	0	1	1	617378	692	1	hit	323	0
27	Correct	145	793	793	7	0	0	618087	692	0	correct_rejection	NA	0
27	Correct	146	794	794	9	0	0	618796	691	0	correct_rejection	NA	0
27	Correct	147	795	795	8	0	0	619504	692	0	correct_rejection	NA	0
27	Correct	148	796	796	7	0	0	620213	691	0	correct_rejection	NA	0
27	Correct	149	797	797	9	0	0	620921	692	0	correct_rejection	NA	0
27	Correct	150	798	798	8	0	0	621630	692	0	correct_rejection	NA	0
27	Correct	151	799	799	7	0	0	622338	692	0	correct_rejection	NA	0
27	Correct	152	800	800	7	0	0	623047	692	0	correct_rejection	NA	0
27	Correct	153	801	801	8	0	0	623756	691	0	correct_rejection	NA	0
27	Correct	154	802	802	9	0	0	624464	692	0	correct_rejection	NA	0
27	Correct	155	803	803	7	0	0	625173	691	0	correct_rejection	NA	0
27	Correct	156	804	804	8	0	0	625881	692	0	correct_rejection	NA	0
27	Correct	157	805	805	0	1	1	626590	692	1	hit	335	0
27	Correct	158	806	806	9	0	0	627298	692	0	correct_rejection	NA	0
27	Correct	159	807	807	7	0	0	628007	692	0	correct_rejection	NA	0
27	Correct	160	808	808	8	0	0	628716	691	0	correct_rejection	NA	0
27	Correct	161	809	809	0	1	1	629424	692	1	hit	389	0
27	Correct	162	810	810	9	0	0	630133	691	0	correct_rejection	NA	0
trigger nr 622 at 632063
trigger nr 626 at 711969
27	Triplet	1	325	811	6	0	0	718387	692	0	correct_rejection	NA	6379
27	Triplet	2	326	812	5	0	0	719095	692	0	correct_rejection	NA	0
27	Triplet	3	327	813	4	0	0	719804	692	0	correct_rejection	NA	0
27	Triplet	4	328	814	6	0	0	720513	691	0	correct_rejection	NA	0
27	Triplet	5	329	815	5	0	0	721221	692	0	correct_rejection	NA	0
27	Triplet	6	330	816	4	0	0	721930	691	0	correct_rejection	NA	0
27	Triplet	7	331	817	9	0	0	722638	692	0	correct_rejection	NA	0
27	Triplet	8	332	818	8	0	0	723347	691	0	correct_rejection	NA	0
27	Triplet	9	333	819	7	0	0	724055	692	0	correct_rejection	NA	0
27	Triplet	10	334	820	9	0	0	724764	692	0	correct_rejection	NA	0
27	Triplet	11	335	821	8	0	0	725472	692	0	correct_rejection	NA	0
27	Triplet	12	336	822	7	0	0	726181	692	0	correct_rejection	NA	0
27	Triplet	13	337	823	7	0	0	726890	691	0	correct_rejection	NA	0
27	Triplet	14	338	824	0	1	1	727598	692	1	hit	328	0
27	Triplet	15	339	825	8	0	0	728307	691	0	correct_rejection	NA	0
27	Triplet	16	340	826	9	0	0	729015	692	0	correct_rejection	NA	0
27	Triplet	17	341	827	9	0	0	729724	692	0	correct_rejection	NA	0
27	Triplet	18	342	828	8	0	0	730432	692	0	correct_rejection	NA	0
27	Triplet	19	343	829	7	0	0	731141	692	0	correct_rejection	NA	0
27	Triplet	20	344	830	6	0	0	731850	691	0	correct_rejection	NA	0
27	Triplet	21	345	831	5	0	0	732558	692	0	correct_rejection	NA	0
27	Triplet	22	346	832	4	0	0	733267	691	0	correct_rejection	NA	0
27	Triplet	23	347	833	7	0	0	733975	692	0	correct_rejection	NA	0
27	Triplet	24	348	834	8	0	0	734684	692	0	correct_rejection	NA	0
27	Triplet	25	349	835	9	0	0	735392	692	0	correct_rejection	NA	0
27	Triplet	26	350	836	4	0	0	736101	692	0	correct_rejection	NA	0
27	Triplet	27	351	837	5	0	0	736810	691	0	correct_rejection	NA	0
27	Triplet	28	352	838	6	0	0	737518	692	0	correct_rejection	NA	0
27	Triplet	29	353	839	6	0	0	738227	691	0	correct_rejection	NA	0
27	Triplet	30	354	840	0	1	1	738935	692	1	hit	390	0
27	Triplet	31	355	841	5	0	0	739644	692	0	correct_rejection	NA	0
27	Triplet	32	356	842	4	0	0	740352	692	0	correct_rejection	NA	0
27	Triplet	33	357	843	4	0	0	741061	692	0	correct_rejection	NA	0
27	Triplet	34	358	844	5	0	0	741770	691	0	correct_rejection	NA	0
27	Triplet	35	359	845	6	0	0	742478	692	0	correct_rejection	NA	0
27	Triplet	36	360	846	9	0	0	743187	691	0	correct_rejection	NA	0
27	Triplet	37	361	847	8	0	0	743895	692	0	correct_rejection	NA	0
27	Triplet	38	362	848	7	0	0	744604	691	0	correct_rejection	NA	0
27	Triplet	39	363	849	4	0	0	745312	692	0	correct_rejection	NA	0
27	Triplet	40	364	850	5	0	0	746021	692	0	correct_rejection	NA	0
27	Triplet	41	365	851	6	0	0	746730	691	0	correct_rejection	NA	0
27	Triplet	42	366	852	4	0	0	747438	692	0	correct_rejection	NA	0
27	Triplet	43	367	853	0	1	1	748147	691	1	hit	326	0
27	Triplet	44	368	854	5	0	0	748855	692	0	correct_rejection	NA	0
27	Triplet	45	369	855	6	0	0	749564	691	0	correct_rejection	NA	0
27	Triplet	46	370	856	7	0	0	750272	692	0	correct_rejection	NA	0
27	Triplet	47	371	857	8	0	0	750981	692	0	correct_rejection	NA	0
27	Triplet	48	372	858	9	0	0	751689	692	0	correct_rejection	NA	0
27	Triplet	49	373	859	7	0	0	752398	692	0	correct_rejection	NA	0
27	Triplet	50	374	860	8	0	0	753107	691	0	correct_rejection	NA	0
27	Triplet	51	375	861	9	0	0	753815	692	0	correct_rejection	NA	0
27	Triplet	52	376	862	0	1	2	754524	691	1	hit	365	0
27	Triplet	53	377	863	6	0	0	755232	692	0	correct_rejection	NA	0
27	Triplet	54	378	864	5	0	0	755941	692	0	correct_rejection	NA	0
27	Triplet	55	379	865	4	0	0	756649	692	0	correct_rejection	NA	0
27	Triplet	56	380	866	0	1	2	757358	692	1	hit	346	0
27	Triplet	57	381	867	7	0	0	758067	691	0	correct_rejection	NA	0
27	Triplet	58	382	868	8	0	0	758775	692	0	correct_rejection	NA	0
27	Triplet	59	383	869	9	0	0	759484	691	0	correct_rejection	NA	0
27	Triplet	60	384	870	9	0	0	760192	692	0	correct_rejection	NA	0
27	Triplet	61	385	871	8	0	0	760901	692	0	correct_rejection	NA	0
27	Triplet	62	386	872	7	0	0	761609	692	0	correct_rejection	NA	0
27	Triplet	63	387	873	4	0	0	762318	692	0	correct_rejection	NA	0
27	Triplet	64	388	874	5	0	0	763027	691	0	correct_rejection	NA	0
27	Triplet	65	389	875	6	0	0	763735	692	0	correct_rejection	NA	0
27	Triplet	66	390	876	7	0	0	764444	691	0	correct_rejection	NA	0
27	Triplet	67	391	877	8	0	0	765152	692	0	correct_rejection	NA	0
27	Triplet	68	392	878	0	1	1	765861	692	1	hit	320	0
27	Triplet	69	393	879	9	0	0	766569	692	0	correct_rejection	NA	0
27	Triplet	70	394	880	4	0	0	767278	692	0	correct_rejection	NA	0
27	Triplet	71	395	881	5	0	0	767987	691	0	correct_rejection	NA	0
27	Triplet	72	396	882	0	1	1	768695	692	1	hit	336	0
27	Triplet	73	397	883	6	0	0	769404	691	0	correct_rejection	NA	0
27	Triplet	74	398	884	4	0	0	770112	692	0	correct_rejection	NA	0
27	Triplet	75	399	885	0	1	1	770821	691	1	hit	370	0
27	Triplet	76	400	886	5	0	0	771529	692	0	correct_rejection	NA	0
27	Triplet	77	401	887	6	0	0	772238	692	0	correct_rejection	NA	0
27	Triplet	78	402	888	9	0	0	772946	692	0	correct_rejection	NA	0
27	Triplet	79	403	889	0	1	1	773655	692	1	hit	347	0
27	Triplet	80	404	890	8	0	0	774364	691	0	correct_rejection	NA	0
27	Triplet	81	405	891	7	0	0	775072	692	0	correct_rejection	NA	0
27	Triplet	82	406	892	9	0	0	775781	691	0	correct_rejection	NA	0
27	Triplet	83	407	893	8	0	0	776489	692	0	correct_rejection	NA	0
27	Triplet	84	408	894	7	0	0	777198	692	0	correct_rejection	NA	0
27	Triplet	85	409	895	6	0	0	777906	692	0	correct_rejection	NA	0
27	Triplet	86	410	896	5	0	0	778615	692	0	correct_rejection	NA	0
27	Triplet	87	411	897	4	0	0	779324	691	0	correct_rejection	NA	0
27	Triplet	88	412	898	4	0	0	780032	692	0	correct_rejection	NA	0
27	Triplet	89	413	899	5	0	0	780741	691	0	correct_rejection	NA	0
27	Triplet	90	414	900	6	0	0	781449	692	0	correct_rejection	NA	0
27	Triplet	91	415	901	6	0	0	782158	692	0	correct_rejection	NA	0
27	Triplet	92	416	902	5	0	0	782866	692	0	correct_rejection	NA	0
27	Triplet	93	417	903	4	0	0	783575	692	0	correct_rejection	NA	0
27	Triplet	94	418	904	9	0	0	784284	691	0	correct_rejection	NA	0
27	Triplet	95	419	905	8	0	0	784992	692	0	correct_rejection	NA	0
27	Triplet	96	420	906	7	0	0	785701	691	0	correct_rejection	NA	0
27	Triplet	97	421	907	0	1	2	786409	692	1	hit	319	0
27	Triplet	98	422	908	7	0	0	787118	692	0	correct_rejection	NA	0
27	Triplet	99	423	909	8	0	0	787826	692	0	correct_rejection	NA	0
27	Triplet	100	424	910	9	0	0	788535	692	0	correct_rejection	NA	0
27	Triplet	101	425	911	7	0	0	789244	691	0	correct_rejection	NA	0
27	Triplet	102	426	912	8	0	0	789952	692	0	correct_rejection	NA	0
27	Triplet	103	427	913	9	0	0	790661	691	0	correct_rejection	NA	0
27	Triplet	104	428	914	6	0	0	791369	692	0	correct_rejection	NA	0
27	Triplet	105	429	915	5	0	0	792078	692	0	correct_rejection	NA	0
27	Triplet	106	430	916	4	0	0	792786	692	0	correct_rejection	NA	0
27	Triplet	107	431	917	0	1	2	793495	692	1	hit	325	0
27	Triplet	108	432	918	6	0	0	794204	691	0	correct_rejection	NA	0
27	Triplet	109	433	919	5	0	0	794912	692	0	correct_rejection	NA	0
27	Triplet	110	434	920	0	1	1	795621	691	1	hit	376	0
27	Triplet	111	435	921	4	0	0	796329	692	0	correct_rejection	NA	0
27	Triplet	112	436	922	9	0	0	797038	691	0	correct_rejection	NA	0
27	Triplet	113	437	923	8	0	0	797746	692	0	correct_rejection	NA	0
27	Triplet	114	438	924	7	0	0	798455	692	0	correct_rejection	NA	0
27	Triplet	115	439	925	4	0	0	799163	692	0	correct_rejection	NA	0
27	Triplet	116	440	926	5	0	0	799872	692	0	correct_rejection	NA	0
27	Triplet	117	441	927	6	0	0	800581	691	0	correct_rejection	NA	0
27	Triplet	118	442	928	9	0	0	801289	692	0	correct_rejection	NA	0
27	Triplet	119	443	929	8	0	0	801998	691	0	correct_rejection	NA	0
27	Triplet	120	444	930	7	0	0	802706	692	0	correct_rejection	NA	0
27	Triplet	121	445	931	7	0	0	803415	692	0	correct_rejection	NA	0
27	Triplet	122	446	932	8	0	0	804123	692	0	correct_rejection	NA	0
27	Triplet	123	447	933	9	0	0	804832	692	0	correct_rejection	NA	0
27	Triplet	124	448	934	6	0	0	805541	691	0	correct_rejection	NA	0
27	Triplet	125	449	935	5	0	0	806249	692	0	correct_rejection	NA	0
27	Triplet	126	450	936	4	0	0	806958	691	0	correct_rejection	NA	0
27	Triplet	127	451	937	4	0	0	807666	692	0	correct_rejection	NA	0
27	Triplet	128	452	938	0	1	1	808375	692	1	hit	347	0
27	Triplet	129	453	939	5	0	0	809083	692	0	correct_rejection	NA	0
27	Triplet	130	454	940	6	0	0	809792	692	0	correct_rejection	NA	0
27	Triplet	131	455	941	0	1	2	810501	691	1	hit	515	0
27	Triplet	132	456	942	4	0	0	811209	692	0	correct_rejection	NA	0
27	Triplet	133	457	943	5	0	0	811918	691	0	correct_rejection	NA	0
27	Triplet	134	458	944	6	0	0	812626	692	0	correct_rejection	NA	0
27	Triplet	135	459	945	6	0	0	813335	692	0	correct_rejection	NA	0
27	Triplet	136	460	946	5	0	0	814043	692	0	correct_rejection	NA	0
27	Triplet	137	461	947	4	0	0	814752	692	0	correct_rejection	NA	0
27	Triplet	138	462	948	6	0	0	815461	691	0	correct_rejection	NA	0
27	Triplet	139	463	949	5	0	0	816169	692	0	correct_rejection	NA	0
27	Triplet	140	464	950	0	1	1	816878	691	1	hit	304	0
27	Triplet	141	465	951	4	0	0	817586	692	0	correct_rejection	NA	0
27	Triplet	142	466	952	7	0	0	818295	692	0	correct_rejection	NA	0
27	Triplet	143	467	953	8	0	0	819003	692	0	correct_rejection	NA	0
27	Triplet	144	468	954	9	0	0	819712	692	0	correct_rejection	NA	0
27	Triplet	145	469	955	7	0	0	820421	691	0	correct_rejection	NA	0
27	Triplet	146	470	956	8	0	0	821129	692	0	correct_rejection	NA	0
27	Triplet	147	471	957	9	0	0	821838	691	0	correct_rejection	NA	0
27	Triplet	148	472	958	4	0	0	822546	692	0	correct_rejection	NA	0
27	Triplet	149	473	959	5	0	0	823255	691	0	correct_rejection	NA	0
27	Triplet	150	474	960	6	0	0	823963	692	0	correct_rejection	NA	0
27	Triplet	151	475	961	0	1	2	824672	692	1	hit	337	0
27	Triplet	152	476	962	7	0	0	825380	692	0	correct_rejection	NA	0
27	Triplet	153	477	963	8	0	0	826089	692	0	correct_rejection	NA	0
27	Triplet	154	478	964	0	1	1	826798	691	1	hit	341	0
27	Triplet	155	479	965	9	0	0	827506	692	0	correct_rejection	NA	0
27	Triplet	156	480	966	9	0	0	828215	691	0	correct_rejection	NA	0
27	Triplet	157	481	967	8	0	0	828923	692	0	correct_rejection	NA	0
27	Triplet	158	482	968	7	0	0	829632	692	0	correct_rejection	NA	0
27	Triplet	159	483	969	9	0	0	830340	692	0	correct_rejection	NA	0
27	Triplet	160	484	970	0	1	1	831049	692	1	hit	328	0
27	Triplet	161	485	971	8	0	0	831758	691	0	correct_rejection	NA	0
27	Triplet	162	486	972	7	0	0	832466	692	0	correct_rejection	NA	0
27	Single	1	163	973	8	0	0	842003	691	0	correct_rejection	NA	6999
27	Single	2	164	974	6	0	0	842711	692	0	correct_rejection	NA	0
27	Single	3	165	975	7	0	0	843420	691	0	correct_rejection	NA	0
27	Single	4	166	976	5	0	0	844128	692	0	correct_rejection	NA	0
27	Single	5	167	977	0	1	1	844837	692	1	hit	342	0
27	Single	6	168	978	5	0	0	845545	692	0	correct_rejection	NA	0
27	Single	7	169	979	7	0	0	846254	692	0	correct_rejection	NA	0
27	Single	8	170	980	6	0	0	846963	691	0	correct_rejection	NA	0
27	Single	9	171	981	0	1	1	847671	692	1	hit	285	0
27	Single	10	172	982	8	0	0	848380	691	0	correct_rejection	NA	0
27	Single	11	173	983	7	0	0	849088	692	0	correct_rejection	NA	0
27	Single	12	174	984	7	0	0	849797	692	0	correct_rejection	NA	0
27	Single	13	175	985	8	0	0	850505	692	0	correct_rejection	NA	0
27	Single	14	176	986	8	0	0	851214	692	0	correct_rejection	NA	0
27	Single	15	177	987	4	0	0	851923	691	0	correct_rejection	NA	0
27	Single	16	178	988	7	0	0	852631	692	0	correct_rejection	NA	0
27	Single	17	179	989	0	1	1	853340	691	1	hit	341	0
27	Single	18	180	990	9	0	0	854048	692	0	correct_rejection	NA	0
27	Single	19	181	991	6	0	0	854757	692	0	correct_rejection	NA	0
27	Single	20	182	992	5	0	0	855465	692	0	correct_rejection	NA	0
27	Single	21	183	993	9	0	0	856174	692	0	correct_rejection	NA	0
27	Single	22	184	994	7	0	0	856883	691	0	correct_rejection	NA	0
27	Single	23	185	995	4	0	0	857591	692	0	correct_rejection	NA	0
27	Single	24	186	996	4	0	0	858300	691	0	correct_rejection	NA	0
27	Single	25	187	997	0	1	1	859008	692	1	hit	340	0
27	Single	26	188	998	6	0	0	859717	692	0	correct_rejection	NA	0
27	Single	27	189	999	9	0	0	860425	692	0	correct_rejection	NA	0
27	Single	28	190	1000	9	0	0	861134	692	0	correct_rejection	NA	0
27	Single	29	191	1001	5	0	0	861843	691	0	correct_rejection	NA	0
27	Single	30	192	1002	6	0	0	862551	692	0	correct_rejection	NA	0
27	Single	31	193	1003	6	0	0	863260	691	0	correct_rejection	NA	0
27	Single	32	194	1004	0	1	1	863968	692	1	hit	391	0
27	Single	33	195	1005	4	0	0	864677	691	0	correct_rejection	NA	0
27	Single	34	196	1006	8	0	0	865385	692	0	correct_rejection	NA	0
27	Single	35	197	1007	5	0	0	866094	692	0	correct_rejection	NA	0
27	Single	36	198	1008	4	0	0	866803	691	0	correct_rejection	NA	0
27	Single	37	199	1009	9	0	0	867511	692	0	correct_rejection	NA	0
27	Single	38	200	1010	4	0	0	868220	691	0	correct_rejection	NA	0
27	Single	39	201	1011	5	0	0	868928	692	0	correct_rejection	NA	0
27	Single	40	202	1012	8	0	0	869637	691	0	correct_rejection	NA	0
27	Single	41	203	1013	9	0	0	870345	692	0	correct_rejection	NA	0
27	Single	42	204	1014	9	0	0	871054	692	0	correct_rejection	NA	0
27	Single	43	205	1015	7	0	0	871762	692	0	correct_rejection	NA	0
27	Single	44	206	1016	6	0	0	872471	692	0	correct_rejection	NA	0
27	Single	45	207	1017	9	0	0	873180	691	0	correct_rejection	NA	0
27	Single	46	208	1018	6	0	0	873888	692	0	correct_rejection	NA	0
27	Single	47	209	1019	8	0	0	874597	691	0	correct_rejection	NA	0
27	Single	48	210	1020	0	1	1	875305	692	0	miss	NA	0
27	Single	49	211	1021	4	0	0	876014	692	0	correct_rejection	NA	0
27	Single	50	212	1022	8	0	0	876722	692	0	correct_rejection	NA	0
27	Single	51	213	1023	8	0	0	877431	692	0	correct_rejection	NA	0
27	Single	52	214	1024	0	1	1	878140	691	1	hit	464	0
27	Single	53	215	1025	5	0	0	878848	692	0	correct_rejection	NA	0
27	Single	54	216	1026	7	0	0	879557	691	0	correct_rejection	NA	0
27	Single	55	217	1027	7	0	0	880265	692	0	correct_rejection	NA	0
27	Single	56	218	1028	5	0	0	880974	692	0	correct_rejection	NA	0
27	Single	57	219	1029	6	0	0	881682	692	0	correct_rejection	NA	0
27	Single	58	220	1030	4	0	0	882391	692	0	correct_rejection	NA	0
27	Single	59	221	1031	7	0	0	883100	691	0	correct_rejection	NA	0
27	Single	60	222	1032	0	1	1	883808	692	1	hit	312	0
27	Single	61	223	1033	4	0	0	884517	691	0	correct_rejection	NA	0
27	Single	62	224	1034	6	0	0	885225	692	0	correct_rejection	NA	0
27	Single	63	225	1035	5	0	0	885934	692	0	correct_rejection	NA	0
27	Single	64	226	1036	5	0	0	886642	692	0	correct_rejection	NA	0
27	Single	65	227	1037	8	0	0	887351	692	0	correct_rejection	NA	0
27	Single	66	228	1038	0	1	1	888060	691	1	hit	328	0
27	Single	67	229	1039	7	0	0	888768	692	0	correct_rejection	NA	0
27	Single	68	230	1040	8	0	0	889477	691	0	correct_rejection	NA	0
27	Single	69	231	1041	9	0	0	890185	692	0	correct_rejection	NA	0
27	Single	70	232	1042	0	1	1	890894	691	1	hit	345	0
27	Single	71	233	1043	4	0	0	891602	692	0	correct_rejection	NA	0
27	Single	72	234	1044	9	0	0	892311	692	0	correct_rejection	NA	0
27	Single	73	235	1045	5	0	0	893019	692	0	correct_rejection	NA	0
27	Single	74	236	1046	4	0	0	893728	692	0	correct_rejection	NA	0
27	Single	75	237	1047	4	0	0	894437	691	0	correct_rejection	NA	0
27	Single	76	238	1048	5	0	0	895145	692	0	correct_rejection	NA	0
27	Single	77	239	1049	0	1	1	895854	691	1	hit	284	0
27	Single	78	240	1050	9	0	0	896562	692	0	correct_rejection	NA	0
27	Single	79	241	1051	9	0	0	897271	692	0	correct_rejection	NA	0
27	Single	80	242	1052	8	0	0	897979	692	0	correct_rejection	NA	0
27	Single	81	243	1053	6	0	0	898688	692	0	correct_rejection	NA	0
27	Single	82	244	1054	6	0	0	899397	691	0	correct_rejection	NA	0
27	Single	83	245	1055	7	0	0	900105	692	0	correct_rejection	NA	0
27	Single	84	246	1056	7	0	0	900814	691	0	correct_rejection	NA	0
27	Single	85	247	1057	5	0	0	901522	692	0	correct_rejection	NA	0
27	Single	86	248	1058	7	0	0	902231	692	0	correct_rejection	NA	0
27	Single	87	249	1059	9	0	0	902939	692	0	correct_rejection	NA	0
27	Single	88	250	1060	9	0	0	903648	692	0	correct_rejection	NA	0
27	Single	89	251	1061	7	0	0	904357	691	0	correct_rejection	NA	0
27	Single	90	252	1062	7	0	0	905065	692	0	correct_rejection	NA	0
27	Single	91	253	1063	4	0	0	905774	691	0	correct_rejection	NA	0
27	Single	92	254	1064	8	0	0	906482	692	0	correct_rejection	NA	0
27	Single	93	255	1065	7	0	0	907191	692	0	correct_rejection	NA	0
27	Single	94	256	1066	6	0	0	907899	692	0	correct_rejection	NA	0
27	Single	95	257	1067	5	0	0	908608	692	0	correct_rejection	NA	0
27	Single	96	258	1068	6	0	0	909317	691	0	correct_rejection	NA	0
27	Single	97	259	1069	7	0	0	910025	692	0	correct_rejection	NA	0
27	Single	98	260	1070	8	0	0	910734	691	0	correct_rejection	NA	0
27	Single	99	261	1071	5	0	0	911442	692	0	correct_rejection	NA	0
27	Single	100	262	1072	9	0	0	912151	692	0	correct_rejection	NA	0
27	Single	101	263	1073	4	0	0	912859	692	0	correct_rejection	NA	0
27	Single	102	264	1074	4	0	0	913568	692	0	correct_rejection	NA	0
27	Single	103	265	1075	9	0	0	914277	691	0	correct_rejection	NA	0
27	Single	104	266	1076	0	1	1	914985	692	1	hit	328	0
27	Single	105	267	1077	8	0	0	915694	691	0	correct_rejection	NA	0
27	Single	106	268	1078	9	0	0	916402	692	0	correct_rejection	NA	0
27	Single	107	269	1079	6	0	0	917111	691	0	correct_rejection	NA	0
27	Single	108	270	1080	9	0	0	917819	692	0	correct_rejection	NA	0
27	Single	109	271	1081	0	1	1	918528	692	1	hit	377	0
27	Single	110	272	1082	5	0	0	919236	692	0	correct_rejection	NA	0
27	Single	111	273	1083	8	0	0	919945	692	0	correct_rejection	NA	0
27	Single	112	274	1084	4	0	0	920654	691	0	correct_rejection	NA	0
27	Single	113	275	1085	5	0	0	921362	692	0	correct_rejection	NA	0
27	Single	114	276	1086	5	0	0	922071	691	0	correct_rejection	NA	0
27	Single	115	277	1087	4	0	0	922779	692	0	correct_rejection	NA	0
27	Single	116	278	1088	6	0	0	923488	692	0	correct_rejection	NA	0
27	Single	117	279	1089	6	0	0	924196	692	0	correct_rejection	NA	0
27	Single	118	280	1090	8	0	0	924905	692	0	correct_rejection	NA	0
27	Single	119	281	1091	8	0	0	925614	691	0	correct_rejection	NA	0
27	Single	120	282	1092	6	0	0	926322	692	0	correct_rejection	NA	0
27	Single	121	283	1093	4	0	0	927031	691	0	correct_rejection	NA	0
27	Single	122	284	1094	8	0	0	927739	692	0	correct_rejection	NA	0
27	Single	123	285	1095	4	0	0	928448	692	0	correct_rejection	NA	0
27	Single	124	286	1096	6	0	0	929156	692	0	correct_rejection	NA	0
27	Single	125	287	1097	0	1	1	929865	692	1	hit	337	0
27	Single	126	288	1098	9	0	0	930574	691	0	correct_rejection	NA	0
27	Single	127	289	1099	8	0	0	931282	692	0	correct_rejection	NA	0
27	Single	128	290	1100	8	0	0	931991	691	0	correct_rejection	NA	0
27	Single	129	291	1101	0	1	1	932699	692	1	hit	340	0
27	Single	130	292	1102	9	0	0	933408	692	0	correct_rejection	NA	0
27	Single	131	293	1103	5	0	0	934116	692	0	correct_rejection	NA	0
27	Single	132	294	1104	9	0	0	934825	692	0	correct_rejection	NA	0
27	Single	133	295	1105	7	0	0	935534	691	0	correct_rejection	NA	0
27	Single	134	296	1106	5	0	0	936242	692	0	correct_rejection	NA	0
27	Single	135	297	1107	8	0	0	936951	691	0	correct_rejection	NA	0
27	Single	136	298	1108	5	0	0	937659	692	0	correct_rejection	NA	0
27	Single	137	299	1109	5	0	0	938368	692	0	correct_rejection	NA	0
27	Single	138	300	1110	6	0	0	939076	692	0	correct_rejection	NA	0
27	Single	139	301	1111	8	0	0	939785	692	0	correct_rejection	NA	0
27	Single	140	302	1112	0	1	1	940494	691	1	hit	414	0
27	Single	141	303	1113	6	0	0	941202	692	0	correct_rejection	NA	0
27	Single	142	304	1114	7	0	0	941911	691	0	correct_rejection	NA	0
27	Single	143	305	1115	9	0	0	942619	692	0	correct_rejection	NA	0
27	Single	144	306	1116	6	0	0	943328	691	0	correct_rejection	NA	0
27	Single	145	307	1117	0	1	1	944036	692	1	hit	345	0
27	Single	146	308	1118	5	0	0	944745	692	0	correct_rejection	NA	0
27	Single	147	309	1119	4	0	0	945453	692	0	correct_rejection	NA	0
27	Single	148	310	1120	0	1	1	946162	692	1	hit	324	0
27	Single	149	311	1121	5	0	0	946871	691	0	correct_rejection	NA	0
27	Single	150	312	1122	7	0	0	947579	692	0	correct_rejection	NA	0
27	Single	151	313	1123	8	0	0	948288	691	0	correct_rejection	NA	0
27	Single	152	314	1124	7	0	0	948996	692	0	correct_rejection	NA	0
27	Single	153	315	1125	4	0	0	949705	692	0	correct_rejection	NA	0
27	Single	154	316	1126	4	0	0	950413	692	0	correct_rejection	NA	0
27	Single	155	317	1127	7	0	0	951122	692	0	correct_rejection	NA	0
27	Single	156	318	1128	7	0	0	951831	691	0	correct_rejection	NA	0
27	Single	157	319	1129	6	0	0	952539	692	0	correct_rejection	NA	0
27	Single	158	320	1130	6	0	0	953248	691	0	correct_rejection	NA	0
27	Single	159	321	1131	4	0	0	953956	692	0	correct_rejection	NA	0
27	Single	160	322	1132	9	0	0	954665	692	0	correct_rejection	NA	0
27	Single	161	323	1133	9	0	0	955373	692	0	correct_rejection	NA	0
27	Single	162	324	1134	4	0	0	956082	692	0	correct_rejection	NA	0
27	Correct	1	163	1135	4	0	0	964485	691	0	correct_rejection	NA	6489
27	Correct	2	164	1136	5	0	0	965193	692	0	correct_rejection	NA	0
27	Correct	3	165	1137	6	0	0	965902	692	0	correct_rejection	NA	0
27	Correct	4	166	1138	4	0	0	966610	692	0	correct_rejection	NA	0
27	Correct	5	167	1139	5	0	0	967319	692	0	correct_rejection	NA	0
27	Correct	6	168	1140	6	0	0	968028	691	0	correct_rejection	NA	0
27	Correct	7	169	1141	4	0	0	968736	692	0	correct_rejection	NA	0
27	Correct	8	170	1142	0	1	1	969445	691	1	hit	344	0
27	Correct	9	171	1143	5	0	0	970153	692	0	correct_rejection	NA	0
27	Correct	10	172	1144	6	0	0	970862	692	0	correct_rejection	NA	0
27	Correct	11	173	1145	6	0	0	971570	692	0	correct_rejection	NA	0
27	Correct	12	174	1146	5	0	0	972279	692	0	correct_rejection	NA	0
27	Correct	13	175	1147	4	0	0	972988	691	0	correct_rejection	NA	0
27	Correct	14	176	1148	0	1	2	973696	692	1	hit	326	0
27	Correct	15	177	1149	6	0	0	974405	691	0	correct_rejection	NA	0
27	Correct	16	178	1150	5	0	0	975113	692	0	correct_rejection	NA	0
27	Correct	17	179	1151	4	0	0	975822	692	0	correct_rejection	NA	0
27	Correct	18	180	1152	6	0	0	976530	692	0	correct_rejection	NA	0
27	Correct	19	181	1153	5	0	0	977239	692	0	correct_rejection	NA	0
27	Correct	20	182	1154	4	0	0	977948	691	0	correct_rejection	NA	0
27	Correct	21	183	1155	0	1	3	978656	692	1	hit	315	0
27	Correct	22	184	1156	9	0	0	979365	691	0	correct_rejection	NA	0
27	Correct	23	185	1157	8	0	0	980073	692	0	correct_rejection	NA	0
27	Correct	24	186	1158	7	0	0	980782	692	0	correct_rejection	NA	0
27	Correct	25	187	1159	0	1	2	981490	692	1	hit	369	0
27	Correct	26	188	1160	9	0	0	982199	692	0	correct_rejection	NA	0
27	Correct	27	189	1161	8	0	0	982908	691	0	correct_rejection	NA	0
27	Correct	28	190	1162	0	1	1	983616	692	1	hit	333	0
27	Correct	29	191	1163	7	0	0	984325	691	0	correct_rejection	NA	0
27	Correct	30	192	1164	9	0	0	985033	692	0	correct_rejection	NA	0
27	Correct	31	193	1165	8	0	0	985742	691	0	correct_rejection	NA	0
27	Correct	32	194	1166	7	0	0	986450	692	0	correct_rejection	NA	0
27	Correct	33	195	1167	0	1	3	987159	692	1	hit	310	0
27	Correct	34	196	1168	7	0	0	987867	692	0	correct_rejection	NA	0
27	Correct	35	197	1169	8	0	0	988576	692	0	correct_rejection	NA	0
27	Correct	36	198	1170	9	0	0	989285	691	0	correct_rejection	NA	0
27	Correct	37	199	1171	7	0	0	989993	692	0	correct_rejection	NA	0
27	Correct	38	200	1172	8	0	0	990702	691	0	correct_rejection	NA	0
27	Correct	39	201	1173	9	0	0	991410	692	0	correct_rejection	NA	0
27	Correct	40	202	1174	7	0	0	992119	692	0	correct_rejection	NA	0
27	Correct	41	203	1175	8	0	0	992827	692	0	correct_rejection	NA	0
27	Correct	42	204	1176	9	0	0	993536	692	0	correct_rejection	NA	0
27	Correct	43	205	1177	4	0	0	994245	691	0	correct_rejection	NA	0
27	Correct	44	206	1178	5	0	0	994953	692	0	correct_rejection	NA	0
27	Correct	45	207	1179	6	0	0	995662	691	0	correct_rejection	NA	0
27	Correct	46	208	1180	4	0	0	996370	692	0	correct_rejection	NA	0
27	Correct	47	209	1181	5	0	0	997079	692	0	correct_rejection	NA	0
27	Correct	48	210	1182	6	0	0	997787	692	0	correct_rejection	NA	0
27	Correct	49	211	1183	4	0	0	998496	692	0	correct_rejection	NA	0
27	Correct	50	212	1184	5	0	0	999205	691	0	correct_rejection	NA	0
27	Correct	51	213	1185	6	0	0	999913	692	0	correct_rejection	NA	0
27	Correct	52	214	1186	6	0	0	1000622	691	0	correct_rejection	NA	0
27	Correct	53	215	1187	5	0	0	1001330	692	0	correct_rejection	NA	0
27	Correct	54	216	1188	4	0	0	1002039	692	0	correct_rejection	NA	0
27	Correct	55	217	1189	6	0	0	1002747	692	0	correct_rejection	NA	0
27	Correct	56	218	1190	5	0	0	1003456	692	0	correct_rejection	NA	0
27	Correct	57	219	1191	4	0	0	1004165	691	0	correct_rejection	NA	0
27	Correct	58	220	1192	6	0	0	1004873	692	0	correct_rejection	NA	0
27	Correct	59	221	1193	5	0	0	1005582	691	0	correct_rejection	NA	0
27	Correct	60	222	1194	0	1	1	1006290	692	1	hit	381	0
27	Correct	61	223	1195	4	0	0	1006999	692	0	correct_rejection	NA	0
27	Correct	62	224	1196	9	0	0	1007707	692	0	correct_rejection	NA	0
27	Correct	63	225	1197	0	1	1	1008416	692	1	hit	359	0
27	Correct	64	226	1198	8	0	0	1009125	691	0	correct_rejection	NA	0
27	Correct	65	227	1199	7	0	0	1009833	692	0	correct_rejection	NA	0
27	Correct	66	228	1200	9	0	0	1010542	691	0	correct_rejection	NA	0
27	Correct	67	229	1201	8	0	0	1011250	692	0	correct_rejection	NA	0
27	Correct	68	230	1202	7	0	0	1011959	691	0	correct_rejection	NA	0
27	Correct	69	231	1203	9	0	0	1012667	692	0	correct_rejection	NA	0
27	Correct	70	232	1204	8	0	0	1013376	692	0	correct_rejection	NA	0
27	Correct	71	233	1205	7	0	0	1014084	692	0	correct_rejection	NA	0
27	Correct	72	234	1206	7	0	0	1014793	692	0	correct_rejection	NA	0
27	Correct	73	235	1207	8	0	0	1015502	691	0	correct_rejection	NA	0
27	Correct	74	236	1208	0	1	1	1016210	692	1	hit	350	0
27	Correct	75	237	1209	9	0	0	1016919	691	0	correct_rejection	NA	0
27	Correct	76	238	1210	7	0	0	1017627	692	0	correct_rejection	NA	0
27	Correct	77	239	1211	0	1	1	1018336	692	1	hit	320	0
27	Correct	78	240	1212	8	0	0	1019044	692	0	correct_rejection	NA	0
27	Correct	79	241	1213	9	0	0	1019753	692	0	correct_rejection	NA	0
27	Correct	80	242	1214	7	0	0	1020462	691	0	correct_rejection	NA	0
27	Correct	81	243	1215	0	1	1	1021170	692	1	hit	340	0
27	Correct	82	244	1216	8	0	0	1021879	691	0	correct_rejection	NA	0
27	Correct	83	245	1217	9	0	0	1022587	692	0	correct_rejection	NA	0
27	Correct	84	246	1218	4	0	0	1023296	692	0	correct_rejection	NA	0
27	Correct	85	247	1219	5	0	0	1024004	692	0	correct_rejection	NA	0
27	Correct	86	248	1220	6	0	0	1024713	692	0	correct_rejection	NA	0
27	Correct	87	249	1221	0	1	2	1025422	691	1	hit	347	0
27	Correct	88	250	1222	4	0	0	1026130	692	0	correct_rejection	NA	0
27	Correct	89	251	1223	5	0	0	1026839	691	0	correct_rejection	NA	0
27	Correct	90	252	1224	6	0	0	1027547	692	0	correct_rejection	NA	0
27	Correct	91	253	1225	4	0	0	1028256	692	0	correct_rejection	NA	0
27	Correct	92	254	1226	5	0	0	1028964	692	0	correct_rejection	NA	0
27	Correct	93	255	1227	6	0	0	1029673	692	0	correct_rejection	NA	0
27	Correct	94	256	1228	6	0	0	1030382	691	0	correct_rejection	NA	0
27	Correct	95	257	1229	0	1	1	1031090	692	1	hit	365	0
27	Correct	96	258	1230	5	0	0	1031799	691	0	correct_rejection	NA	0
27	Correct	97	259	1231	4	0	0	1032507	692	0	correct_rejection	NA	0
27	Correct	98	260	1232	6	0	0	1033216	692	0	correct_rejection	NA	0
27	Correct	99	261	1233	5	0	0	1033924	692	0	correct_rejection	NA	0
27	Correct	100	262	1234	4	0	0	1034633	692	0	correct_rejection	NA	0
27	Correct	101	263	1235	6	0	0	1035342	691	0	correct_rejection	NA	0
27	Correct	102	264	1236	5	0	0	1036050	692	0	correct_rejection	NA	0
27	Correct	103	265	1237	4	0	0	1036759	691	0	correct_rejection	NA	0
27	Correct	104	266	1238	9	0	0	1037467	692	0	correct_rejection	NA	0
27	Correct	105	267	1239	8	0	0	1038176	691	0	correct_rejection	NA	0
27	Correct	106	268	1240	7	0	0	1038884	692	0	correct_rejection	NA	0
27	Correct	107	269	1241	9	0	0	1039593	692	0	correct_rejection	NA	0
27	Correct	108	270	1242	8	0	0	1040301	692	0	correct_rejection	NA	0
27	Correct	109	271	1243	7	0	0	1041010	692	0	correct_rejection	NA	0
27	Correct	110	272	1244	9	0	0	1041719	691	0	correct_rejection	NA	0
27	Correct	111	273	1245	8	0	0	1042427	692	0	correct_rejection	NA	0
27	Correct	112	274	1246	7	0	0	1043136	691	0	correct_rejection	NA	0
27	Correct	113	275	1247	7	0	0	1043844	692	0	correct_rejection	NA	0
27	Correct	114	276	1248	8	0	0	1044553	692	0	correct_rejection	NA	0
27	Correct	115	277	1249	0	1	1	1045261	692	1	hit	398	0
27	Correct	116	278	1250	9	0	0	1045970	692	0	correct_rejection	NA	0
27	Correct	117	279	1251	7	0	0	1046679	691	0	correct_rejection	NA	0
27	Correct	118	280	1252	8	0	0	1047387	692	0	correct_rejection	NA	0
27	Correct	119	281	1253	9	0	0	1048096	691	0	correct_rejection	NA	0
27	Correct	120	282	1254	0	1	2	1048804	692	1	hit	385	0
27	Correct	121	283	1255	7	0	0	1049513	692	0	correct_rejection	NA	0
27	Correct	122	284	1256	8	0	0	1050221	692	0	correct_rejection	NA	0
27	Correct	123	285	1257	9	0	0	1050930	692	0	correct_rejection	NA	0
27	Correct	124	286	1258	4	0	0	1051639	691	0	correct_rejection	NA	0
27	Correct	125	287	1259	5	0	0	1052347	692	0	correct_rejection	NA	0
27	Correct	126	288	1260	0	1	1	1053056	691	1	hit	333	0
27	Correct	127	289	1261	6	0	0	1053764	692	0	correct_rejection	NA	0
27	Correct	128	290	1262	4	0	0	1054473	692	0	correct_rejection	NA	0
27	Correct	129	291	1263	5	0	0	1055181	692	0	correct_rejection	NA	0
27	Correct	130	292	1264	6	0	0	1055890	692	0	correct_rejection	NA	0
27	Correct	131	293	1265	4	0	0	1056599	691	0	correct_rejection	NA	0
27	Correct	132	294	1266	5	0	0	1057307	692	0	correct_rejection	NA	0
27	Correct	133	295	1267	6	0	0	1058016	691	0	correct_rejection	NA	0
27	Correct	134	296	1268	6	0	0	1058724	692	0	correct_rejection	NA	0
27	Correct	135	297	1269	5	0	0	1059433	691	0	correct_rejection	NA	0
27	Correct	136	298	1270	4	0	0	1060141	692	0	correct_rejection	NA	0
27	Correct	137	299	1271	6	0	0	1060850	692	0	correct_rejection	NA	0
27	Correct	138	300	1272	5	0	0	1061559	691	0	correct_rejection	NA	0
27	Correct	139	301	1273	4	0	0	1062267	692	0	correct_rejection	NA	0
27	Correct	140	302	1274	6	0	0	1062976	691	0	correct_rejection	NA	0
27	Correct	141	303	1275	5	0	0	1063684	692	0	correct_rejection	NA	0
27	Correct	142	304	1276	4	0	0	1064393	691	0	correct_rejection	NA	0
27	Correct	143	305	1277	9	0	0	1065101	692	0	correct_rejection	NA	0
27	Correct	144	306	1278	8	0	0	1065810	692	0	correct_rejection	NA	0
27	Correct	145	307	1279	7	0	0	1066518	692	0	correct_rejection	NA	0
27	Correct	146	308	1280	9	0	0	1067227	692	0	correct_rejection	NA	0
27	Correct	147	309	1281	8	0	0	1067936	691	0	correct_rejection	NA	0
27	Correct	148	310	1282	0	1	1	1068644	692	1	hit	323	0
27	Correct	149	311	1283	7	0	0	1069353	691	0	correct_rejection	NA	0
27	Correct	150	312	1284	9	0	0	1070061	692	0	correct_rejection	NA	0
27	Correct	151	313	1285	8	0	0	1070770	692	0	correct_rejection	NA	0
27	Correct	152	314	1286	7	0	0	1071478	692	0	correct_rejection	NA	0
27	Correct	153	315	1287	7	0	0	1072187	692	0	correct_rejection	NA	0
27	Correct	154	316	1288	0	1	1	1072896	691	1	hit	336	0
27	Correct	155	317	1289	8	0	0	1073604	692	0	correct_rejection	NA	0
27	Correct	156	318	1290	9	0	0	1074313	691	0	correct_rejection	NA	0
27	Correct	157	319	1291	7	0	0	1075021	692	0	correct_rejection	NA	0
27	Correct	158	320	1292	8	0	0	1075730	692	0	correct_rejection	NA	0
27	Correct	159	321	1293	9	0	0	1076438	692	0	correct_rejection	NA	0
27	Correct	160	322	1294	7	0	0	1077147	692	0	correct_rejection	NA	0
27	Correct	161	323	1295	8	0	0	1077856	691	0	correct_rejection	NA	0
27	Correct	162	324	1296	9	0	0	1078564	692	0	correct_rejection	NA	0
27	Nonet	1	487	1297	7	0	0	1088617	692	0	correct_rejection	NA	7619
27	Nonet	2	488	1298	8	0	0	1089326	692	0	correct_rejection	NA	0
27	Nonet	3	489	1299	9	0	0	1090035	691	0	correct_rejection	NA	0
27	Nonet	4	490	1300	0	1	2	1090743	692	1	hit	373	0
27	Nonet	5	491	1301	7	0	0	1091452	691	0	correct_rejection	NA	0
27	Nonet	6	492	1302	8	0	0	1092160	692	0	correct_rejection	NA	0
27	Nonet	7	493	1303	9	0	0	1092869	692	0	correct_rejection	NA	0
27	Nonet	8	494	1304	7	0	0	1093577	692	0	correct_rejection	NA	0
27	Nonet	9	495	1305	8	0	0	1094286	692	0	correct_rejection	NA	0
27	Nonet	10	496	1306	9	0	0	1094995	691	0	correct_rejection	NA	0
27	Nonet	11	497	1307	7	0	0	1095703	692	0	correct_rejection	NA	0
27	Nonet	12	498	1308	8	0	0	1096412	691	0	correct_rejection	NA	0
27	Nonet	13	499	1309	0	1	1	1097120	692	1	hit	335	0
27	Nonet	14	500	1310	9	0	0	1097829	692	0	correct_rejection	NA	0
27	Nonet	15	501	1311	7	0	0	1098537	692	0	correct_rejection	NA	0
27	Nonet	16	502	1312	0	1	1	1099246	692	1	hit	350	0
27	Nonet	17	503	1313	8	0	0	1099955	691	0	correct_rejection	NA	0
27	Nonet	18	504	1314	9	0	0	1100663	692	0	correct_rejection	NA	0
27	Nonet	19	505	1315	7	0	0	1101372	691	0	correct_rejection	NA	0
27	Nonet	20	506	1316	8	0	0	1102080	692	0	correct_rejection	NA	0
27	Nonet	21	507	1317	9	0	0	1102789	691	0	correct_rejection	NA	0
27	Nonet	22	508	1318	9	0	0	1103497	692	0	correct_rejection	NA	0
27	Nonet	23	509	1319	8	0	0	1104206	692	0	correct_rejection	NA	0
27	Nonet	24	510	1320	7	0	0	1104914	692	0	correct_rejection	NA	0
27	Nonet	25	511	1321	9	0	0	1105623	692	0	correct_rejection	NA	0
27	Nonet	26	512	1322	8	0	0	1106332	691	0	correct_rejection	NA	0
27	Nonet	27	513	1323	7	0	0	1107040	692	0	correct_rejection	NA	0
27	Nonet	28	514	1324	9	0	0	1107749	691	0	correct_rejection	NA	0
27	Nonet	29	515	1325	0	1	1	1108457	692	1	hit	345	0
27	Nonet	30	516	1326	8	0	0	1109166	692	0	correct_rejection	NA	0
27	Nonet	31	517	1327	7	0	0	1109874	692	0	correct_rejection	NA	0
27	Nonet	32	518	1328	9	0	0	1110583	692	0	correct_rejection	NA	0
27	Nonet	33	519	1329	8	0	0	1111292	691	0	correct_rejection	NA	0
27	Nonet	34	520	1330	7	0	0	1112000	692	0	correct_rejection	NA	0
27	Nonet	35	521	1331	9	0	0	1112709	691	0	correct_rejection	NA	0
27	Nonet	36	522	1332	0	1	1	1113417	692	1	hit	328	0
27	Nonet	37	523	1333	8	0	0	1114126	692	0	correct_rejection	NA	0
27	Nonet	38	524	1334	7	0	0	1114834	692	0	correct_rejection	NA	0
27	Nonet	39	525	1335	9	0	0	1115543	692	0	correct_rejection	NA	0
27	Nonet	40	526	1336	8	0	0	1116252	691	0	correct_rejection	NA	0
27	Nonet	41	527	1337	7	0	0	1116960	692	0	correct_rejection	NA	0
27	Nonet	42	528	1338	4	0	0	1117669	691	0	correct_rejection	NA	0
27	Nonet	43	529	1339	5	0	0	1118377	692	0	correct_rejection	NA	0
27	Nonet	44	530	1340	6	0	0	1119086	692	0	correct_rejection	NA	0
27	Nonet	45	531	1341	4	0	0	1119794	692	0	correct_rejection	NA	0
27	Nonet	46	532	1342	5	0	0	1120503	692	0	correct_rejection	NA	0
27	Nonet	47	533	1343	0	1	1	1121212	691	1	hit	328	0
27	Nonet	48	534	1344	6	0	0	1121920	692	0	correct_rejection	NA	0
27	Nonet	49	535	1345	4	0	0	1122629	691	0	correct_rejection	NA	0
27	Nonet	50	536	1346	5	0	0	1123337	692	0	correct_rejection	NA	0
27	Nonet	51	537	1347	6	0	0	1124046	692	0	correct_rejection	NA	0
27	Nonet	52	538	1348	6	0	0	1124754	692	0	correct_rejection	NA	0
27	Nonet	53	539	1349	5	0	0	1125463	692	0	correct_rejection	NA	0
27	Nonet	54	540	1350	4	0	0	1126172	691	0	correct_rejection	NA	0
27	Nonet	55	541	1351	6	0	0	1126880	692	0	correct_rejection	NA	0
27	Nonet	56	542	1352	5	0	0	1127589	691	0	correct_rejection	NA	0
27	Nonet	57	543	1353	4	0	0	1128297	692	0	correct_rejection	NA	0
27	Nonet	58	544	1354	6	0	0	1129006	691	0	correct_rejection	NA	0
27	Nonet	59	545	1355	5	0	0	1129714	692	0	correct_rejection	NA	0
27	Nonet	60	546	1356	4	0	0	1130423	692	0	correct_rejection	NA	0
27	Nonet	61	547	1357	4	0	0	1131131	692	0	correct_rejection	NA	0
27	Nonet	62	548	1358	5	0	0	1131840	692	0	correct_rejection	NA	0
27	Nonet	63	549	1359	6	0	0	1132549	691	0	correct_rejection	NA	0
27	Nonet	64	550	1360	4	0	0	1133257	692	0	correct_rejection	NA	0
27	Nonet	65	551	1361	5	0	0	1133966	691	0	correct_rejection	NA	0
27	Nonet	66	552	1362	6	0	0	1134674	692	0	correct_rejection	NA	0
27	Nonet	67	553	1363	0	1	2	1135383	692	1	hit	375	0
27	Nonet	68	554	1364	4	0	0	1136091	692	0	correct_rejection	NA	0
27	Nonet	69	555	1365	5	0	0	1136800	692	0	correct_rejection	NA	0
27	Nonet	70	556	1366	6	0	0	1137509	691	0	correct_rejection	NA	0
27	Nonet	71	557	1367	7	0	0	1138217	692	0	correct_rejection	NA	0
27	Nonet	72	558	1368	8	0	0	1138926	691	0	correct_rejection	NA	0
27	Nonet	73	559	1369	9	0	0	1139634	692	0	correct_rejection	NA	0
27	Nonet	74	560	1370	7	0	0	1140343	692	0	correct_rejection	NA	0
27	Nonet	75	561	1371	8	0	0	1141051	692	0	correct_rejection	NA	0
27	Nonet	76	562	1372	9	0	0	1141760	692	0	correct_rejection	NA	0
27	Nonet	77	563	1373	7	0	0	1142469	691	0	correct_rejection	NA	0
27	Nonet	78	564	1374	8	0	0	1143177	692	0	correct_rejection	NA	0
27	Nonet	79	565	1375	9	0	0	1143886	691	0	correct_rejection	NA	0
27	Nonet	80	566	1376	6	0	0	1144594	692	0	correct_rejection	NA	0
27	Nonet	81	567	1377	5	0	0	1145303	692	0	correct_rejection	NA	0
27	Nonet	82	568	1378	0	1	1	1146011	692	1	hit	309	0
27	Nonet	83	569	1379	4	0	0	1146720	692	0	correct_rejection	NA	0
27	Nonet	84	570	1380	6	0	0	1147429	691	0	correct_rejection	NA	0
27	Nonet	85	571	1381	5	0	0	1148137	692	0	correct_rejection	NA	0
27	Nonet	86	572	1382	4	0	0	1148846	691	0	correct_rejection	NA	0
27	Nonet	87	573	1383	0	1	2	1149554	692	1	hit	349	0
27	Nonet	88	574	1384	6	0	0	1150263	692	0	correct_rejection	NA	0
27	Nonet	89	575	1385	5	0	0	1150971	692	0	correct_rejection	NA	0
27	Nonet	90	576	1386	4	0	0	1151680	692	0	correct_rejection	NA	0
27	Nonet	91	577	1387	9	0	0	1152389	691	0	correct_rejection	NA	0
27	Nonet	92	578	1388	8	0	0	1153097	692	0	correct_rejection	NA	0
27	Nonet	93	579	1389	7	0	0	1153806	691	0	correct_rejection	NA	0
27	Nonet	94	580	1390	9	0	0	1154514	692	0	correct_rejection	NA	0
27	Nonet	95	581	1391	8	0	0	1155223	691	0	correct_rejection	NA	0
27	Nonet	96	582	1392	7	0	0	1155931	692	0	correct_rejection	NA	0
27	Nonet	97	583	1393	0	1	2	1156640	692	1	hit	330	0
27	Nonet	98	584	1394	9	0	0	1157348	692	0	correct_rejection	NA	0
27	Nonet	99	585	1395	8	0	0	1158057	692	0	correct_rejection	NA	0
27	Nonet	100	586	1396	7	0	0	1158766	691	0	correct_rejection	NA	0
27	Nonet	101	587	1397	6	0	0	1159474	692	0	correct_rejection	NA	0
27	Nonet	102	588	1398	5	0	0	1160183	691	0	correct_rejection	NA	0
27	Nonet	103	589	1399	0	1	1	1160891	692	1	hit	349	0
27	Nonet	104	590	1400	4	0	0	1161600	692	0	correct_rejection	NA	0
27	Nonet	105	591	1401	6	0	0	1162308	692	0	correct_rejection	NA	0
27	Nonet	106	592	1402	5	0	0	1163017	692	0	correct_rejection	NA	0
27	Nonet	107	593	1403	4	0	0	1163726	691	0	correct_rejection	NA	0
27	Nonet	108	594	1404	6	0	0	1164434	692	0	correct_rejection	NA	0
27	Nonet	109	595	1405	5	0	0	1165143	691	0	correct_rejection	NA	0
27	Nonet	110	596	1406	4	0	0	1165851	692	0	correct_rejection	NA	0
27	Nonet	111	597	1407	6	0	0	1166560	692	0	correct_rejection	NA	0
27	Nonet	112	598	1408	5	0	0	1167268	692	0	correct_rejection	NA	0
27	Nonet	113	599	1409	4	0	0	1167977	692	0	correct_rejection	NA	0
27	Nonet	114	600	1410	6	0	0	1168686	691	0	correct_rejection	NA	0
27	Nonet	115	601	1411	5	0	0	1169394	692	0	correct_rejection	NA	0
27	Nonet	116	602	1412	4	0	0	1170103	691	0	correct_rejection	NA	0
27	Nonet	117	603	1413	6	0	0	1170811	692	0	correct_rejection	NA	0
27	Nonet	118	604	1414	0	1	1	1171520	692	1	hit	328	0
27	Nonet	119	605	1415	5	0	0	1172228	692	0	correct_rejection	NA	0
27	Nonet	120	606	1416	4	0	0	1172937	692	0	correct_rejection	NA	0
27	Nonet	121	607	1417	7	0	0	1173646	691	0	correct_rejection	NA	0
27	Nonet	122	608	1418	8	0	0	1174354	692	0	correct_rejection	NA	0
27	Nonet	123	609	1419	0	1	1	1175063	691	1	hit	326	0
27	Nonet	124	610	1420	9	0	0	1175771	692	0	correct_rejection	NA	0
27	Nonet	125	611	1421	7	0	0	1176480	692	0	correct_rejection	NA	0
27	Nonet	126	612	1422	0	1	1	1177188	692	1	hit	335	0
27	Nonet	127	613	1423	8	0	0	1177897	692	0	correct_rejection	NA	0
27	Nonet	128	614	1424	9	0	0	1178606	691	0	correct_rejection	NA	0
27	Nonet	129	615	1425	0	1	2	1179314	692	1	hit	321	0
27	Nonet	130	616	1426	7	0	0	1180023	691	0	correct_rejection	NA	0
27	Nonet	131	617	1427	8	0	0	1180731	692	0	correct_rejection	NA	0
27	Nonet	132	618	1428	9	0	0	1181440	691	0	correct_rejection	NA	0
27	Nonet	133	619	1429	4	0	0	1182148	692	0	correct_rejection	NA	0
27	Nonet	134	620	1430	5	0	0	1182857	692	0	correct_rejection	NA	0
27	Nonet	135	621	1431	6	0	0	1183565	692	0	correct_rejection	NA	0
27	Nonet	136	622	1432	4	0	0	1184274	692	0	correct_rejection	NA	0
27	Nonet	137	623	1433	5	0	0	1184983	691	0	correct_rejection	NA	0
27	Nonet	138	624	1434	6	0	0	1185691	692	0	correct_rejection	NA	0
27	Nonet	139	625	1435	4	0	0	1186400	691	0	correct_rejection	NA	0
27	Nonet	140	626	1436	5	0	0	1187108	692	0	correct_rejection	NA	0
27	Nonet	141	627	1437	6	0	0	1187817	692	0	correct_rejection	NA	0
27	Nonet	142	628	1438	4	0	0	1188525	692	0	correct_rejection	NA	0
27	Nonet	143	629	1439	5	0	0	1189234	692	0	correct_rejection	NA	0
27	Nonet	144	630	1440	6	0	0	1189943	691	0	correct_rejection	NA	0
27	Nonet	145	631	1441	4	0	0	1190651	692	0	correct_rejection	NA	0
27	Nonet	146	632	1442	0	1	1	1191360	691	1	hit	378	0
27	Nonet	147	633	1443	5	0	0	1192068	692	0	correct_rejection	NA	0
27	Nonet	148	634	1444	6	0	0	1192777	692	0	correct_rejection	NA	0
27	Nonet	149	635	1445	0	1	2	1193485	692	1	hit	427	0
27	Nonet	150	636	1446	4	0	0	1194194	692	0	correct_rejection	NA	0
27	Nonet	151	637	1447	5	0	0	1194903	691	0	correct_rejection	NA	0
27	Nonet	152	638	1448	6	0	0	1195611	692	0	correct_rejection	NA	0
27	Nonet	153	639	1449	9	0	0	1196320	691	0	correct_rejection	NA	0
27	Nonet	154	640	1450	8	0	0	1197028	692	0	correct_rejection	NA	0
27	Nonet	155	641	1451	7	0	0	1197737	692	0	correct_rejection	NA	0
27	Nonet	156	642	1452	9	0	0	1198445	692	0	correct_rejection	NA	0
27	Nonet	157	643	1453	8	0	0	1199154	692	0	correct_rejection	NA	0
27	Nonet	158	644	1454	7	0	0	1199863	691	0	correct_rejection	NA	0
27	Nonet	159	645	1455	9	0	0	1200571	692	0	correct_rejection	NA	0
27	Nonet	160	646	1456	8	0	0	1201280	691	0	correct_rejection	NA	0
27	Nonet	161	647	1457	0	1	1	1201988	692	1	hit	310	0
27	Nonet	162	648	1458	7	0	0	1202697	692	0	correct_rejection	NA	0
27	Correct	1	1	1459	4	0	0	1212092	691	0	correct_rejection	NA	7099
27	Correct	2	2	1460	5	0	0	1212800	692	0	correct_rejection	NA	0
27	Correct	3	3	1461	6	0	0	1213509	691	0	correct_rejection	NA	0
27	Correct	4	4	1462	0	1	2	1214217	692	1	hit	363	0
27	Correct	5	5	1463	4	0	0	1214926	692	0	correct_rejection	NA	0
27	Correct	6	6	1464	5	0	0	1215634	692	0	correct_rejection	NA	0
27	Correct	7	7	1465	6	0	0	1216343	692	0	correct_rejection	NA	0
27	Correct	8	8	1466	4	0	0	1217052	691	0	correct_rejection	NA	0
27	Correct	9	9	1467	5	0	0	1217760	692	0	correct_rejection	NA	0
27	Correct	10	10	1468	6	0	0	1218469	691	0	correct_rejection	NA	0
27	Correct	11	11	1469	0	1	3	1219177	692	1	hit	352	0
27	Correct	12	12	1470	6	0	0	1219886	692	0	correct_rejection	NA	0
27	Correct	13	13	1471	5	0	0	1220594	692	0	correct_rejection	NA	0
27	Correct	14	14	1472	4	0	0	1221303	692	0	correct_rejection	NA	0
27	Correct	15	15	1473	6	0	0	1222012	691	0	correct_rejection	NA	0
27	Correct	16	16	1474	0	1	1	1222720	692	1	hit	316	0
27	Correct	17	17	1475	5	0	0	1223429	691	0	correct_rejection	NA	0
27	Correct	18	18	1476	4	0	0	1224137	692	0	correct_rejection	NA	0
27	Correct	19	19	1477	6	0	0	1224846	691	0	correct_rejection	NA	0
27	Correct	20	20	1478	5	0	0	1225554	692	0	correct_rejection	NA	0
27	Correct	21	21	1479	4	0	0	1226263	692	0	correct_rejection	NA	0
27	Correct	22	22	1480	9	0	0	1226971	692	0	correct_rejection	NA	0
27	Correct	23	23	1481	8	0	0	1227680	692	0	correct_rejection	NA	0
27	Correct	24	24	1482	7	0	0	1228389	691	0	correct_rejection	NA	0
27	Correct	25	25	1483	9	0	0	1229097	692	0	correct_rejection	NA	0
27	Correct	26	26	1484	8	0	0	1229806	691	0	correct_rejection	NA	0
27	Correct	27	27	1485	7	0	0	1230514	692	0	correct_rejection	NA	0
27	Correct	28	28	1486	0	1	2	1231223	692	1	hit	445	0
27	Correct	29	29	1487	9	0	0	1231931	692	0	correct_rejection	NA	0
27	Correct	30	30	1488	8	0	0	1232640	692	0	correct_rejection	NA	0
27	Correct	31	31	1489	7	0	0	1233349	691	0	correct_rejection	NA	0
27	Correct	32	32	1490	7	0	0	1234057	692	0	correct_rejection	NA	0
27	Correct	33	33	1491	8	0	0	1234766	691	0	correct_rejection	NA	0
27	Correct	34	34	1492	9	0	0	1235474	692	0	correct_rejection	NA	0
27	Correct	35	35	1493	7	0	0	1236183	692	0	correct_rejection	NA	0
27	Correct	36	36	1494	8	0	0	1236891	692	0	correct_rejection	NA	0
27	Correct	37	37	1495	9	0	0	1237600	692	0	correct_rejection	NA	0
27	Correct	38	38	1496	7	0	0	1238309	691	0	correct_rejection	NA	0
27	Correct	39	39	1497	8	0	0	1239017	692	0	correct_rejection	NA	0
27	Correct	40	40	1498	9	0	0	1239726	691	0	correct_rejection	NA	0
27	Correct	41	41	1499	0	1	4	1240434	692	1	hit	356	0
27	Correct	42	42	1500	4	0	0	1241143	692	0	correct_rejection	NA	0
27	Correct	43	43	1501	5	0	0	1241851	692	0	correct_rejection	NA	0
27	Correct	44	44	1502	0	1	1	1242560	692	0	miss	NA	0
27	Correct	45	45	1503	6	0	0	1243269	691	0	correct_rejection	NA	0
27	Correct	46	46	1504	4	0	0	1243977	692	0	correct_rejection	NA	0
27	Correct	47	47	1505	5	0	0	1244686	691	0	correct_rejection	NA	0
27	Correct	48	48	1506	6	0	0	1245394	692	0	correct_rejection	NA	0
27	Correct	49	49	1507	4	0	0	1246103	692	0	correct_rejection	NA	0
27	Correct	50	50	1508	5	0	0	1246811	692	0	correct_rejection	NA	0
27	Correct	51	51	1509	6	0	0	1247520	692	0	correct_rejection	NA	0
27	Correct	52	52	1510	6	0	0	1248229	691	0	correct_rejection	NA	0
27	Correct	53	53	1511	5	0	0	1248937	692	0	correct_rejection	NA	0
27	Correct	54	54	1512	4	0	0	1249646	691	0	correct_rejection	NA	0
27	Correct	55	55	1513	6	0	0	1250354	692	0	correct_rejection	NA	0
27	Correct	56	56	1514	5	0	0	1251063	691	0	correct_rejection	NA	0
27	Correct	57	57	1515	4	0	0	1251771	692	0	correct_rejection	NA	0
27	Correct	58	58	1516	6	0	0	1252480	692	0	correct_rejection	NA	0
27	Correct	59	59	1517	5	0	0	1253188	692	0	correct_rejection	NA	0
27	Correct	60	60	1518	4	0	0	1253897	692	0	correct_rejection	NA	0
27	Correct	61	61	1519	9	0	0	1254606	691	0	correct_rejection	NA	0
27	Correct	62	62	1520	8	0	0	1255314	692	0	correct_rejection	NA	0
27	Correct	63	63	1521	7	0	0	1256023	691	0	correct_rejection	NA	0
27	Correct	64	64	1522	9	0	0	1256731	692	0	correct_rejection	NA	0
27	Correct	65	65	1523	8	0	0	1257440	692	0	correct_rejection	NA	0
27	Correct	66	66	1524	7	0	0	1258148	692	0	correct_rejection	NA	0
27	Correct	67	67	1525	9	0	0	1258857	692	0	correct_rejection	NA	0
27	Correct	68	68	1526	8	0	0	1259566	691	0	correct_rejection	NA	0
27	Correct	69	69	1527	7	0	0	1260274	692	0	correct_rejection	NA	0
27	Correct	70	70	1528	7	0	0	1260983	691	0	correct_rejection	NA	0
27	Correct	71	71	1529	8	0	0	1261691	692	0	correct_rejection	NA	0
27	Correct	72	72	1530	9	0	0	1262400	692	0	correct_rejection	NA	0
27	Correct	73	73	1531	7	0	0	1263108	692	0	correct_rejection	NA	0
27	Correct	74	74	1532	8	0	0	1263817	692	0	correct_rejection	NA	0
27	Correct	75	75	1533	9	0	0	1264526	691	0	correct_rejection	NA	0
27	Correct	76	76	1534	7	0	0	1265234	692	0	correct_rejection	NA	0
27	Correct	77	77	1535	8	0	0	1265943	691	0	correct_rejection	NA	0
27	Correct	78	78	1536	9	0	0	1266651	692	0	correct_rejection	NA	0
27	Correct	79	79	1537	4	0	0	1267360	692	0	correct_rejection	NA	0
27	Correct	80	80	1538	0	1	1	1268068	692	1	hit	352	0
27	Correct	81	81	1539	5	0	0	1268777	692	0	correct_rejection	NA	0
27	Correct	82	82	1540	6	0	0	1269486	691	0	correct_rejection	NA	0
27	Correct	83	83	1541	4	0	0	1270194	692	0	correct_rejection	NA	0
27	Correct	84	84	1542	5	0	0	1270903	691	0	correct_rejection	NA	0
27	Correct	85	85	1543	6	0	0	1271611	692	0	correct_rejection	NA	0
27	Correct	86	86	1544	4	0	0	1272320	692	0	correct_rejection	NA	0
27	Correct	87	87	1545	0	1	1	1273028	692	1	hit	345	0
27	Correct	88	88	1546	5	0	0	1273737	692	0	correct_rejection	NA	0
27	Correct	89	89	1547	6	0	0	1274446	691	0	correct_rejection	NA	0
27	Correct	90	90	1548	6	0	0	1275154	692	0	correct_rejection	NA	0
27	Correct	91	91	1549	5	0	0	1275863	691	0	correct_rejection	NA	0
27	Correct	92	92	1550	0	1	1	1276571	692	1	hit	343	0
27	Correct	93	93	1551	4	0	0	1277280	691	0	correct_rejection	NA	0
27	Correct	94	94	1552	6	0	0	1277988	692	0	correct_rejection	NA	0
27	Correct	95	95	1553	5	0	0	1278697	692	0	correct_rejection	NA	0
27	Correct	96	96	1554	0	1	1	1279405	692	1	hit	332	0
27	Correct	97	97	1555	4	0	0	1280114	692	0	correct_rejection	NA	0
27	Correct	98	98	1556	6	0	0	1280823	691	0	correct_rejection	NA	0
27	Correct	99	99	1557	5	0	0	1281531	692	0	correct_rejection	NA	0
27	Correct	100	100	1558	4	0	0	1282240	691	0	correct_rejection	NA	0
27	Correct	101	101	1559	9	0	0	1282948	692	0	correct_rejection	NA	0
27	Correct	102	102	1560	0	1	1	1283657	692	1	hit	326	0
27	Correct	103	103	1561	8	0	0	1284365	692	0	correct_rejection	NA	0
27	Correct	104	104	1562	7	0	0	1285074	692	0	correct_rejection	NA	0
27	Correct	105	105	1563	9	0	0	1285783	691	0	correct_rejection	NA	0
27	Correct	106	106	1564	8	0	0	1286491	692	0	correct_rejection	NA	0
27	Correct	107	107	1565	7	0	0	1287200	691	0	correct_rejection	NA	0
27	Correct	108	108	1566	9	0	0	1287908	692	0	correct_rejection	NA	0
27	Correct	109	109	1567	8	0	0	1288617	692	0	correct_rejection	NA	0
27	Correct	110	110	1568	0	1	1	1289325	692	1	hit	329	0
27	Correct	111	111	1569	7	0	0	1290034	692	0	correct_rejection	NA	0
27	Correct	112	112	1570	7	0	0	1290743	691	0	correct_rejection	NA	0
27	Correct	113	113	1571	8	0	0	1291451	692	0	correct_rejection	NA	0
27	Correct	114	114	1572	9	0	0	1292160	691	0	correct_rejection	NA	0
27	Correct	115	115	1573	7	0	0	1292868	692	0	correct_rejection	NA	0
27	Correct	116	116	1574	8	0	0	1293577	692	0	correct_rejection	NA	0
27	Correct	117	117	1575	9	0	0	1294285	692	0	correct_rejection	NA	0
27	Correct	118	118	1576	7	0	0	1294994	692	0	correct_rejection	NA	0
27	Correct	119	119	1577	8	0	0	1295703	691	0	correct_rejection	NA	0
27	Correct	120	120	1578	0	1	1	1296411	692	1	hit	319	0
27	Correct	121	121	1579	9	0	0	1297120	691	0	correct_rejection	NA	0
27	Correct	122	122	1580	4	0	0	1297828	692	0	correct_rejection	NA	0
27	Correct	123	123	1581	5	0	0	1298537	691	0	correct_rejection	NA	0
27	Correct	124	124	1582	6	0	0	1299245	692	0	correct_rejection	NA	0
27	Correct	125	125	1583	4	0	0	1299954	692	0	correct_rejection	NA	0
27	Correct	126	126	1584	5	0	0	1300663	691	0	correct_rejection	NA	0
27	Correct	127	127	1585	6	0	0	1301371	692	0	correct_rejection	NA	0
27	Correct	128	128	1586	4	0	0	1302080	691	0	correct_rejection	NA	0
27	Correct	129	129	1587	5	0	0	1302788	692	0	correct_rejection	NA	0
27	Correct	130	130	1588	0	1	1	1303497	691	1	hit	317	0
27	Correct	131	131	1589	6	0	0	1304205	692	0	correct_rejection	NA	0
27	Correct	132	132	1590	6	0	0	1304914	692	0	correct_rejection	NA	0
27	Correct	133	133	1591	0	1	1	1305622	692	1	hit	343	0
27	Correct	134	134	1592	5	0	0	1306331	692	0	correct_rejection	NA	0
27	Correct	135	135	1593	4	0	0	1307040	691	0	correct_rejection	NA	0
27	Correct	136	136	1594	6	0	0	1307748	692	0	correct_rejection	NA	0
27	Correct	137	137	1595	5	0	0	1308457	691	0	correct_rejection	NA	0
27	Correct	138	138	1596	4	0	0	1309165	692	0	correct_rejection	NA	0
27	Correct	139	139	1597	0	1	2	1309874	692	1	hit	308	0
27	Correct	140	140	1598	6	0	0	1310582	692	0	correct_rejection	NA	0
27	Correct	141	141	1599	5	0	0	1311291	692	0	correct_rejection	NA	0
