ID	block	trial_block	trial_cat	trial_total	number	violation	level_violation	onset	duration	Response	Hit_Miss	RT	pre_trial_fixcross_ISI
first_trigger_at: 11473
trigger nr 11 at 21472
28	Correct	1	1	1	4	0	0	28609	692	0	correct_rejection	NA	7099
28	Correct	2	2	2	5	0	0	29318	691	0	correct_rejection	NA	0
28	Correct	3	3	3	6	0	0	30026	692	0	correct_rejection	NA	0
28	Correct	4	4	4	0	1	2	30735	691	1	hit	305	0
28	Correct	5	5	5	4	0	0	31443	692	0	correct_rejection	NA	0
28	Correct	6	6	6	5	0	0	32152	691	0	correct_rejection	NA	0
28	Correct	7	7	7	6	0	0	32860	692	0	correct_rejection	NA	0
28	Correct	8	8	8	4	0	0	33569	692	0	correct_rejection	NA	0
28	Correct	9	9	9	5	0	0	34277	692	0	correct_rejection	NA	0
28	Correct	10	10	10	6	0	0	34986	692	0	correct_rejection	NA	0
28	Correct	11	11	11	0	1	3	35695	691	1	hit	280	0
28	Correct	12	12	12	6	0	0	36403	692	0	correct_rejection	NA	0
28	Correct	13	13	13	5	0	0	37112	691	0	correct_rejection	NA	0
28	Correct	14	14	14	4	0	0	37820	692	0	correct_rejection	NA	0
28	Correct	15	15	15	6	0	0	38529	692	0	correct_rejection	NA	0
28	Correct	16	16	16	0	1	1	39237	692	1	hit	305	0
28	Correct	17	17	17	5	0	0	39946	692	0	correct_rejection	NA	0
28	Correct	18	18	18	4	0	0	40655	691	0	correct_rejection	NA	0
28	Correct	19	19	19	6	0	0	41363	692	0	correct_rejection	NA	0
28	Correct	20	20	20	5	0	0	42072	691	0	correct_rejection	NA	0
28	Correct	21	21	21	4	0	0	42780	692	0	correct_rejection	NA	0
28	Correct	22	22	22	9	0	0	43489	692	0	correct_rejection	NA	0
28	Correct	23	23	23	8	0	0	44197	692	0	correct_rejection	NA	0
28	Correct	24	24	24	7	0	0	44906	692	0	correct_rejection	NA	0
28	Correct	25	25	25	9	0	0	45615	691	0	correct_rejection	NA	0
28	Correct	26	26	26	8	0	0	46323	692	0	correct_rejection	NA	0
28	Correct	27	27	27	7	0	0	47032	691	0	correct_rejection	NA	0
28	Correct	28	28	28	0	1	2	47740	692	1	hit	325	0
28	Correct	29	29	29	9	0	0	48449	692	0	correct_rejection	NA	0
28	Correct	30	30	30	8	0	0	49157	692	0	correct_rejection	NA	0
28	Correct	31	31	31	7	0	0	49866	692	0	correct_rejection	NA	0
28	Correct	32	32	32	7	0	0	50575	691	0	correct_rejection	NA	0
28	Correct	33	33	33	8	0	0	51283	692	0	correct_rejection	NA	0
28	Correct	34	34	34	9	0	0	51992	691	0	correct_rejection	NA	0
28	Correct	35	35	35	7	0	0	52700	692	0	correct_rejection	NA	0
28	Correct	36	36	36	8	0	0	53409	691	0	correct_rejection	NA	0
28	Correct	37	37	37	9	0	0	54117	692	0	correct_rejection	NA	0
28	Correct	38	38	38	7	0	0	54826	692	0	correct_rejection	NA	0
28	Correct	39	39	39	8	0	0	55535	691	0	correct_rejection	NA	0
28	Correct	40	40	40	9	0	0	56243	692	0	correct_rejection	NA	0
28	Correct	41	41	41	0	1	4	56952	691	1	hit	291	0
28	Correct	42	42	42	4	0	0	57660	692	0	correct_rejection	NA	0
28	Correct	43	43	43	5	0	0	58369	691	0	correct_rejection	NA	0
28	Correct	44	44	44	0	1	1	59077	692	1	hit	442	0
28	Correct	45	45	45	6	0	0	59786	692	0	correct_rejection	NA	0
28	Correct	46	46	46	4	0	0	60494	692	0	correct_rejection	NA	0
28	Correct	47	47	47	5	0	0	61203	692	0	correct_rejection	NA	0
28	Correct	48	48	48	6	0	0	61912	691	0	correct_rejection	NA	0
28	Correct	49	49	49	4	0	0	62620	692	0	correct_rejection	NA	0
28	Correct	50	50	50	5	0	0	63329	691	0	correct_rejection	NA	0
28	Correct	51	51	51	6	0	0	64037	692	0	correct_rejection	NA	0
28	Correct	52	52	52	6	0	0	64746	692	0	correct_rejection	NA	0
28	Correct	53	53	53	5	0	0	65454	692	0	correct_rejection	NA	0
28	Correct	54	54	54	4	0	0	66163	692	0	correct_rejection	NA	0
28	Correct	55	55	55	6	0	0	66872	691	0	correct_rejection	NA	0
28	Correct	56	56	56	5	0	0	67580	692	0	correct_rejection	NA	0
28	Correct	57	57	57	4	0	0	68289	691	0	correct_rejection	NA	0
28	Correct	58	58	58	6	0	0	68997	692	0	correct_rejection	NA	0
28	Correct	59	59	59	5	0	0	69706	692	0	correct_rejection	NA	0
28	Correct	60	60	60	4	0	0	70414	692	0	correct_rejection	NA	0
28	Correct	61	61	61	9	0	0	71123	692	0	correct_rejection	NA	0
28	Correct	62	62	62	8	0	0	71832	691	0	correct_rejection	NA	0
28	Correct	63	63	63	7	0	0	72540	692	0	correct_rejection	NA	0
28	Correct	64	64	64	9	0	0	73249	691	0	correct_rejection	NA	0
28	Correct	65	65	65	8	0	0	73957	692	0	correct_rejection	NA	0
28	Correct	66	66	66	7	0	0	74666	692	0	correct_rejection	NA	0
28	Correct	67	67	67	9	0	0	75374	692	0	correct_rejection	NA	0
28	Correct	68	68	68	8	0	0	76083	692	0	correct_rejection	NA	0
28	Correct	69	69	69	7	0	0	76792	691	0	correct_rejection	NA	0
28	Correct	70	70	70	7	0	0	77500	692	0	correct_rejection	NA	0
28	Correct	71	71	71	8	0	0	78209	691	0	correct_rejection	NA	0
28	Correct	72	72	72	9	0	0	78917	692	0	correct_rejection	NA	0
28	Correct	73	73	73	7	0	0	79626	692	0	correct_rejection	NA	0
28	Correct	74	74	74	8	0	0	80334	692	0	correct_rejection	NA	0
28	Correct	75	75	75	9	0	0	81043	692	0	correct_rejection	NA	0
28	Correct	76	76	76	7	0	0	81752	691	0	correct_rejection	NA	0
28	Correct	77	77	77	8	0	0	82460	692	0	correct_rejection	NA	0
28	Correct	78	78	78	9	0	0	83169	691	0	correct_rejection	NA	0
28	Correct	79	79	79	4	0	0	83877	692	0	correct_rejection	NA	0
28	Correct	80	80	80	0	1	1	84586	691	1	hit	319	0
28	Correct	81	81	81	5	0	0	85294	692	0	correct_rejection	NA	0
28	Correct	82	82	82	6	0	0	86003	692	0	correct_rejection	NA	0
28	Correct	83	83	83	4	0	0	86711	692	0	correct_rejection	NA	0
28	Correct	84	84	84	5	0	0	87420	692	0	correct_rejection	NA	0
28	Correct	85	85	85	6	0	0	88129	691	0	correct_rejection	NA	0
28	Correct	86	86	86	4	0	0	88837	692	0	correct_rejection	NA	0
28	Correct	87	87	87	0	1	1	89546	691	1	hit	308	0
28	Correct	88	88	88	5	0	0	90254	692	0	correct_rejection	NA	0
28	Correct	89	89	89	6	0	0	90963	692	0	correct_rejection	NA	0
28	Correct	90	90	90	6	0	0	91671	692	0	correct_rejection	NA	0
28	Correct	91	91	91	5	0	0	92380	692	0	correct_rejection	NA	0
28	Correct	92	92	92	0	1	1	93089	691	1	hit	343	0
28	Correct	93	93	93	4	0	0	93797	692	0	correct_rejection	NA	0
28	Correct	94	94	94	6	0	0	94506	691	0	correct_rejection	NA	0
28	Correct	95	95	95	5	0	0	95214	692	0	correct_rejection	NA	0
28	Correct	96	96	96	0	1	1	95923	692	1	hit	353	0
28	Correct	97	97	97	4	0	0	96631	692	0	correct_rejection	NA	0
28	Correct	98	98	98	6	0	0	97340	692	0	correct_rejection	NA	0
28	Correct	99	99	99	5	0	0	98049	691	0	correct_rejection	NA	0
28	Correct	100	100	100	4	0	0	98757	692	0	correct_rejection	NA	0
28	Correct	101	101	101	9	0	0	99466	691	0	correct_rejection	NA	0
28	Correct	102	102	102	0	1	1	100174	692	1	hit	288	0
28	Correct	103	103	103	8	0	0	100883	692	0	correct_rejection	NA	0
28	Correct	104	104	104	7	0	0	101591	692	0	correct_rejection	NA	0
28	Correct	105	105	105	9	0	0	102300	692	0	correct_rejection	NA	0
28	Correct	106	106	106	8	0	0	103009	691	0	correct_rejection	NA	0
28	Correct	107	107	107	7	0	0	103717	692	0	correct_rejection	NA	0
28	Correct	108	108	108	9	0	0	104426	691	0	correct_rejection	NA	0
28	Correct	109	109	109	8	0	0	105134	692	0	correct_rejection	NA	0
28	Correct	110	110	110	0	1	1	105843	691	1	hit	335	0
28	Correct	111	111	111	7	0	0	106551	692	0	correct_rejection	NA	0
28	Correct	112	112	112	7	0	0	107260	692	0	correct_rejection	NA	0
28	Correct	113	113	113	8	0	0	107969	691	0	correct_rejection	NA	0
28	Correct	114	114	114	9	0	0	108677	692	0	correct_rejection	NA	0
28	Correct	115	115	115	7	0	0	109386	691	0	correct_rejection	NA	0
28	Correct	116	116	116	8	0	0	110094	692	0	correct_rejection	NA	0
28	Correct	117	117	117	9	0	0	110803	691	0	correct_rejection	NA	0
28	Correct	118	118	118	7	0	0	111511	692	0	correct_rejection	NA	0
28	Correct	119	119	119	8	0	0	112220	692	0	correct_rejection	NA	0
28	Correct	120	120	120	0	1	1	112928	692	1	hit	331	0
28	Correct	121	121	121	9	0	0	113637	692	0	correct_rejection	NA	0
28	Correct	122	122	122	4	0	0	114346	691	0	correct_rejection	NA	0
28	Correct	123	123	123	5	0	0	115054	692	0	correct_rejection	NA	0
28	Correct	124	124	124	6	0	0	115763	691	0	correct_rejection	NA	0
28	Correct	125	125	125	4	0	0	116471	692	0	correct_rejection	NA	0
28	Correct	126	126	126	5	0	0	117180	692	0	correct_rejection	NA	0
28	Correct	127	127	127	6	0	0	117888	692	0	correct_rejection	NA	0
28	Correct	128	128	128	4	0	0	118597	692	0	correct_rejection	NA	0
28	Correct	129	129	129	5	0	0	119306	691	0	correct_rejection	NA	0
28	Correct	130	130	130	0	1	1	120014	692	1	hit	269	0
28	Correct	131	131	131	6	0	0	120723	691	0	correct_rejection	NA	0
28	Correct	132	132	132	6	0	0	121431	692	0	correct_rejection	NA	0
28	Correct	133	133	133	0	1	1	122140	692	1	hit	374	0
28	Correct	134	134	134	5	0	0	122848	692	0	correct_rejection	NA	0
28	Correct	135	135	135	4	0	0	123557	692	0	correct_rejection	NA	0
28	Correct	136	136	136	6	0	0	124266	691	0	correct_rejection	NA	0
28	Correct	137	137	137	5	0	0	124974	692	0	correct_rejection	NA	0
28	Correct	138	138	138	4	0	0	125683	691	0	correct_rejection	NA	0
28	Correct	139	139	139	0	1	2	126391	692	1	hit	263	0
28	Correct	140	140	140	6	0	0	127100	692	0	correct_rejection	NA	0
28	Correct	141	141	141	5	0	0	127808	692	0	correct_rejection	NA	0
28	Correct	142	142	142	4	0	0	128517	692	0	correct_rejection	NA	0
28	Correct	143	143	143	9	0	0	129226	691	0	correct_rejection	NA	0
28	Correct	144	144	144	8	0	0	129934	692	0	correct_rejection	NA	0
28	Correct	145	145	145	7	0	0	130643	691	0	correct_rejection	NA	0
28	Correct	146	146	146	9	0	0	131351	692	0	correct_rejection	NA	0
28	Correct	147	147	147	8	0	0	132060	692	0	correct_rejection	NA	0
28	Correct	148	148	148	7	0	0	132768	692	0	correct_rejection	NA	0
28	Correct	149	149	149	9	0	0	133477	692	0	correct_rejection	NA	0
28	Correct	150	150	150	0	1	1	134186	691	1	hit	363	0
28	Correct	151	151	151	8	0	0	134894	692	0	correct_rejection	NA	0
28	Correct	152	152	152	7	0	0	135603	691	0	correct_rejection	NA	0
28	Correct	153	153	153	7	0	0	136311	692	0	correct_rejection	NA	0
28	Correct	154	154	154	8	0	0	137020	691	0	correct_rejection	NA	0
28	Correct	155	155	155	9	0	0	137728	692	0	correct_rejection	NA	0
28	Correct	156	156	156	0	1	2	138437	692	1	hit	332	0
28	Correct	157	157	157	7	0	0	139145	692	0	correct_rejection	NA	0
28	Correct	158	158	158	8	0	0	139854	692	0	correct_rejection	NA	0
28	Correct	159	159	159	9	0	0	140563	691	0	correct_rejection	NA	0
28	Correct	160	160	160	7	0	0	141271	692	0	correct_rejection	NA	0
28	Correct	161	161	161	8	0	0	141980	691	0	correct_rejection	NA	0
28	Correct	162	162	162	9	0	0	142688	692	0	correct_rejection	NA	0
28	Single	1	163	163	8	0	0	151500	691	0	correct_rejection	NA	6999
28	Single	2	164	164	6	0	0	152208	692	0	correct_rejection	NA	0
28	Single	3	165	165	7	0	0	152917	691	0	correct_rejection	NA	0
28	Single	4	166	166	5	0	0	153625	692	0	correct_rejection	NA	0
28	Single	5	167	167	0	1	1	154334	692	1	hit	337	0
28	Single	6	168	168	5	0	0	155042	692	0	correct_rejection	NA	0
28	Single	7	169	169	7	0	0	155751	692	0	correct_rejection	NA	0
28	Single	8	170	170	6	0	0	156460	691	0	correct_rejection	NA	0
28	Single	9	171	171	0	1	1	157168	692	1	hit	327	0
28	Single	10	172	172	8	0	0	157877	691	0	correct_rejection	NA	0
28	Single	11	173	173	7	0	0	158585	692	0	correct_rejection	NA	0
28	Single	12	174	174	7	0	0	159294	691	0	correct_rejection	NA	0
28	Single	13	175	175	8	0	0	160002	692	0	correct_rejection	NA	0
28	Single	14	176	176	8	0	0	160711	692	0	correct_rejection	NA	0
28	Single	15	177	177	4	0	0	161420	691	0	correct_rejection	NA	0
28	Single	16	178	178	7	0	0	162128	692	0	correct_rejection	NA	0
28	Single	17	179	179	0	1	1	162837	691	1	hit	340	0
28	Single	18	180	180	9	0	0	163545	692	0	correct_rejection	NA	0
28	Single	19	181	181	6	0	0	164254	691	0	correct_rejection	NA	0
28	Single	20	182	182	5	0	0	164962	692	0	correct_rejection	NA	0
28	Single	21	183	183	9	0	0	165671	692	0	correct_rejection	NA	0
28	Single	22	184	184	7	0	0	166379	692	0	correct_rejection	NA	0
28	Single	23	185	185	4	0	0	167088	692	0	correct_rejection	NA	0
28	Single	24	186	186	4	0	0	167797	691	0	correct_rejection	NA	0
28	Single	25	187	187	0	1	1	168505	692	1	hit	337	0
28	Single	26	188	188	6	0	0	169214	691	0	correct_rejection	NA	0
28	Single	27	189	189	9	0	0	169922	692	0	correct_rejection	NA	0
28	Single	28	190	190	9	0	0	170631	692	0	correct_rejection	NA	0
28	Single	29	191	191	5	0	0	171339	692	0	correct_rejection	NA	0
28	Single	30	192	192	6	0	0	172048	692	0	correct_rejection	NA	0
28	Single	31	193	193	6	0	0	172757	691	0	correct_rejection	NA	0
28	Single	32	194	194	0	1	1	173465	692	1	hit	302	0
28	Single	33	195	195	4	0	0	174174	691	0	correct_rejection	NA	0
28	Single	34	196	196	8	0	0	174882	692	0	correct_rejection	NA	0
28	Single	35	197	197	5	0	0	175591	692	0	correct_rejection	NA	0
28	Single	36	198	198	4	0	0	176299	692	0	correct_rejection	NA	0
28	Single	37	199	199	9	0	0	177008	692	0	correct_rejection	NA	0
28	Single	38	200	200	4	0	0	177717	691	0	correct_rejection	NA	0
28	Single	39	201	201	5	0	0	178425	692	0	correct_rejection	NA	0
28	Single	40	202	202	8	0	0	179134	691	0	correct_rejection	NA	0
28	Single	41	203	203	9	0	0	179842	692	0	correct_rejection	NA	0
28	Single	42	204	204	9	0	0	180551	692	0	correct_rejection	NA	0
28	Single	43	205	205	7	0	0	181259	692	0	correct_rejection	NA	0
28	Single	44	206	206	6	0	0	181968	692	0	correct_rejection	NA	0
28	Single	45	207	207	9	0	0	182677	691	0	correct_rejection	NA	0
28	Single	46	208	208	6	0	0	183385	692	0	correct_rejection	NA	0
28	Single	47	209	209	8	0	0	184094	691	0	correct_rejection	NA	0
28	Single	48	210	210	0	1	1	184802	692	1	hit	344	0
28	Single	49	211	211	4	0	0	185511	691	0	correct_rejection	NA	0
28	Single	50	212	212	8	0	0	186219	692	0	correct_rejection	NA	0
28	Single	51	213	213	8	0	0	186928	692	0	correct_rejection	NA	0
28	Single	52	214	214	0	1	1	187637	691	1	hit	500	0
28	Single	53	215	215	5	0	0	188345	692	0	correct_rejection	NA	0
28	Single	54	216	216	7	0	0	189054	691	0	correct_rejection	NA	0
28	Single	55	217	217	7	0	0	189762	692	0	correct_rejection	NA	0
28	Single	56	218	218	5	0	0	190471	691	0	correct_rejection	NA	0
28	Single	57	219	219	6	0	0	191179	692	0	correct_rejection	NA	0
28	Single	58	220	220	4	0	0	191888	692	0	correct_rejection	NA	0
28	Single	59	221	221	7	0	0	192596	692	0	correct_rejection	NA	0
28	Single	60	222	222	0	1	1	193305	692	1	hit	450	0
28	Single	61	223	223	4	0	0	194014	691	0	correct_rejection	NA	0
28	Single	62	224	224	6	0	0	194722	692	0	correct_rejection	NA	0
28	Single	63	225	225	5	0	0	195431	691	0	correct_rejection	NA	0
28	Single	64	226	226	5	0	0	196139	692	0	correct_rejection	NA	0
28	Single	65	227	227	8	0	0	196848	692	0	correct_rejection	NA	0
28	Single	66	228	228	0	1	1	197556	692	1	hit	364	0
28	Single	67	229	229	7	0	0	198265	692	0	correct_rejection	NA	0
28	Single	68	230	230	8	0	0	198974	691	0	correct_rejection	NA	0
28	Single	69	231	231	9	0	0	199682	692	0	correct_rejection	NA	0
28	Single	70	232	232	0	1	1	200391	691	1	hit	392	0
28	Single	71	233	233	4	0	0	201099	692	0	correct_rejection	NA	0
28	Single	72	234	234	9	0	0	201808	692	0	correct_rejection	NA	0
28	Single	73	235	235	5	0	0	202516	692	0	correct_rejection	NA	0
28	Single	74	236	236	4	0	0	203225	692	0	correct_rejection	NA	0
28	Single	75	237	237	4	0	0	203934	691	0	correct_rejection	NA	0
28	Single	76	238	238	5	0	0	204642	692	0	correct_rejection	NA	0
28	Single	77	239	239	0	1	1	205351	691	1	hit	297	0
28	Single	78	240	240	9	0	0	206059	692	0	correct_rejection	NA	0
28	Single	79	241	241	9	0	0	206768	692	0	correct_rejection	NA	0
28	Single	80	242	242	8	0	0	207476	692	0	correct_rejection	NA	0
28	Single	81	243	243	6	0	0	208185	692	0	correct_rejection	NA	0
28	Single	82	244	244	6	0	0	208894	691	0	correct_rejection	NA	0
28	Single	83	245	245	7	0	0	209602	692	0	correct_rejection	NA	0
28	Single	84	246	246	7	0	0	210311	691	0	correct_rejection	NA	0
28	Single	85	247	247	5	0	0	211019	692	0	correct_rejection	NA	0
28	Single	86	248	248	7	0	0	211728	691	0	correct_rejection	NA	0
28	Single	87	249	249	9	0	0	212436	692	0	correct_rejection	NA	0
28	Single	88	250	250	9	0	0	213145	692	0	correct_rejection	NA	0
28	Single	89	251	251	7	0	0	213854	691	0	correct_rejection	NA	0
28	Single	90	252	252	7	0	0	214562	692	0	correct_rejection	NA	0
28	Single	91	253	253	4	0	0	215271	691	0	correct_rejection	NA	0
28	Single	92	254	254	8	0	0	215979	692	0	correct_rejection	NA	0
28	Single	93	255	255	7	0	0	216688	691	0	correct_rejection	NA	0
28	Single	94	256	256	6	0	0	217396	692	0	correct_rejection	NA	0
28	Single	95	257	257	5	0	0	218105	692	0	correct_rejection	NA	0
28	Single	96	258	258	6	0	0	218813	692	0	correct_rejection	NA	0
28	Single	97	259	259	7	0	0	219522	692	0	correct_rejection	NA	0
28	Single	98	260	260	8	0	0	220231	691	0	correct_rejection	NA	0
28	Single	99	261	261	5	0	0	220939	692	0	correct_rejection	NA	0
28	Single	100	262	262	9	0	0	221648	691	0	correct_rejection	NA	0
28	Single	101	263	263	4	0	0	222356	692	0	correct_rejection	NA	0
28	Single	102	264	264	4	0	0	223065	692	0	correct_rejection	NA	0
28	Single	103	265	265	9	0	0	223773	692	0	correct_rejection	NA	0
28	Single	104	266	266	0	1	1	224482	692	1	hit	362	0
28	Single	105	267	267	8	0	0	225191	691	0	correct_rejection	NA	0
28	Single	106	268	268	9	0	0	225899	692	0	correct_rejection	NA	0
28	Single	107	269	269	6	0	0	226608	691	0	correct_rejection	NA	0
28	Single	108	270	270	9	0	0	227316	692	0	correct_rejection	NA	0
28	Single	109	271	271	0	1	1	228025	692	1	hit	333	0
28	Single	110	272	272	5	0	0	228733	692	0	correct_rejection	NA	0
28	Single	111	273	273	8	0	0	229442	692	0	correct_rejection	NA	0
28	Single	112	274	274	4	0	0	230151	691	0	correct_rejection	NA	0
28	Single	113	275	275	5	0	0	230859	692	0	correct_rejection	NA	0
28	Single	114	276	276	5	0	0	231568	691	0	correct_rejection	NA	0
28	Single	115	277	277	4	0	0	232276	692	0	correct_rejection	NA	0
28	Single	116	278	278	6	0	0	232985	692	0	correct_rejection	NA	0
28	Single	117	279	279	6	0	0	233693	692	0	correct_rejection	NA	0
28	Single	118	280	280	8	0	0	234402	692	0	correct_rejection	NA	0
28	Single	119	281	281	8	0	0	235111	691	0	correct_rejection	NA	0
28	Single	120	282	282	6	0	0	235819	692	0	correct_rejection	NA	0
28	Single	121	283	283	4	0	0	236528	691	0	correct_rejection	NA	0
28	Single	122	284	284	8	0	0	237236	692	0	correct_rejection	NA	0
28	Single	123	285	285	4	0	0	237945	691	0	correct_rejection	NA	0
28	Single	124	286	286	6	0	0	238653	692	0	correct_rejection	NA	0
28	Single	125	287	287	0	1	1	239362	692	1	hit	370	0
28	Single	126	288	288	9	0	0	240071	691	0	correct_rejection	NA	0
28	Single	127	289	289	8	0	0	240779	692	0	correct_rejection	NA	0
28	Single	128	290	290	8	0	0	241488	691	0	correct_rejection	NA	0
28	Single	129	291	291	0	1	1	242196	692	1	hit	441	0
28	Single	130	292	292	9	0	0	242905	691	0	correct_rejection	NA	0
28	Single	131	293	293	5	0	0	243613	692	0	correct_rejection	NA	0
28	Single	132	294	294	9	0	0	244322	692	0	correct_rejection	NA	0
28	Single	133	295	295	7	0	0	245030	692	0	correct_rejection	NA	0
28	Single	134	296	296	5	0	0	245739	692	0	correct_rejection	NA	0
28	Single	135	297	297	8	0	0	246448	691	0	correct_rejection	NA	0
28	Single	136	298	298	5	0	0	247156	692	0	correct_rejection	NA	0
28	Single	137	299	299	5	0	0	247865	691	0	correct_rejection	NA	0
28	Single	138	300	300	6	0	0	248573	692	0	correct_rejection	NA	0
28	Single	139	301	301	8	0	0	249282	692	0	correct_rejection	NA	0
28	Single	140	302	302	0	1	1	249990	692	1	hit	453	0
28	Single	141	303	303	6	0	0	250699	692	0	correct_rejection	NA	0
28	Single	142	304	304	7	0	0	251408	691	0	correct_rejection	NA	0
28	Single	143	305	305	9	0	0	252116	692	0	correct_rejection	NA	0
28	Single	144	306	306	6	0	0	252825	691	0	correct_rejection	NA	0
28	Single	145	307	307	0	1	1	253533	692	1	hit	358	0
28	Single	146	308	308	5	0	0	254242	692	0	correct_rejection	NA	0
28	Single	147	309	309	4	0	0	254950	692	0	correct_rejection	NA	0
28	Single	148	310	310	0	1	1	255659	692	1	hit	365	0
28	Single	149	311	311	5	0	0	256368	691	0	correct_rejection	NA	0
28	Single	150	312	312	7	0	0	257076	692	0	correct_rejection	NA	0
28	Single	151	313	313	8	0	0	257785	691	0	correct_rejection	NA	0
28	Single	152	314	314	7	0	0	258493	692	0	correct_rejection	NA	0
28	Single	153	315	315	4	0	0	259202	692	0	correct_rejection	NA	0
28	Single	154	316	316	4	0	0	259910	692	0	correct_rejection	NA	0
28	Single	155	317	317	7	0	0	260619	692	0	correct_rejection	NA	0
28	Single	156	318	318	7	0	0	261328	691	0	correct_rejection	NA	0
28	Single	157	319	319	6	0	0	262036	692	0	correct_rejection	NA	0
28	Single	158	320	320	6	0	0	262745	691	0	correct_rejection	NA	0
28	Single	159	321	321	4	0	0	263453	692	0	correct_rejection	NA	0
28	Single	160	322	322	9	0	0	264162	691	0	correct_rejection	NA	0
28	Single	161	323	323	9	0	0	264870	692	0	correct_rejection	NA	0
28	Single	162	324	324	4	0	0	265579	692	0	correct_rejection	NA	0
28	Triplet	1	1	325	9	0	0	275332	692	0	correct_rejection	NA	7829
28	Triplet	2	2	326	8	0	0	276041	691	0	correct_rejection	NA	0
28	Triplet	3	3	327	7	0	0	276749	692	0	correct_rejection	NA	0
28	Triplet	4	4	328	6	0	0	277458	692	0	correct_rejection	NA	0
28	Triplet	5	5	329	5	0	0	278166	692	0	correct_rejection	NA	0
28	Triplet	6	6	330	4	0	0	278875	692	0	correct_rejection	NA	0
28	Triplet	7	7	331	7	0	0	279584	691	0	correct_rejection	NA	0
28	Triplet	8	8	332	8	0	0	280292	692	0	correct_rejection	NA	0
28	Triplet	9	9	333	9	0	0	281001	691	0	correct_rejection	NA	0
28	Triplet	10	10	334	7	0	0	281709	692	0	correct_rejection	NA	0
28	Triplet	11	11	335	8	0	0	282418	692	0	correct_rejection	NA	0
28	Triplet	12	12	336	9	0	0	283126	692	0	correct_rejection	NA	0
28	Triplet	13	13	337	0	1	2	283835	692	1	hit	348	0
28	Triplet	14	14	338	4	0	0	284544	691	0	correct_rejection	NA	0
28	Triplet	15	15	339	5	0	0	285252	692	0	correct_rejection	NA	0
28	Triplet	16	16	340	0	1	1	285961	691	1	hit	427	0
28	Triplet	17	17	341	6	0	0	286669	692	0	correct_rejection	NA	0
28	Triplet	18	18	342	6	0	0	287378	691	0	correct_rejection	NA	0
28	Triplet	19	19	343	0	1	1	288086	692	1	hit	395	0
28	Triplet	20	20	344	5	0	0	288795	692	0	correct_rejection	NA	0
28	Triplet	21	21	345	4	0	0	289504	691	0	correct_rejection	NA	0
28	Triplet	22	22	346	4	0	0	290212	692	0	correct_rejection	NA	0
28	Triplet	23	23	347	5	0	0	290921	691	0	correct_rejection	NA	0
28	Triplet	24	24	348	6	0	0	291629	692	0	correct_rejection	NA	0
28	Triplet	25	25	349	0	1	2	292338	691	1	hit	376	0
28	Triplet	26	26	350	7	0	0	293046	692	0	correct_rejection	NA	0
28	Triplet	27	27	351	8	0	0	293755	692	0	correct_rejection	NA	0
28	Triplet	28	28	352	9	0	0	294463	692	0	correct_rejection	NA	0
28	Triplet	29	29	353	9	0	0	295172	692	0	correct_rejection	NA	0
28	Triplet	30	30	354	8	0	0	295881	691	0	correct_rejection	NA	0
28	Triplet	31	31	355	7	0	0	296589	692	0	correct_rejection	NA	0
28	Triplet	32	32	356	7	0	0	297298	691	0	correct_rejection	NA	0
28	Triplet	33	33	357	8	0	0	298006	692	0	correct_rejection	NA	0
28	Triplet	34	34	358	9	0	0	298715	692	0	correct_rejection	NA	0
28	Triplet	35	35	359	6	0	0	299423	692	0	correct_rejection	NA	0
28	Triplet	36	36	360	5	0	0	300132	692	0	correct_rejection	NA	0
28	Triplet	37	37	361	4	0	0	300841	691	0	correct_rejection	NA	0
28	Triplet	38	38	362	6	0	0	301549	692	0	correct_rejection	NA	0
28	Triplet	39	39	363	5	0	0	302258	691	0	correct_rejection	NA	0
28	Triplet	40	40	364	4	0	0	302966	692	0	correct_rejection	NA	0
28	Triplet	41	41	365	9	0	0	303675	692	0	correct_rejection	NA	0
28	Triplet	42	42	366	8	0	0	304383	692	0	correct_rejection	NA	0
28	Triplet	43	43	367	7	0	0	305092	692	0	correct_rejection	NA	0
28	Triplet	44	44	368	9	0	0	305801	691	0	correct_rejection	NA	0
28	Triplet	45	45	369	8	0	0	306509	692	0	correct_rejection	NA	0
28	Triplet	46	46	370	7	0	0	307218	691	0	correct_rejection	NA	0
28	Triplet	47	47	371	0	1	2	307926	692	1	hit	363	0
28	Triplet	48	48	372	4	0	0	308635	692	0	correct_rejection	NA	0
28	Triplet	49	49	373	5	0	0	309343	692	0	correct_rejection	NA	0
28	Triplet	50	50	374	0	1	1	310052	692	1	hit	402	0
28	Triplet	51	51	375	6	0	0	310761	691	0	correct_rejection	NA	0
28	Triplet	52	52	376	4	0	0	311469	692	0	correct_rejection	NA	0
28	Triplet	53	53	377	5	0	0	312178	691	0	correct_rejection	NA	0
28	Triplet	54	54	378	6	0	0	312886	692	0	correct_rejection	NA	0
28	Triplet	55	55	379	9	0	0	313595	691	0	correct_rejection	NA	0
28	Triplet	56	56	380	8	0	0	314303	692	0	correct_rejection	NA	0
28	Triplet	57	57	381	7	0	0	315012	692	0	correct_rejection	NA	0
28	Triplet	58	58	382	4	0	0	315720	692	0	correct_rejection	NA	0
28	Triplet	59	59	383	5	0	0	316429	692	0	correct_rejection	NA	0
28	Triplet	60	60	384	6	0	0	317138	691	0	correct_rejection	NA	0
28	Triplet	61	61	385	0	1	2	317846	692	1	hit	375	0
28	Triplet	62	62	386	6	0	0	318555	691	0	correct_rejection	NA	0
28	Triplet	63	63	387	5	0	0	319263	692	0	correct_rejection	NA	0
28	Triplet	64	64	388	0	1	1	319972	692	1	hit	374	0
28	Triplet	65	65	389	4	0	0	320680	692	0	correct_rejection	NA	0
28	Triplet	66	66	390	6	0	0	321389	692	0	correct_rejection	NA	0
28	Triplet	67	67	391	5	0	0	322098	691	0	correct_rejection	NA	0
28	Triplet	68	68	392	4	0	0	322806	692	0	correct_rejection	NA	0
28	Triplet	69	69	393	0	1	2	323515	691	1	hit	344	0
28	Triplet	70	70	394	7	0	0	324223	692	0	correct_rejection	NA	0
28	Triplet	71	71	395	8	0	0	324932	692	0	correct_rejection	NA	0
28	Triplet	72	72	396	0	1	1	325640	692	1	hit	347	0
28	Triplet	73	73	397	9	0	0	326349	692	0	correct_rejection	NA	0
28	Triplet	74	74	398	4	0	0	327058	691	0	correct_rejection	NA	0
28	Triplet	75	75	399	0	1	1	327766	692	1	hit	308	0
28	Triplet	76	76	400	5	0	0	328475	691	0	correct_rejection	NA	0
28	Triplet	77	77	401	6	0	0	329183	692	0	correct_rejection	NA	0
28	Triplet	78	78	402	9	0	0	329892	692	0	correct_rejection	NA	0
28	Triplet	79	79	403	8	0	0	330600	692	0	correct_rejection	NA	0
28	Triplet	80	80	404	7	0	0	331309	692	0	correct_rejection	NA	0
28	Triplet	81	81	405	7	0	0	332018	691	0	correct_rejection	NA	0
28	Triplet	82	82	406	8	0	0	332726	692	0	correct_rejection	NA	0
28	Triplet	83	83	407	9	0	0	333435	691	0	correct_rejection	NA	0
28	Triplet	84	84	408	0	1	2	334143	692	1	hit	408	0
28	Triplet	85	85	409	9	0	0	334852	692	0	correct_rejection	NA	0
28	Triplet	86	86	410	8	0	0	335560	692	0	correct_rejection	NA	0
28	Triplet	87	87	411	7	0	0	336269	692	0	correct_rejection	NA	0
28	Triplet	88	88	412	6	0	0	336978	691	0	correct_rejection	NA	0
28	Triplet	89	89	413	5	0	0	337686	692	0	correct_rejection	NA	0
28	Triplet	90	90	414	4	0	0	338395	691	0	correct_rejection	NA	0
28	Triplet	91	91	415	4	0	0	339103	692	0	correct_rejection	NA	0
28	Triplet	92	92	416	5	0	0	339812	691	0	correct_rejection	NA	0
28	Triplet	93	93	417	6	0	0	340520	692	0	correct_rejection	NA	0
28	Triplet	94	94	418	4	0	0	341229	692	0	correct_rejection	NA	0
28	Triplet	95	95	419	0	1	1	341938	691	1	hit	344	0
28	Triplet	96	96	420	5	0	0	342646	692	0	correct_rejection	NA	0
28	Triplet	97	97	421	6	0	0	343355	691	0	correct_rejection	NA	0
28	Triplet	98	98	422	7	0	0	344063	692	0	correct_rejection	NA	0
28	Triplet	99	99	423	8	0	0	344772	691	0	correct_rejection	NA	0
28	Triplet	100	100	424	9	0	0	345480	692	0	correct_rejection	NA	0
28	Triplet	101	101	425	7	0	0	346189	692	0	correct_rejection	NA	0
28	Triplet	102	102	426	8	0	0	346897	692	0	correct_rejection	NA	0
28	Triplet	103	103	427	9	0	0	347606	692	0	correct_rejection	NA	0
28	Triplet	104	104	428	6	0	0	348315	691	0	correct_rejection	NA	0
28	Triplet	105	105	429	5	0	0	349023	692	0	correct_rejection	NA	0
28	Triplet	106	106	430	4	0	0	349732	691	0	correct_rejection	NA	0
28	Triplet	107	107	431	9	0	0	350440	692	0	correct_rejection	NA	0
28	Triplet	108	108	432	8	0	0	351149	692	0	correct_rejection	NA	0
28	Triplet	109	109	433	0	1	1	351857	692	1	hit	401	0
28	Triplet	110	110	434	7	0	0	352566	692	0	correct_rejection	NA	0
28	Triplet	111	111	435	7	0	0	353275	691	0	correct_rejection	NA	0
28	Triplet	112	112	436	8	0	0	353983	692	0	correct_rejection	NA	0
28	Triplet	113	113	437	9	0	0	354692	691	0	correct_rejection	NA	0
28	Triplet	114	114	438	4	0	0	355400	692	0	correct_rejection	NA	0
28	Triplet	115	115	439	5	0	0	356109	692	0	correct_rejection	NA	0
28	Triplet	116	116	440	6	0	0	356817	692	0	correct_rejection	NA	0
28	Triplet	117	117	441	4	0	0	357526	692	0	correct_rejection	NA	0
28	Triplet	118	118	442	5	0	0	358235	691	0	correct_rejection	NA	0
28	Triplet	119	119	443	6	0	0	358943	692	0	correct_rejection	NA	0
28	Triplet	120	120	444	0	1	2	359652	691	1	hit	348	0
28	Triplet	121	121	445	9	0	0	360360	692	0	correct_rejection	NA	0
28	Triplet	122	122	446	8	0	0	361069	692	0	correct_rejection	NA	0
28	Triplet	123	123	447	7	0	0	361777	692	0	correct_rejection	NA	0
28	Triplet	124	124	448	4	0	0	362486	692	0	correct_rejection	NA	0
28	Triplet	125	125	449	5	0	0	363195	691	0	correct_rejection	NA	0
28	Triplet	126	126	450	6	0	0	363903	692	0	correct_rejection	NA	0
28	Triplet	127	127	451	7	0	0	364612	691	0	correct_rejection	NA	0
28	Triplet	128	128	452	8	0	0	365320	692	0	correct_rejection	NA	0
28	Triplet	129	129	453	0	1	1	366029	691	1	hit	467	0
28	Triplet	130	130	454	9	0	0	366737	692	0	correct_rejection	NA	0
28	Triplet	131	131	455	6	0	0	367446	692	0	correct_rejection	NA	0
28	Triplet	132	132	456	5	0	0	368154	692	0	correct_rejection	NA	0
28	Triplet	133	133	457	4	0	0	368863	692	0	correct_rejection	NA	0
28	Triplet	134	134	458	0	1	2	369572	691	1	hit	337	0
28	Triplet	135	135	459	4	0	0	370280	692	0	correct_rejection	NA	0
28	Triplet	136	136	460	5	0	0	370989	691	0	correct_rejection	NA	0
28	Triplet	137	137	461	6	0	0	371697	692	0	correct_rejection	NA	0
28	Triplet	138	138	462	6	0	0	372406	692	0	correct_rejection	NA	0
28	Triplet	139	139	463	5	0	0	373114	692	0	correct_rejection	NA	0
28	Triplet	140	140	464	4	0	0	373823	692	0	correct_rejection	NA	0
28	Triplet	141	141	465	9	0	0	374532	691	0	correct_rejection	NA	0
28	Triplet	142	142	466	8	0	0	375240	692	0	correct_rejection	NA	0
28	Triplet	143	143	467	7	0	0	375949	691	0	correct_rejection	NA	0
28	Triplet	144	144	468	7	0	0	376657	692	0	correct_rejection	NA	0
28	Triplet	145	145	469	8	0	0	377366	692	0	correct_rejection	NA	0
28	Triplet	146	146	470	9	0	0	378074	692	0	correct_rejection	NA	0
28	Triplet	147	147	471	7	0	0	378783	692	0	correct_rejection	NA	0
28	Triplet	148	148	472	8	0	0	379492	691	0	correct_rejection	NA	0
28	Triplet	149	149	473	9	0	0	380200	692	0	correct_rejection	NA	0
28	Triplet	150	150	474	9	0	0	380909	691	0	correct_rejection	NA	0
28	Triplet	151	151	475	0	1	1	381617	692	1	hit	352	0
28	Triplet	152	152	476	8	0	0	382326	692	0	correct_rejection	NA	0
28	Triplet	153	153	477	7	0	0	383034	692	0	correct_rejection	NA	0
28	Triplet	154	154	478	9	0	0	383743	692	0	correct_rejection	NA	0
28	Triplet	155	155	479	8	0	0	384452	691	0	correct_rejection	NA	0
28	Triplet	156	156	480	7	0	0	385160	692	0	correct_rejection	NA	0
28	Triplet	157	157	481	6	0	0	385869	691	0	correct_rejection	NA	0
28	Triplet	158	158	482	5	0	0	386577	692	0	correct_rejection	NA	0
28	Triplet	159	159	483	4	0	0	387286	692	0	correct_rejection	NA	0
28	Triplet	160	160	484	6	0	0	387994	692	0	correct_rejection	NA	0
28	Triplet	161	161	485	5	0	0	388703	692	0	correct_rejection	NA	0
28	Triplet	162	162	486	4	0	0	389412	691	0	correct_rejection	NA	0
28	Correct	1	487	487	4	0	0	399215	691	0	correct_rejection	NA	7709
28	Correct	2	488	488	5	0	0	399923	692	0	correct_rejection	NA	0
28	Correct	3	489	489	6	0	0	400632	692	0	correct_rejection	NA	0
28	Correct	4	490	490	4	0	0	401340	692	0	correct_rejection	NA	0
28	Correct	5	491	491	0	1	1	402049	692	1	hit	368	0
28	Correct	6	492	492	5	0	0	402758	691	0	correct_rejection	NA	0
28	Correct	7	493	493	6	0	0	403466	692	0	correct_rejection	NA	0
28	Correct	8	494	494	0	1	2	404175	691	1	hit	387	0
28	Correct	9	495	495	4	0	0	404883	692	0	correct_rejection	NA	0
28	Correct	10	496	496	5	0	0	405592	692	0	correct_rejection	NA	0
28	Correct	11	497	497	6	0	0	406300	692	0	correct_rejection	NA	0
28	Correct	12	498	498	6	0	0	407009	692	0	correct_rejection	NA	0
28	Correct	13	499	499	5	0	0	407718	691	0	correct_rejection	NA	0
28	Correct	14	500	500	4	0	0	408426	692	0	correct_rejection	NA	0
28	Correct	15	501	501	0	1	2	409135	691	1	hit	316	0
28	Correct	16	502	502	6	0	0	409843	692	0	correct_rejection	NA	0
28	Correct	17	503	503	5	0	0	410552	692	0	correct_rejection	NA	0
28	Correct	18	504	504	4	0	0	411260	692	0	correct_rejection	NA	0
28	Correct	19	505	505	6	0	0	411969	692	0	correct_rejection	NA	0
28	Correct	20	506	506	0	1	1	412678	691	1	hit	352	0
28	Correct	21	507	507	5	0	0	413386	692	0	correct_rejection	NA	0
28	Correct	22	508	508	4	0	0	414095	691	0	correct_rejection	NA	0
28	Correct	23	509	509	9	0	0	414803	692	0	correct_rejection	NA	0
28	Correct	24	510	510	8	0	0	415512	692	0	correct_rejection	NA	0
28	Correct	25	511	511	7	0	0	416220	692	0	correct_rejection	NA	0
28	Correct	26	512	512	9	0	0	416929	692	0	correct_rejection	NA	0
28	Correct	27	513	513	0	1	1	417638	691	1	hit	329	0
28	Correct	28	514	514	8	0	0	418346	692	0	correct_rejection	NA	0
28	Correct	29	515	515	7	0	0	419055	691	0	correct_rejection	NA	0
28	Correct	30	516	516	9	0	0	419763	692	0	correct_rejection	NA	0
28	Correct	31	517	517	8	0	0	420472	691	0	correct_rejection	NA	0
28	Correct	32	518	518	0	1	1	421180	692	1	hit	366	0
28	Correct	33	519	519	7	0	0	421889	692	0	correct_rejection	NA	0
28	Correct	34	520	520	7	0	0	422597	692	0	correct_rejection	NA	0
28	Correct	35	521	521	8	0	0	423306	692	0	correct_rejection	NA	0
28	Correct	36	522	522	9	0	0	424015	691	0	correct_rejection	NA	0
28	Correct	37	523	523	7	0	0	424723	692	0	correct_rejection	NA	0
28	Correct	38	524	524	8	0	0	425432	691	0	correct_rejection	NA	0
28	Correct	39	525	525	9	0	0	426140	692	0	correct_rejection	NA	0
28	Correct	40	526	526	7	0	0	426849	692	0	correct_rejection	NA	0
28	Correct	41	527	527	8	0	0	427557	692	0	correct_rejection	NA	0
28	Correct	42	528	528	9	0	0	428266	692	0	correct_rejection	NA	0
28	Correct	43	529	529	4	0	0	428975	691	0	correct_rejection	NA	0
28	Correct	44	530	530	5	0	0	429683	692	0	correct_rejection	NA	0
28	Correct	45	531	531	6	0	0	430392	691	0	correct_rejection	NA	0
28	Correct	46	532	532	4	0	0	431100	692	0	correct_rejection	NA	0
28	Correct	47	533	533	5	0	0	431809	692	0	correct_rejection	NA	0
28	Correct	48	534	534	6	0	0	432517	692	0	correct_rejection	NA	0
28	Correct	49	535	535	4	0	0	433226	692	0	correct_rejection	NA	0
28	Correct	50	536	536	5	0	0	433935	691	0	correct_rejection	NA	0
28	Correct	51	537	537	0	1	1	434643	692	1	hit	492	0
28	Correct	52	538	538	6	0	0	435352	691	0	correct_rejection	NA	0
28	Correct	53	539	539	6	0	0	436060	692	0	correct_rejection	NA	0
28	Correct	54	540	540	5	0	0	436769	692	0	correct_rejection	NA	0
28	Correct	55	541	541	4	0	0	437477	692	0	correct_rejection	NA	0
28	Correct	56	542	542	6	0	0	438186	692	0	correct_rejection	NA	0
28	Correct	57	543	543	5	0	0	438895	691	0	correct_rejection	NA	0
28	Correct	58	544	544	4	0	0	439603	692	0	correct_rejection	NA	0
28	Correct	59	545	545	0	1	2	440312	691	1	hit	513	0
28	Correct	60	546	546	6	0	0	441020	692	0	correct_rejection	NA	0
28	Correct	61	547	547	5	0	0	441729	691	0	correct_rejection	NA	0
28	Correct	62	548	548	0	1	1	442437	692	1	hit	381	0
28	Correct	63	549	549	4	0	0	443146	692	0	correct_rejection	NA	0
28	Correct	64	550	550	9	0	0	443855	691	0	correct_rejection	NA	0
28	Correct	65	551	551	0	1	1	444563	692	1	hit	412	0
28	Correct	66	552	552	8	0	0	445272	691	0	correct_rejection	NA	0
28	Correct	67	553	553	7	0	0	445980	692	0	correct_rejection	NA	0
28	Correct	68	554	554	9	0	0	446689	691	0	correct_rejection	NA	0
28	Correct	69	555	555	8	0	0	447397	692	0	correct_rejection	NA	0
28	Correct	70	556	556	0	1	1	448106	692	1	hit	389	0
28	Correct	71	557	557	7	0	0	448814	692	0	correct_rejection	NA	0
28	Correct	72	558	558	9	0	0	449523	692	0	correct_rejection	NA	0
28	Correct	73	559	559	8	0	0	450232	691	0	correct_rejection	NA	0
28	Correct	74	560	560	7	0	0	450940	692	0	correct_rejection	NA	0
28	Correct	75	561	561	7	0	0	451649	691	0	correct_rejection	NA	0
28	Correct	76	562	562	8	0	0	452357	692	0	correct_rejection	NA	0
28	Correct	77	563	563	9	0	0	453066	692	0	correct_rejection	NA	0
28	Correct	78	564	564	7	0	0	453774	692	0	correct_rejection	NA	0
28	Correct	79	565	565	8	0	0	454483	692	0	correct_rejection	NA	0
28	Correct	80	566	566	9	0	0	455192	691	0	correct_rejection	NA	0
28	Correct	81	567	567	7	0	0	455900	692	0	correct_rejection	NA	0
28	Correct	82	568	568	8	0	0	456609	691	0	correct_rejection	NA	0
28	Correct	83	569	569	9	0	0	457317	692	0	correct_rejection	NA	0
28	Correct	84	570	570	4	0	0	458026	692	0	correct_rejection	NA	0
28	Correct	85	571	571	5	0	0	458734	692	0	correct_rejection	NA	0
28	Correct	86	572	572	6	0	0	459443	692	0	correct_rejection	NA	0
28	Correct	87	573	573	4	0	0	460152	691	0	correct_rejection	NA	0
28	Correct	88	574	574	5	0	0	460860	692	0	correct_rejection	NA	0
28	Correct	89	575	575	0	1	1	461569	691	1	hit	488	0
28	Correct	90	576	576	6	0	0	462277	692	0	correct_rejection	NA	0
28	Correct	91	577	577	4	0	0	462986	692	0	correct_rejection	NA	0
28	Correct	92	578	578	5	0	0	463694	692	0	correct_rejection	NA	0
28	Correct	93	579	579	6	0	0	464403	692	0	correct_rejection	NA	0
28	Correct	94	580	580	6	0	0	465112	691	0	correct_rejection	NA	0
28	Correct	95	581	581	0	1	1	465820	692	1	hit	382	0
28	Correct	96	582	582	5	0	0	466529	691	0	correct_rejection	NA	0
28	Correct	97	583	583	4	0	0	467237	692	0	correct_rejection	NA	0
28	Correct	98	584	584	6	0	0	467946	691	0	correct_rejection	NA	0
28	Correct	99	585	585	5	0	0	468654	692	0	correct_rejection	NA	0
28	Correct	100	586	586	4	0	0	469363	692	0	correct_rejection	NA	0
28	Correct	101	587	587	6	0	0	470072	691	0	correct_rejection	NA	0
28	Correct	102	588	588	5	0	0	470780	692	0	correct_rejection	NA	0
28	Correct	103	589	589	4	0	0	471489	691	0	correct_rejection	NA	0
28	Correct	104	590	590	9	0	0	472197	692	0	correct_rejection	NA	0
28	Correct	105	591	591	8	0	0	472906	691	0	correct_rejection	NA	0
28	Correct	106	592	592	7	0	0	473614	692	0	correct_rejection	NA	0
28	Correct	107	593	593	9	0	0	474323	692	0	correct_rejection	NA	0
28	Correct	108	594	594	8	0	0	475031	692	0	correct_rejection	NA	0
28	Correct	109	595	595	7	0	0	475740	692	0	correct_rejection	NA	0
28	Correct	110	596	596	9	0	0	476449	691	0	correct_rejection	NA	0
28	Correct	111	597	597	8	0	0	477157	692	0	correct_rejection	NA	0
28	Correct	112	598	598	7	0	0	477866	691	0	correct_rejection	NA	0
28	Correct	113	599	599	7	0	0	478574	692	0	correct_rejection	NA	0
28	Correct	114	600	600	8	0	0	479283	692	0	correct_rejection	NA	0
28	Correct	115	601	601	0	1	1	479991	692	1	hit	407	0
28	Correct	116	602	602	9	0	0	480700	692	0	correct_rejection	NA	0
28	Correct	117	603	603	7	0	0	481409	691	0	correct_rejection	NA	0
28	Correct	118	604	604	8	0	0	482117	692	0	correct_rejection	NA	0
28	Correct	119	605	605	9	0	0	482826	691	0	correct_rejection	NA	0
28	Correct	120	606	606	7	0	0	483534	692	0	correct_rejection	NA	0
28	Correct	121	607	607	8	0	0	484243	692	0	correct_rejection	NA	0
28	Correct	122	608	608	9	0	0	484951	692	0	correct_rejection	NA	0
28	Correct	123	609	609	0	1	4	485660	692	1	hit	492	0
28	Correct	124	610	610	4	0	0	486369	691	0	correct_rejection	NA	0
28	Correct	125	611	611	5	0	0	487077	692	0	correct_rejection	NA	0
28	Correct	126	612	612	6	0	0	487786	691	0	correct_rejection	NA	0
28	Correct	127	613	613	4	0	0	488494	692	0	correct_rejection	NA	0
28	Correct	128	614	614	5	0	0	489203	692	0	correct_rejection	NA	0
28	Correct	129	615	615	6	0	0	489911	692	0	correct_rejection	NA	0
28	Correct	130	616	616	0	1	2	490620	692	1	hit	458	0
28	Correct	131	617	617	4	0	0	491329	691	0	correct_rejection	NA	0
28	Correct	132	618	618	5	0	0	492037	692	0	correct_rejection	NA	0
28	Correct	133	619	619	6	0	0	492746	691	0	correct_rejection	NA	0
28	Correct	134	620	620	6	0	0	493454	692	0	correct_rejection	NA	0
28	Correct	135	621	621	5	0	0	494163	691	0	correct_rejection	NA	0
28	Correct	136	622	622	4	0	0	494871	692	0	correct_rejection	NA	0
28	Correct	137	623	623	6	0	0	495580	692	0	correct_rejection	NA	0
28	Correct	138	624	624	5	0	0	496289	691	0	correct_rejection	NA	0
28	Correct	139	625	625	0	1	1	496997	692	1	hit	643	0
28	Correct	140	626	626	4	0	0	497706	691	0	correct_rejection	NA	0
28	Correct	141	627	627	6	0	0	498414	692	0	correct_rejection	NA	0
28	Correct	142	628	628	5	0	0	499123	691	0	correct_rejection	NA	0
28	Correct	143	629	629	4	0	0	499831	692	0	correct_rejection	NA	0
28	Correct	144	630	630	0	1	3	500540	692	1	hit	319	0
28	Correct	145	631	631	9	0	0	501248	692	0	correct_rejection	NA	0
28	Correct	146	632	632	8	0	0	501957	692	0	correct_rejection	NA	0
28	Correct	147	633	633	7	0	0	502666	691	0	correct_rejection	NA	0
28	Correct	148	634	634	9	0	0	503374	692	0	correct_rejection	NA	0
28	Correct	149	635	635	8	0	0	504083	691	0	correct_rejection	NA	0
28	Correct	150	636	636	7	0	0	504791	692	0	correct_rejection	NA	0
28	Correct	151	637	637	9	0	0	505500	692	0	correct_rejection	NA	0
28	Correct	152	638	638	8	0	0	506208	692	0	correct_rejection	NA	0
28	Correct	153	639	639	7	0	0	506917	692	0	correct_rejection	NA	0
28	Correct	154	640	640	7	0	0	507626	691	0	correct_rejection	NA	0
28	Correct	155	641	641	8	0	0	508334	692	0	correct_rejection	NA	0
28	Correct	156	642	642	9	0	0	509043	691	0	correct_rejection	NA	0
28	Correct	157	643	643	7	0	0	509751	692	0	correct_rejection	NA	0
28	Correct	158	644	644	8	0	0	510460	692	0	correct_rejection	NA	0
28	Correct	159	645	645	9	0	0	511168	692	0	correct_rejection	NA	0
28	Correct	160	646	646	7	0	0	511877	692	0	correct_rejection	NA	0
28	Correct	161	647	647	8	0	0	512586	691	0	correct_rejection	NA	0
28	Correct	162	648	648	9	0	0	513294	692	0	correct_rejection	NA	0
28	Nonet	1	649	649	6	0	0	523314	692	0	correct_rejection	NA	7809
28	Nonet	2	650	650	5	0	0	524023	691	0	correct_rejection	NA	0
28	Nonet	3	651	651	4	0	0	524731	692	0	correct_rejection	NA	0
28	Nonet	4	652	652	6	0	0	525440	691	0	correct_rejection	NA	0
28	Nonet	5	653	653	5	0	0	526148	692	0	correct_rejection	NA	0
28	Nonet	6	654	654	4	0	0	526857	692	0	correct_rejection	NA	0
28	Nonet	7	655	655	6	0	0	527566	691	0	correct_rejection	NA	0
28	Nonet	8	656	656	5	0	0	528274	692	0	correct_rejection	NA	0
28	Nonet	9	657	657	4	0	0	528983	691	0	correct_rejection	NA	0
28	Nonet	10	658	658	9	0	0	529691	692	0	correct_rejection	NA	0
28	Nonet	11	659	659	8	0	0	530400	691	0	correct_rejection	NA	0
28	Nonet	12	660	660	7	0	0	531108	692	0	correct_rejection	NA	0
28	Nonet	13	661	661	9	0	0	531817	692	0	correct_rejection	NA	0
28	Nonet	14	662	662	8	0	0	532525	692	0	correct_rejection	NA	0
28	Nonet	15	663	663	7	0	0	533234	692	0	correct_rejection	NA	0
28	Nonet	16	664	664	0	1	2	533943	691	1	hit	451	0
28	Nonet	17	665	665	9	0	0	534651	692	0	correct_rejection	NA	0
28	Nonet	18	666	666	8	0	0	535360	691	0	correct_rejection	NA	0
28	Nonet	19	667	667	7	0	0	536068	692	0	correct_rejection	NA	0
28	Nonet	20	668	668	0	1	3	536777	692	1	hit	405	0
28	Nonet	21	669	669	4	0	0	537485	692	0	correct_rejection	NA	0
28	Nonet	22	670	670	5	0	0	538194	692	0	correct_rejection	NA	0
28	Nonet	23	671	671	0	1	1	538903	691	1	hit	410	0
28	Nonet	24	672	672	6	0	0	539611	692	0	correct_rejection	NA	0
28	Nonet	25	673	673	4	0	0	540320	691	0	correct_rejection	NA	0
28	Nonet	26	674	674	5	0	0	541028	692	0	correct_rejection	NA	0
28	Nonet	27	675	675	6	0	0	541737	692	0	correct_rejection	NA	0
28	Nonet	28	676	676	4	0	0	542445	692	0	correct_rejection	NA	0
28	Nonet	29	677	677	5	0	0	543154	692	0	correct_rejection	NA	0
28	Nonet	30	678	678	0	1	1	543863	691	1	hit	396	0
28	Nonet	31	679	679	6	0	0	544571	692	0	correct_rejection	NA	0
28	Nonet	32	680	680	4	0	0	545280	691	0	correct_rejection	NA	0
28	Nonet	33	681	681	5	0	0	545988	692	0	correct_rejection	NA	0
28	Nonet	34	682	682	6	0	0	546697	692	0	correct_rejection	NA	0
28	Nonet	35	683	683	4	0	0	547405	692	0	correct_rejection	NA	0
28	Nonet	36	684	684	5	0	0	548114	692	0	correct_rejection	NA	0
28	Nonet	37	685	685	6	0	0	548823	691	0	correct_rejection	NA	0
28	Nonet	38	686	686	4	0	0	549531	692	0	correct_rejection	NA	0
28	Nonet	39	687	687	5	0	0	550240	691	0	correct_rejection	NA	0
28	Nonet	40	688	688	6	0	0	550948	692	0	correct_rejection	NA	0
28	Nonet	41	689	689	6	0	0	551657	691	0	correct_rejection	NA	0
28	Nonet	42	690	690	5	0	0	552365	692	0	correct_rejection	NA	0
28	Nonet	43	691	691	4	0	0	553074	692	0	correct_rejection	NA	0
28	Nonet	44	692	692	6	0	0	553783	691	0	correct_rejection	NA	0
28	Nonet	45	693	693	5	0	0	554491	692	0	correct_rejection	NA	0
28	Nonet	46	694	694	4	0	0	555200	691	0	correct_rejection	NA	0
28	Nonet	47	695	695	6	0	0	555908	692	0	correct_rejection	NA	0
28	Nonet	48	696	696	5	0	0	556617	691	0	correct_rejection	NA	0
28	Nonet	49	697	697	0	1	1	557325	692	1	hit	301	0
28	Nonet	50	698	698	4	0	0	558034	692	0	correct_rejection	NA	0
28	Nonet	51	699	699	6	0	0	558742	692	0	correct_rejection	NA	0
28	Nonet	52	700	700	5	0	0	559451	692	0	correct_rejection	NA	0
28	Nonet	53	701	701	4	0	0	560160	691	0	correct_rejection	NA	0
28	Nonet	54	702	702	6	0	0	560868	692	0	correct_rejection	NA	0
28	Nonet	55	703	703	0	1	1	561577	691	1	hit	445	0
28	Nonet	56	704	704	5	0	0	562285	692	0	correct_rejection	NA	0
28	Nonet	57	705	705	4	0	0	562994	692	0	correct_rejection	NA	0
28	Nonet	58	706	706	0	1	2	563702	692	1	hit	431	0
28	Nonet	59	707	707	6	0	0	564411	692	0	correct_rejection	NA	0
28	Nonet	60	708	708	5	0	0	565120	691	0	correct_rejection	NA	0
28	Nonet	61	709	709	4	0	0	565828	692	0	correct_rejection	NA	0
28	Nonet	62	710	710	4	0	0	566537	691	0	correct_rejection	NA	0
28	Nonet	63	711	711	5	0	0	567245	692	0	correct_rejection	NA	0
28	Nonet	64	712	712	6	0	0	567954	692	0	correct_rejection	NA	0
28	Nonet	65	713	713	4	0	0	568662	692	0	correct_rejection	NA	0
28	Nonet	66	714	714	5	0	0	569371	692	0	correct_rejection	NA	0
28	Nonet	67	715	715	6	0	0	570080	691	0	correct_rejection	NA	0
28	Nonet	68	716	716	4	0	0	570788	692	0	correct_rejection	NA	0
28	Nonet	69	717	717	5	0	0	571497	691	0	correct_rejection	NA	0
28	Nonet	70	718	718	6	0	0	572205	692	0	correct_rejection	NA	0
28	Nonet	71	719	719	7	0	0	572914	692	0	correct_rejection	NA	0
28	Nonet	72	720	720	8	0	0	573622	692	0	correct_rejection	NA	0
28	Nonet	73	721	721	9	0	0	574331	692	0	correct_rejection	NA	0
28	Nonet	74	722	722	0	1	2	575040	691	1	hit	475	0
28	Nonet	75	723	723	7	0	0	575748	692	0	correct_rejection	NA	0
28	Nonet	76	724	724	8	0	0	576457	691	0	correct_rejection	NA	0
28	Nonet	77	725	725	0	1	1	577165	692	1	hit	538	0
28	Nonet	78	726	726	9	0	0	577874	691	0	correct_rejection	NA	0
28	Nonet	79	727	727	7	0	0	578582	692	0	correct_rejection	NA	0
28	Nonet	80	728	728	8	0	0	579291	692	0	correct_rejection	NA	0
28	Nonet	81	729	729	9	0	0	580000	691	0	correct_rejection	NA	0
28	Nonet	82	730	730	6	0	0	580708	692	0	correct_rejection	NA	0
28	Nonet	83	731	731	5	0	0	581417	691	0	correct_rejection	NA	0
28	Nonet	84	732	732	4	0	0	582125	692	0	correct_rejection	NA	0
28	Nonet	85	733	733	6	0	0	582834	691	0	correct_rejection	NA	0
28	Nonet	86	734	734	5	0	0	583542	692	0	correct_rejection	NA	0
28	Nonet	87	735	735	4	0	0	584251	692	0	correct_rejection	NA	0
28	Nonet	88	736	736	0	1	2	584959	692	1	hit	468	0
28	Nonet	89	737	737	6	0	0	585668	692	0	correct_rejection	NA	0
28	Nonet	90	738	738	5	0	0	586377	691	0	correct_rejection	NA	0
28	Nonet	91	739	739	4	0	0	587085	692	0	correct_rejection	NA	0
28	Nonet	92	740	740	7	0	0	587794	691	0	correct_rejection	NA	0
28	Nonet	93	741	741	8	0	0	588502	692	0	correct_rejection	NA	0
28	Nonet	94	742	742	9	0	0	589211	692	0	correct_rejection	NA	0
28	Nonet	95	743	743	7	0	0	589919	692	0	correct_rejection	NA	0
28	Nonet	96	744	744	8	0	0	590628	692	0	correct_rejection	NA	0
28	Nonet	97	745	745	9	0	0	591337	691	0	correct_rejection	NA	0
28	Nonet	98	746	746	7	0	0	592045	692	0	correct_rejection	NA	0
28	Nonet	99	747	747	0	1	1	592754	691	1	hit	358	0
28	Nonet	100	748	748	8	0	0	593462	692	0	correct_rejection	NA	0
28	Nonet	101	749	749	9	0	0	594171	692	0	correct_rejection	NA	0
28	Nonet	102	750	750	4	0	0	594879	692	0	correct_rejection	NA	0
28	Nonet	103	751	751	0	1	1	595588	692	1	hit	395	0
28	Nonet	104	752	752	5	0	0	596297	691	0	correct_rejection	NA	0
28	Nonet	105	753	753	6	0	0	597005	692	0	correct_rejection	NA	0
28	Nonet	106	754	754	0	1	2	597714	691	1	hit	384	0
28	Nonet	107	755	755	4	0	0	598422	692	0	correct_rejection	NA	0
28	Nonet	108	756	756	5	0	0	599131	692	0	correct_rejection	NA	0
28	Nonet	109	757	757	6	0	0	599839	692	0	correct_rejection	NA	0
28	Nonet	110	758	758	4	0	0	600548	692	0	correct_rejection	NA	0
28	Nonet	111	759	759	5	0	0	601257	691	0	correct_rejection	NA	0
28	Nonet	112	760	760	6	0	0	601965	692	0	correct_rejection	NA	0
28	Nonet	113	761	761	9	0	0	602674	691	0	correct_rejection	NA	0
28	Nonet	114	762	762	8	0	0	603382	692	0	correct_rejection	NA	0
28	Nonet	115	763	763	7	0	0	604091	691	0	correct_rejection	NA	0
28	Nonet	116	764	764	9	0	0	604799	692	0	correct_rejection	NA	0
28	Nonet	117	765	765	0	1	1	605508	692	1	hit	356	0
28	Nonet	118	766	766	8	0	0	606216	692	0	correct_rejection	NA	0
28	Nonet	119	767	767	7	0	0	606925	692	0	correct_rejection	NA	0
28	Nonet	120	768	768	9	0	0	607634	691	0	correct_rejection	NA	0
28	Nonet	121	769	769	8	0	0	608342	692	0	correct_rejection	NA	0
28	Nonet	122	770	770	0	1	1	609051	691	1	hit	354	0
28	Nonet	123	771	771	7	0	0	609759	692	0	correct_rejection	NA	0
28	Nonet	124	772	772	9	0	0	610468	692	0	correct_rejection	NA	0
28	Nonet	125	773	773	8	0	0	611176	692	0	correct_rejection	NA	0
28	Nonet	126	774	774	7	0	0	611885	692	0	correct_rejection	NA	0
28	Nonet	127	775	775	0	1	2	612594	691	1	hit	394	0
28	Nonet	128	776	776	9	0	0	613302	692	0	correct_rejection	NA	0
28	Nonet	129	777	777	8	0	0	614011	691	0	correct_rejection	NA	0
28	Nonet	130	778	778	0	1	1	614719	692	1	hit	382	0
28	Nonet	131	779	779	7	0	0	615428	692	0	correct_rejection	NA	0
28	Nonet	132	780	780	9	0	0	616136	692	0	correct_rejection	NA	0
28	Nonet	133	781	781	8	0	0	616845	692	0	correct_rejection	NA	0
28	Nonet	134	782	782	7	0	0	617554	691	0	correct_rejection	NA	0
28	Nonet	135	783	783	7	0	0	618262	692	0	correct_rejection	NA	0
28	Nonet	136	784	784	8	0	0	618971	691	0	correct_rejection	NA	0
28	Nonet	137	785	785	9	0	0	619679	692	0	correct_rejection	NA	0
28	Nonet	138	786	786	7	0	0	620388	692	0	correct_rejection	NA	0
28	Nonet	139	787	787	8	0	0	621096	692	0	correct_rejection	NA	0
28	Nonet	140	788	788	9	0	0	621805	692	0	correct_rejection	NA	0
28	Nonet	141	789	789	7	0	0	622514	691	0	correct_rejection	NA	0
28	Nonet	142	790	790	8	0	0	623222	692	0	correct_rejection	NA	0
28	Nonet	143	791	791	9	0	0	623931	691	0	correct_rejection	NA	0
28	Nonet	144	792	792	0	1	3	624639	692	1	hit	346	0
28	Nonet	145	793	793	7	0	0	625348	692	0	correct_rejection	NA	0
28	Nonet	146	794	794	8	0	0	626056	692	0	correct_rejection	NA	0
28	Nonet	147	795	795	9	0	0	626765	692	0	correct_rejection	NA	0
28	Nonet	148	796	796	7	0	0	627474	691	0	correct_rejection	NA	0
28	Nonet	149	797	797	8	0	0	628182	692	0	correct_rejection	NA	0
28	Nonet	150	798	798	9	0	0	628891	691	0	correct_rejection	NA	0
28	Nonet	151	799	799	7	0	0	629599	692	0	correct_rejection	NA	0
28	Nonet	152	800	800	8	0	0	630308	691	0	correct_rejection	NA	0
28	Nonet	153	801	801	9	0	0	631016	692	0	correct_rejection	NA	0
28	Nonet	154	802	802	9	0	0	631725	692	0	correct_rejection	NA	0
28	Nonet	155	803	803	8	0	0	632433	692	0	correct_rejection	NA	0
28	Nonet	156	804	804	7	0	0	633142	692	0	correct_rejection	NA	0
28	Nonet	157	805	805	9	0	0	633851	691	0	correct_rejection	NA	0
28	Nonet	158	806	806	8	0	0	634559	692	0	correct_rejection	NA	0
28	Nonet	159	807	807	7	0	0	635268	691	0	correct_rejection	NA	0
28	Nonet	160	808	808	9	0	0	635976	692	0	correct_rejection	NA	0
28	Nonet	161	809	809	8	0	0	636685	692	0	correct_rejection	NA	0
28	Nonet	162	810	810	7	0	0	637393	692	0	correct_rejection	NA	0
trigger nr 629 at 639458
trigger nr 633 at 716601
28	Triplet	1	487	811	6	0	0	723864	691	0	correct_rejection	NA	7219
28	Triplet	2	488	812	5	0	0	724572	692	0	correct_rejection	NA	0
28	Triplet	3	489	813	4	0	0	725281	692	0	correct_rejection	NA	0
28	Triplet	4	490	814	4	0	0	725989	692	0	correct_rejection	NA	0
28	Triplet	5	491	815	5	0	0	726698	692	0	correct_rejection	NA	0
28	Triplet	6	492	816	6	0	0	727407	691	0	correct_rejection	NA	0
28	Triplet	7	493	817	9	0	0	728115	692	0	correct_rejection	NA	0
28	Triplet	8	494	818	8	0	0	728824	691	0	correct_rejection	NA	0
28	Triplet	9	495	819	7	0	0	729532	692	0	correct_rejection	NA	0
28	Triplet	10	496	820	0	1	2	730241	692	1	hit	548	0
28	Triplet	11	497	821	4	0	0	730949	692	0	correct_rejection	NA	0
28	Triplet	12	498	822	5	0	0	731658	692	0	correct_rejection	NA	0
28	Triplet	13	499	823	0	1	1	732367	691	1	hit	335	0
28	Triplet	14	500	824	6	0	0	733075	692	0	correct_rejection	NA	0
28	Triplet	15	501	825	6	0	0	733784	691	0	correct_rejection	NA	0
28	Triplet	16	502	826	5	0	0	734492	692	0	correct_rejection	NA	0
28	Triplet	17	503	827	0	1	1	735201	691	1	hit	367	0
28	Triplet	18	504	828	4	0	0	735909	692	0	correct_rejection	NA	0
28	Triplet	19	505	829	6	0	0	736618	692	0	correct_rejection	NA	0
28	Triplet	20	506	830	5	0	0	737327	691	0	correct_rejection	NA	0
28	Triplet	21	507	831	4	0	0	738035	692	0	correct_rejection	NA	0
28	Triplet	22	508	832	7	0	0	738744	691	0	correct_rejection	NA	0
28	Triplet	23	509	833	0	1	1	739452	692	1	hit	347	0
28	Triplet	24	510	834	8	0	0	740161	691	0	correct_rejection	NA	0
28	Triplet	25	511	835	9	0	0	740869	692	0	correct_rejection	NA	0
28	Triplet	26	512	836	6	0	0	741578	692	0	correct_rejection	NA	0
28	Triplet	27	513	837	0	1	1	742286	692	1	hit	334	0
28	Triplet	28	514	838	5	0	0	742995	692	0	correct_rejection	NA	0
28	Triplet	29	515	839	4	0	0	743704	691	0	correct_rejection	NA	0
28	Triplet	30	516	840	9	0	0	744412	692	0	correct_rejection	NA	0
28	Triplet	31	517	841	0	1	1	745121	691	1	hit	350	0
28	Triplet	32	518	842	8	0	0	745829	692	0	correct_rejection	NA	0
28	Triplet	33	519	843	7	0	0	746538	692	0	correct_rejection	NA	0
28	Triplet	34	520	844	9	0	0	747246	692	0	correct_rejection	NA	0
28	Triplet	35	521	845	8	0	0	747955	692	0	correct_rejection	NA	0
28	Triplet	36	522	846	0	1	1	748664	691	1	hit	361	0
28	Triplet	37	523	847	7	0	0	749372	692	0	correct_rejection	NA	0
28	Triplet	38	524	848	7	0	0	750081	691	0	correct_rejection	NA	0
28	Triplet	39	525	849	8	0	0	750789	692	0	correct_rejection	NA	0
28	Triplet	40	526	850	9	0	0	751498	692	0	correct_rejection	NA	0
28	Triplet	41	527	851	0	1	2	752206	692	1	hit	369	0
28	Triplet	42	528	852	4	0	0	752915	692	0	correct_rejection	NA	0
28	Triplet	43	529	853	5	0	0	753624	691	0	correct_rejection	NA	0
28	Triplet	44	530	854	6	0	0	754332	692	0	correct_rejection	NA	0
28	Triplet	45	531	855	4	0	0	755041	691	0	correct_rejection	NA	0
28	Triplet	46	532	856	5	0	0	755749	692	0	correct_rejection	NA	0
28	Triplet	47	533	857	6	0	0	756458	692	0	correct_rejection	NA	0
28	Triplet	48	534	858	7	0	0	757166	692	0	correct_rejection	NA	0
28	Triplet	49	535	859	8	0	0	757875	692	0	correct_rejection	NA	0
28	Triplet	50	536	860	9	0	0	758584	691	0	correct_rejection	NA	0
28	Triplet	51	537	861	7	0	0	759292	692	0	correct_rejection	NA	0
28	Triplet	52	538	862	8	0	0	760001	691	0	correct_rejection	NA	0
28	Triplet	53	539	863	0	1	1	760709	692	1	hit	334	0
28	Triplet	54	540	864	9	0	0	761418	691	0	correct_rejection	NA	0
28	Triplet	55	541	865	9	0	0	762126	692	0	correct_rejection	NA	0
28	Triplet	56	542	866	8	0	0	762835	692	0	correct_rejection	NA	0
28	Triplet	57	543	867	7	0	0	763543	692	0	correct_rejection	NA	0
28	Triplet	58	544	868	4	0	0	764252	692	0	correct_rejection	NA	0
28	Triplet	59	545	869	5	0	0	764961	691	0	correct_rejection	NA	0
28	Triplet	60	546	870	0	1	1	765669	692	1	hit	360	0
28	Triplet	61	547	871	6	0	0	766378	691	0	correct_rejection	NA	0
28	Triplet	62	548	872	7	0	0	767086	692	0	correct_rejection	NA	0
28	Triplet	63	549	873	8	0	0	767795	692	0	correct_rejection	NA	0
28	Triplet	64	550	874	9	0	0	768503	692	0	correct_rejection	NA	0
28	Triplet	65	551	875	6	0	0	769212	692	0	correct_rejection	NA	0
28	Triplet	66	552	876	0	1	1	769921	691	1	hit	326	0
28	Triplet	67	553	877	5	0	0	770629	692	0	correct_rejection	NA	0
28	Triplet	68	554	878	4	0	0	771338	691	0	correct_rejection	NA	0
28	Triplet	69	555	879	6	0	0	772046	692	0	correct_rejection	NA	0
28	Triplet	70	556	880	5	0	0	772755	692	0	correct_rejection	NA	0
28	Triplet	71	557	881	4	0	0	773463	692	0	correct_rejection	NA	0
28	Triplet	72	558	882	4	0	0	774172	692	0	correct_rejection	NA	0
28	Triplet	73	559	883	5	0	0	774881	691	0	correct_rejection	NA	0
28	Triplet	74	560	884	6	0	0	775589	692	0	correct_rejection	NA	0
28	Triplet	75	561	885	4	0	0	776298	691	0	correct_rejection	NA	0
28	Triplet	76	562	886	5	0	0	777006	692	0	correct_rejection	NA	0
28	Triplet	77	563	887	6	0	0	777715	692	0	correct_rejection	NA	0
28	Triplet	78	564	888	0	1	2	778423	692	1	hit	347	0
28	Triplet	79	565	889	6	0	0	779132	692	0	correct_rejection	NA	0
28	Triplet	80	566	890	5	0	0	779841	691	0	correct_rejection	NA	0
28	Triplet	81	567	891	4	0	0	780549	692	0	correct_rejection	NA	0
28	Triplet	82	568	892	7	0	0	781258	691	0	correct_rejection	NA	0
28	Triplet	83	569	893	0	1	1	781966	692	1	hit	406	0
28	Triplet	84	570	894	8	0	0	782675	692	0	correct_rejection	NA	0
28	Triplet	85	571	895	9	0	0	783383	692	0	correct_rejection	NA	0
28	Triplet	86	572	896	0	1	2	784092	692	1	hit	670	0
28	Triplet	87	573	897	9	0	0	784801	691	0	correct_rejection	NA	0
28	Triplet	88	574	898	8	0	0	785509	692	0	correct_rejection	NA	0
28	Triplet	89	575	899	0	1	1	786218	691	1	hit	364	0
28	Triplet	90	576	900	7	0	0	786926	692	0	correct_rejection	NA	0
28	Triplet	91	577	901	4	0	0	787635	691	0	correct_rejection	NA	0
28	Triplet	92	578	902	5	0	0	788343	692	0	correct_rejection	NA	0
28	Triplet	93	579	903	6	0	0	789052	692	0	correct_rejection	NA	0
28	Triplet	94	580	904	9	0	0	789760	692	0	correct_rejection	NA	0
28	Triplet	95	581	905	8	0	0	790469	692	0	correct_rejection	NA	0
28	Triplet	96	582	906	7	0	0	791178	691	0	correct_rejection	NA	0
28	Triplet	97	583	907	9	0	0	791886	692	0	correct_rejection	NA	0
28	Triplet	98	584	908	8	0	0	792595	691	0	correct_rejection	NA	0
28	Triplet	99	585	909	0	1	1	793303	692	1	hit	352	0
28	Triplet	100	586	910	7	0	0	794012	692	0	correct_rejection	NA	0
28	Triplet	101	587	911	6	0	0	794720	692	0	correct_rejection	NA	0
28	Triplet	102	588	912	5	0	0	795429	692	0	correct_rejection	NA	0
28	Triplet	103	589	913	4	0	0	796138	691	0	correct_rejection	NA	0
28	Triplet	104	590	914	9	0	0	796846	692	0	correct_rejection	NA	0
28	Triplet	105	591	915	8	0	0	797555	691	0	correct_rejection	NA	0
28	Triplet	106	592	916	7	0	0	798263	692	0	correct_rejection	NA	0
28	Triplet	107	593	917	7	0	0	798972	692	0	correct_rejection	NA	0
28	Triplet	108	594	918	8	0	0	799680	692	0	correct_rejection	NA	0
28	Triplet	109	595	919	9	0	0	800389	692	0	correct_rejection	NA	0
28	Triplet	110	596	920	7	0	0	801098	691	0	correct_rejection	NA	0
28	Triplet	111	597	921	8	0	0	801806	692	0	correct_rejection	NA	0
28	Triplet	112	598	922	9	0	0	802515	691	0	correct_rejection	NA	0
28	Triplet	113	599	923	6	0	0	803223	692	0	correct_rejection	NA	0
28	Triplet	114	600	924	5	0	0	803932	692	0	correct_rejection	NA	0
28	Triplet	115	601	925	4	0	0	804640	692	0	correct_rejection	NA	0
28	Triplet	116	602	926	0	1	2	805349	692	1	hit	503	0
28	Triplet	117	603	927	9	0	0	806058	691	0	correct_rejection	NA	0
28	Triplet	118	604	928	8	0	0	806766	692	0	correct_rejection	NA	0
28	Triplet	119	605	929	7	0	0	807475	691	0	correct_rejection	NA	0
28	Triplet	120	606	930	6	0	0	808183	692	0	correct_rejection	NA	0
28	Triplet	121	607	931	5	0	0	808892	692	0	correct_rejection	NA	0
28	Triplet	122	608	932	4	0	0	809600	692	0	correct_rejection	NA	0
28	Triplet	123	609	933	7	0	0	810309	692	0	correct_rejection	NA	0
28	Triplet	124	610	934	8	0	0	811018	691	0	correct_rejection	NA	0
28	Triplet	125	611	935	9	0	0	811726	692	0	correct_rejection	NA	0
28	Triplet	126	612	936	7	0	0	812435	691	0	correct_rejection	NA	0
28	Triplet	127	613	937	8	0	0	813143	692	0	correct_rejection	NA	0
28	Triplet	128	614	938	9	0	0	813852	691	0	correct_rejection	NA	0
28	Triplet	129	615	939	4	0	0	814560	692	0	correct_rejection	NA	0
28	Triplet	130	616	940	5	0	0	815269	692	0	correct_rejection	NA	0
28	Triplet	131	617	941	6	0	0	815977	692	0	correct_rejection	NA	0
28	Triplet	132	618	942	6	0	0	816686	692	0	correct_rejection	NA	0
28	Triplet	133	619	943	5	0	0	817395	691	0	correct_rejection	NA	0
28	Triplet	134	620	944	4	0	0	818103	692	0	correct_rejection	NA	0
28	Triplet	135	621	945	4	0	0	818812	691	0	correct_rejection	NA	0
28	Triplet	136	622	946	5	0	0	819520	692	0	correct_rejection	NA	0
28	Triplet	137	623	947	6	0	0	820229	692	0	correct_rejection	NA	0
28	Triplet	138	624	948	7	0	0	820937	692	0	correct_rejection	NA	0
28	Triplet	139	625	949	8	0	0	821646	692	0	correct_rejection	NA	0
28	Triplet	140	626	950	9	0	0	822355	691	0	correct_rejection	NA	0
28	Triplet	141	627	951	9	0	0	823063	692	0	correct_rejection	NA	0
28	Triplet	142	628	952	8	0	0	823772	691	0	correct_rejection	NA	0
28	Triplet	143	629	953	7	0	0	824480	692	0	correct_rejection	NA	0
28	Triplet	144	630	954	0	1	2	825189	692	1	hit	383	0
28	Triplet	145	631	955	9	0	0	825897	692	0	correct_rejection	NA	0
28	Triplet	146	632	956	8	0	0	826606	692	0	correct_rejection	NA	0
28	Triplet	147	633	957	7	0	0	827315	691	0	correct_rejection	NA	0
28	Triplet	148	634	958	4	0	0	828023	692	0	correct_rejection	NA	0
28	Triplet	149	635	959	5	0	0	828732	691	0	correct_rejection	NA	0
28	Triplet	150	636	960	6	0	0	829440	692	0	correct_rejection	NA	0
28	Triplet	151	637	961	4	0	0	830149	692	0	correct_rejection	NA	0
28	Triplet	152	638	962	5	0	0	830857	692	0	correct_rejection	NA	0
28	Triplet	153	639	963	6	0	0	831566	692	0	correct_rejection	NA	0
28	Triplet	154	640	964	9	0	0	832275	691	0	correct_rejection	NA	0
28	Triplet	155	641	965	8	0	0	832983	692	0	correct_rejection	NA	0
28	Triplet	156	642	966	7	0	0	833692	691	0	correct_rejection	NA	0
28	Triplet	157	643	967	7	0	0	834400	692	0	correct_rejection	NA	0
28	Triplet	158	644	968	8	0	0	835109	692	0	correct_rejection	NA	0
28	Triplet	159	645	969	9	0	0	835817	692	0	correct_rejection	NA	0
28	Triplet	160	646	970	6	0	0	836526	692	0	correct_rejection	NA	0
28	Triplet	161	647	971	5	0	0	837235	691	0	correct_rejection	NA	0
28	Triplet	162	648	972	4	0	0	837943	692	0	correct_rejection	NA	0
28	Single	1	487	973	7	0	0	847780	691	0	correct_rejection	NA	7149
28	Single	2	488	974	4	0	0	848488	692	0	correct_rejection	NA	0
28	Single	3	489	975	5	0	0	849197	692	0	correct_rejection	NA	0
28	Single	4	490	976	0	1	1	849905	692	1	hit	350	0
28	Single	5	491	977	5	0	0	850614	692	0	correct_rejection	NA	0
28	Single	6	492	978	7	0	0	851323	691	0	correct_rejection	NA	0
28	Single	7	493	979	6	0	0	852031	692	0	correct_rejection	NA	0
28	Single	8	494	980	4	0	0	852740	691	0	correct_rejection	NA	0
28	Single	9	495	981	9	0	0	853448	692	0	correct_rejection	NA	0
28	Single	10	496	982	0	1	1	854157	691	1	hit	364	0
28	Single	11	497	983	5	0	0	854865	692	0	correct_rejection	NA	0
28	Single	12	498	984	9	0	0	855574	692	0	correct_rejection	NA	0
28	Single	13	499	985	0	1	1	856282	692	1	hit	327	0
28	Single	14	500	986	4	0	0	856991	692	0	correct_rejection	NA	0
28	Single	15	501	987	8	0	0	857700	691	0	correct_rejection	NA	0
28	Single	16	502	988	5	0	0	858408	692	0	correct_rejection	NA	0
28	Single	17	503	989	8	0	0	859117	691	0	correct_rejection	NA	0
28	Single	18	504	990	4	0	0	859825	692	0	correct_rejection	NA	0
28	Single	19	505	991	7	0	0	860534	692	0	correct_rejection	NA	0
28	Single	20	506	992	8	0	0	861242	692	0	correct_rejection	NA	0
28	Single	21	507	993	6	0	0	861951	692	0	correct_rejection	NA	0
28	Single	22	508	994	8	0	0	862660	691	0	correct_rejection	NA	0
28	Single	23	509	995	9	0	0	863368	692	0	correct_rejection	NA	0
28	Single	24	510	996	7	0	0	864077	691	0	correct_rejection	NA	0
28	Single	25	511	997	0	1	1	864785	692	1	hit	365	0
28	Single	26	512	998	5	0	0	865494	692	0	correct_rejection	NA	0
28	Single	27	513	999	6	0	0	866202	692	0	correct_rejection	NA	0
28	Single	28	514	1000	9	0	0	866911	692	0	correct_rejection	NA	0
28	Single	29	515	1001	6	0	0	867620	691	0	correct_rejection	NA	0
28	Single	30	516	1002	6	0	0	868328	692	0	correct_rejection	NA	0
28	Single	31	517	1003	5	0	0	869037	691	0	correct_rejection	NA	0
28	Single	32	518	1004	4	0	0	869745	692	0	correct_rejection	NA	0
28	Single	33	519	1005	4	0	0	870454	692	0	correct_rejection	NA	0
28	Single	34	520	1006	0	1	1	871162	692	1	hit	377	0
28	Single	35	521	1007	6	0	0	871871	692	0	correct_rejection	NA	0
28	Single	36	522	1008	7	0	0	872580	691	0	correct_rejection	NA	0
28	Single	37	523	1009	7	0	0	873288	692	0	correct_rejection	NA	0
28	Single	38	524	1010	9	0	0	873997	691	0	correct_rejection	NA	0
28	Single	39	525	1011	9	0	0	874705	692	0	correct_rejection	NA	0
28	Single	40	526	1012	8	0	0	875414	691	0	correct_rejection	NA	0
28	Single	41	527	1013	8	0	0	876122	692	0	correct_rejection	NA	0
28	Single	42	528	1014	5	0	0	876831	692	0	correct_rejection	NA	0
28	Single	43	529	1015	9	0	0	877540	691	0	correct_rejection	NA	0
28	Single	44	530	1016	9	0	0	878248	692	0	correct_rejection	NA	0
28	Single	45	531	1017	7	0	0	878957	691	0	correct_rejection	NA	0
28	Single	46	532	1018	0	1	1	879665	692	1	hit	392	0
28	Single	47	533	1019	9	0	0	880374	691	0	correct_rejection	NA	0
28	Single	48	534	1020	5	0	0	881082	692	0	correct_rejection	NA	0
28	Single	49	535	1021	5	0	0	881791	692	0	correct_rejection	NA	0
28	Single	50	536	1022	0	1	1	882499	692	0	miss	NA	0
28	Single	51	537	1023	8	0	0	883208	692	1	false_alarm	1	0
28	Single	52	538	1024	7	0	0	883917	691	0	correct_rejection	NA	0
28	Single	53	539	1025	5	0	0	884625	692	0	correct_rejection	NA	0
28	Single	54	540	1026	4	0	0	885334	691	0	correct_rejection	NA	0
28	Single	55	541	1027	5	0	0	886042	692	0	correct_rejection	NA	0
28	Single	56	542	1028	7	0	0	886751	692	0	correct_rejection	NA	0
28	Single	57	543	1029	7	0	0	887459	692	0	correct_rejection	NA	0
28	Single	58	544	1030	4	0	0	888168	692	0	correct_rejection	NA	0
28	Single	59	545	1031	9	0	0	888877	691	0	correct_rejection	NA	0
28	Single	60	546	1032	6	0	0	889585	692	0	correct_rejection	NA	0
28	Single	61	547	1033	7	0	0	890294	691	0	correct_rejection	NA	0
28	Single	62	548	1034	8	0	0	891002	692	0	correct_rejection	NA	0
28	Single	63	549	1035	4	0	0	891711	692	0	correct_rejection	NA	0
28	Single	64	550	1036	6	0	0	892419	692	0	correct_rejection	NA	0
28	Single	65	551	1037	5	0	0	893128	692	0	correct_rejection	NA	0
28	Single	66	552	1038	6	0	0	893837	691	0	correct_rejection	NA	0
28	Single	67	553	1039	6	0	0	894545	692	0	correct_rejection	NA	0
28	Single	68	554	1040	9	0	0	895254	691	0	correct_rejection	NA	0
28	Single	69	555	1041	8	0	0	895962	692	0	correct_rejection	NA	0
28	Single	70	556	1042	9	0	0	896671	692	0	correct_rejection	NA	0
28	Single	71	557	1043	4	0	0	897379	692	0	correct_rejection	NA	0
28	Single	72	558	1044	4	0	0	898088	692	0	correct_rejection	NA	0
28	Single	73	559	1045	8	0	0	898797	691	0	correct_rejection	NA	0
28	Single	74	560	1046	6	0	0	899505	692	0	correct_rejection	NA	0
28	Single	75	561	1047	4	0	0	900214	691	0	correct_rejection	NA	0
28	Single	76	562	1048	7	0	0	900922	692	0	correct_rejection	NA	0
28	Single	77	563	1049	6	0	0	901631	691	0	correct_rejection	NA	0
28	Single	78	564	1050	8	0	0	902339	692	0	correct_rejection	NA	0
28	Single	79	565	1051	8	0	0	903048	692	0	correct_rejection	NA	0
28	Single	80	566	1052	4	0	0	903757	691	0	correct_rejection	NA	0
28	Single	81	567	1053	7	0	0	904465	692	0	correct_rejection	NA	0
28	Single	82	568	1054	5	0	0	905174	691	0	correct_rejection	NA	0
28	Single	83	569	1055	5	0	0	905882	692	0	correct_rejection	NA	0
28	Single	84	570	1056	4	0	0	906591	691	0	correct_rejection	NA	0
28	Single	85	571	1057	0	1	1	907299	692	1	hit	322	0
28	Single	86	572	1058	8	0	0	908008	692	0	correct_rejection	NA	0
28	Single	87	573	1059	9	0	0	908716	692	0	correct_rejection	NA	0
28	Single	88	574	1060	0	1	1	909425	692	1	hit	422	0
28	Single	89	575	1061	6	0	0	910134	691	0	correct_rejection	NA	0
28	Single	90	576	1062	9	0	0	910842	692	0	correct_rejection	NA	0
28	Single	91	577	1063	9	0	0	911551	691	0	correct_rejection	NA	0
28	Single	92	578	1064	5	0	0	912259	692	0	correct_rejection	NA	0
28	Single	93	579	1065	8	0	0	912968	692	0	correct_rejection	NA	0
28	Single	94	580	1066	5	0	0	913676	692	0	correct_rejection	NA	0
28	Single	95	581	1067	6	0	0	914385	692	0	correct_rejection	NA	0
28	Single	96	582	1068	7	0	0	915094	691	0	correct_rejection	NA	0
28	Single	97	583	1069	9	0	0	915802	692	0	correct_rejection	NA	0
28	Single	98	584	1070	4	0	0	916511	691	0	correct_rejection	NA	0
28	Single	99	585	1071	6	0	0	917219	692	0	correct_rejection	NA	0
28	Single	100	586	1072	8	0	0	917928	692	0	correct_rejection	NA	0
28	Single	101	587	1073	0	1	1	918636	692	1	hit	387	0
28	Single	102	588	1074	4	0	0	919345	692	0	correct_rejection	NA	0
28	Single	103	589	1075	5	0	0	920054	691	0	correct_rejection	NA	0
28	Single	104	590	1076	9	0	0	920762	692	0	correct_rejection	NA	0
28	Single	105	591	1077	8	0	0	921471	691	0	correct_rejection	NA	0
28	Single	106	592	1078	7	0	0	922179	692	0	correct_rejection	NA	0
28	Single	107	593	1079	0	1	1	922888	692	1	hit	472	0
28	Single	108	594	1080	6	0	0	923596	692	0	correct_rejection	NA	0
28	Single	109	595	1081	6	0	0	924305	692	0	correct_rejection	NA	0
28	Single	110	596	1082	4	0	0	925014	691	0	correct_rejection	NA	0
28	Single	111	597	1083	0	1	1	925722	692	1	hit	422	0
28	Single	112	598	1084	4	0	0	926431	691	0	correct_rejection	NA	0
28	Single	113	599	1085	9	0	0	927139	692	0	correct_rejection	NA	0
28	Single	114	600	1086	7	0	0	927848	691	0	correct_rejection	NA	0
28	Single	115	601	1087	7	0	0	928556	692	0	correct_rejection	NA	0
28	Single	116	602	1088	0	1	1	929265	692	1	hit	469	0
28	Single	117	603	1089	8	0	0	929974	691	0	correct_rejection	NA	0
28	Single	118	604	1090	8	0	0	930682	692	0	correct_rejection	NA	0
28	Single	119	605	1091	6	0	0	931391	691	0	correct_rejection	NA	0
28	Single	120	606	1092	5	0	0	932099	692	0	correct_rejection	NA	0
28	Single	121	607	1093	7	0	0	932808	691	0	correct_rejection	NA	0
28	Single	122	608	1094	0	1	1	933516	692	1	hit	410	0
28	Single	123	609	1095	7	0	0	934225	692	0	correct_rejection	NA	0
28	Single	124	610	1096	8	0	0	934933	692	0	correct_rejection	NA	0
28	Single	125	611	1097	5	0	0	935642	692	0	correct_rejection	NA	0
28	Single	126	612	1098	0	1	1	936351	691	1	hit	329	0
28	Single	127	613	1099	7	0	0	937059	692	0	correct_rejection	NA	0
28	Single	128	614	1100	6	0	0	937768	691	0	correct_rejection	NA	0
28	Single	129	615	1101	4	0	0	938476	692	0	correct_rejection	NA	0
28	Single	130	616	1102	5	0	0	939185	692	0	correct_rejection	NA	0
28	Single	131	617	1103	5	0	0	939893	692	0	correct_rejection	NA	0
28	Single	132	618	1104	6	0	0	940602	692	0	correct_rejection	NA	0
28	Single	133	619	1105	8	0	0	941311	691	0	correct_rejection	NA	0
28	Single	134	620	1106	0	1	1	942019	692	1	hit	418	0
28	Single	135	621	1107	6	0	0	942728	691	0	correct_rejection	NA	0
28	Single	136	622	1108	9	0	0	943436	692	0	correct_rejection	NA	0
28	Single	137	623	1109	4	0	0	944145	692	0	correct_rejection	NA	0
28	Single	138	624	1110	8	0	0	944853	692	0	correct_rejection	NA	0
28	Single	139	625	1111	7	0	0	945562	692	0	correct_rejection	NA	0
28	Single	140	626	1112	0	1	1	946271	691	1	hit	426	0
28	Single	141	627	1113	4	0	0	946979	692	0	correct_rejection	NA	0
28	Single	142	628	1114	6	0	0	947688	691	0	correct_rejection	NA	0
28	Single	143	629	1115	6	0	0	948396	692	0	correct_rejection	NA	0
28	Single	144	630	1116	7	0	0	949105	692	0	correct_rejection	NA	0
28	Single	145	631	1117	5	0	0	949813	692	0	correct_rejection	NA	0
28	Single	146	632	1118	8	0	0	950522	692	0	correct_rejection	NA	0
28	Single	147	633	1119	9	0	0	951231	691	0	correct_rejection	NA	0
28	Single	148	634	1120	8	0	0	951939	692	0	correct_rejection	NA	0
28	Single	149	635	1121	8	0	0	952648	691	0	correct_rejection	NA	0
28	Single	150	636	1122	4	0	0	953356	692	0	correct_rejection	NA	0
28	Single	151	637	1123	9	0	0	954065	691	0	correct_rejection	NA	0
28	Single	152	638	1124	5	0	0	954773	692	0	correct_rejection	NA	0
28	Single	153	639	1125	4	0	0	955482	692	0	correct_rejection	NA	0
28	Single	154	640	1126	4	0	0	956190	692	0	correct_rejection	NA	0
28	Single	155	641	1127	7	0	0	956899	692	0	correct_rejection	NA	0
28	Single	156	642	1128	9	0	0	957608	691	0	correct_rejection	NA	0
28	Single	157	643	1129	9	0	0	958316	692	0	correct_rejection	NA	0
28	Single	158	644	1130	6	0	0	959025	691	0	correct_rejection	NA	0
28	Single	159	645	1131	5	0	0	959733	692	0	correct_rejection	NA	0
28	Single	160	646	1132	0	1	1	960442	692	1	hit	627	0
28	Single	161	647	1133	9	0	0	961150	692	0	correct_rejection	NA	0
28	Single	162	648	1134	7	0	0	961859	692	0	correct_rejection	NA	0
28	Nonet	1	1	1135	9	0	0	970062	691	0	correct_rejection	NA	6429
28	Nonet	2	2	1136	8	0	0	970770	692	0	correct_rejection	NA	0
28	Nonet	3	3	1137	7	0	0	971479	692	0	correct_rejection	NA	0
28	Nonet	4	4	1138	9	0	0	972187	692	0	correct_rejection	NA	0
28	Nonet	5	5	1139	8	0	0	972896	692	0	correct_rejection	NA	0
28	Nonet	6	6	1140	7	0	0	973605	691	0	correct_rejection	NA	0
28	Nonet	7	7	1141	9	0	0	974313	692	0	correct_rejection	NA	0
28	Nonet	8	8	1142	8	0	0	975022	691	0	correct_rejection	NA	0
28	Nonet	9	9	1143	7	0	0	975730	692	0	correct_rejection	NA	0
28	Nonet	10	10	1144	6	0	0	976439	692	0	correct_rejection	NA	0
28	Nonet	11	11	1145	5	0	0	977147	692	0	correct_rejection	NA	0
28	Nonet	12	12	1146	4	0	0	977856	692	0	correct_rejection	NA	0
28	Nonet	13	13	1147	6	0	0	978565	691	0	correct_rejection	NA	0
28	Nonet	14	14	1148	5	0	0	979273	692	0	correct_rejection	NA	0
28	Nonet	15	15	1149	4	0	0	979982	691	0	correct_rejection	NA	0
28	Nonet	16	16	1150	6	0	0	980690	692	0	correct_rejection	NA	0
28	Nonet	17	17	1151	0	1	1	981399	692	1	hit	447	0
28	Nonet	18	18	1152	5	0	0	982107	692	0	correct_rejection	NA	0
28	Nonet	19	19	1153	4	0	0	982816	692	0	correct_rejection	NA	0
28	Nonet	20	20	1154	6	0	0	983525	691	0	correct_rejection	NA	0
28	Nonet	21	21	1155	5	0	0	984233	692	0	correct_rejection	NA	0
28	Nonet	22	22	1156	0	1	1	984942	691	1	hit	335	0
28	Nonet	23	23	1157	4	0	0	985650	692	0	correct_rejection	NA	0
28	Nonet	24	24	1158	6	0	0	986359	691	0	correct_rejection	NA	0
28	Nonet	25	25	1159	5	0	0	987067	692	0	correct_rejection	NA	0
28	Nonet	26	26	1160	4	0	0	987776	692	0	correct_rejection	NA	0
28	Nonet	27	27	1161	6	0	0	988485	691	0	correct_rejection	NA	0
28	Nonet	28	28	1162	5	0	0	989193	692	0	correct_rejection	NA	0
28	Nonet	29	29	1163	4	0	0	989902	691	0	correct_rejection	NA	0
28	Nonet	30	30	1164	9	0	0	990610	692	0	correct_rejection	NA	0
28	Nonet	31	31	1165	8	0	0	991319	691	0	correct_rejection	NA	0
28	Nonet	32	32	1166	0	1	1	992027	692	1	hit	384	0
28	Nonet	33	33	1167	7	0	0	992736	692	0	correct_rejection	NA	0
28	Nonet	34	34	1168	9	0	0	993444	692	0	correct_rejection	NA	0
28	Nonet	35	35	1169	8	0	0	994153	692	0	correct_rejection	NA	0
28	Nonet	36	36	1170	7	0	0	994862	691	0	correct_rejection	NA	0
28	Nonet	37	37	1171	9	0	0	995570	692	0	correct_rejection	NA	0
28	Nonet	38	38	1172	8	0	0	996279	691	0	correct_rejection	NA	0
28	Nonet	39	39	1173	7	0	0	996987	692	0	correct_rejection	NA	0
28	Nonet	40	40	1174	4	0	0	997696	692	0	correct_rejection	NA	0
28	Nonet	41	41	1175	5	0	0	998404	692	0	correct_rejection	NA	0
28	Nonet	42	42	1176	6	0	0	999113	692	0	correct_rejection	NA	0
28	Nonet	43	43	1177	0	1	2	999822	691	1	hit	399	0
28	Nonet	44	44	1178	4	0	0	1000530	692	0	correct_rejection	NA	0
28	Nonet	45	45	1179	5	0	0	1001239	691	0	correct_rejection	NA	0
28	Nonet	46	46	1180	6	0	0	1001947	692	0	correct_rejection	NA	0
28	Nonet	47	47	1181	0	1	2	1002656	692	1	hit	484	0
28	Nonet	48	48	1182	4	0	0	1003364	692	0	correct_rejection	NA	0
28	Nonet	49	49	1183	5	0	0	1004073	692	0	correct_rejection	NA	0
28	Nonet	50	50	1184	6	0	0	1004782	691	0	correct_rejection	NA	0
28	Nonet	51	51	1185	4	0	0	1005490	692	0	correct_rejection	NA	0
28	Nonet	52	52	1186	5	0	0	1006199	691	0	correct_rejection	NA	0
28	Nonet	53	53	1187	0	1	1	1006907	692	1	hit	416	0
28	Nonet	54	54	1188	6	0	0	1007616	692	0	correct_rejection	NA	0
28	Nonet	55	55	1189	4	0	0	1008324	692	0	correct_rejection	NA	0
28	Nonet	56	56	1190	5	0	0	1009033	692	0	correct_rejection	NA	0
28	Nonet	57	57	1191	6	0	0	1009742	691	0	correct_rejection	NA	0
28	Nonet	58	58	1192	4	0	0	1010450	692	0	correct_rejection	NA	0
28	Nonet	59	59	1193	5	0	0	1011159	691	0	correct_rejection	NA	0
28	Nonet	60	60	1194	6	0	0	1011867	692	0	correct_rejection	NA	0
28	Nonet	61	61	1195	7	0	0	1012576	691	0	correct_rejection	NA	0
28	Nonet	62	62	1196	8	0	0	1013284	692	0	correct_rejection	NA	0
28	Nonet	63	63	1197	9	0	0	1013993	692	0	correct_rejection	NA	0
28	Nonet	64	64	1198	7	0	0	1014702	691	0	correct_rejection	NA	0
28	Nonet	65	65	1199	8	0	0	1015410	692	0	correct_rejection	NA	0
28	Nonet	66	66	1200	0	1	1	1016119	691	1	hit	424	0
28	Nonet	67	67	1201	9	0	0	1016827	692	0	correct_rejection	NA	0
28	Nonet	68	68	1202	7	0	0	1017536	691	0	correct_rejection	NA	0
28	Nonet	69	69	1203	8	0	0	1018244	692	0	correct_rejection	NA	0
28	Nonet	70	70	1204	9	0	0	1018953	692	0	correct_rejection	NA	0
28	Nonet	71	71	1205	4	0	0	1019661	692	0	correct_rejection	NA	0
28	Nonet	72	72	1206	5	0	0	1020370	692	0	correct_rejection	NA	0
28	Nonet	73	73	1207	6	0	0	1021079	691	0	correct_rejection	NA	0
28	Nonet	74	74	1208	4	0	0	1021787	692	0	correct_rejection	NA	0
28	Nonet	75	75	1209	5	0	0	1022496	691	0	correct_rejection	NA	0
28	Nonet	76	76	1210	6	0	0	1023204	692	0	correct_rejection	NA	0
28	Nonet	77	77	1211	4	0	0	1023913	692	0	correct_rejection	NA	0
28	Nonet	78	78	1212	5	0	0	1024621	692	0	correct_rejection	NA	0
28	Nonet	79	79	1213	6	0	0	1025330	692	0	correct_rejection	NA	0
28	Nonet	80	80	1214	9	0	0	1026039	691	0	correct_rejection	NA	0
28	Nonet	81	81	1215	8	0	0	1026747	692	0	correct_rejection	NA	0
28	Nonet	82	82	1216	0	1	1	1027456	691	1	hit	465	0
28	Nonet	83	83	1217	7	0	0	1028164	692	0	correct_rejection	NA	0
28	Nonet	84	84	1218	9	0	0	1028873	692	0	correct_rejection	NA	0
28	Nonet	85	85	1219	8	0	0	1029581	692	0	correct_rejection	NA	0
28	Nonet	86	86	1220	0	1	1	1030290	692	1	hit	480	0
28	Nonet	87	87	1221	7	0	0	1030999	691	0	correct_rejection	NA	0
28	Nonet	88	88	1222	9	0	0	1031707	692	0	correct_rejection	NA	0
28	Nonet	89	89	1223	8	0	0	1032416	691	0	correct_rejection	NA	0
28	Nonet	90	90	1224	7	0	0	1033124	692	0	correct_rejection	NA	0
28	Nonet	91	91	1225	0	1	3	1033833	692	1	hit	615	0
28	Nonet	92	92	1226	9	0	0	1034541	692	0	correct_rejection	NA	0
28	Nonet	93	93	1227	8	0	0	1035250	692	0	correct_rejection	NA	0
28	Nonet	94	94	1228	7	0	0	1035959	691	0	correct_rejection	NA	0
28	Nonet	95	95	1229	9	0	0	1036667	692	0	correct_rejection	NA	0
28	Nonet	96	96	1230	8	0	0	1037376	691	0	correct_rejection	NA	0
28	Nonet	97	97	1231	7	0	0	1038084	692	0	correct_rejection	NA	0
28	Nonet	98	98	1232	9	0	0	1038793	691	0	correct_rejection	NA	0
28	Nonet	99	99	1233	8	0	0	1039501	692	0	correct_rejection	NA	0
28	Nonet	100	100	1234	7	0	0	1040210	692	0	correct_rejection	NA	0
28	Nonet	101	101	1235	7	0	0	1040919	691	0	correct_rejection	NA	0
28	Nonet	102	102	1236	0	1	1	1041627	692	1	hit	412	0
28	Nonet	103	103	1237	8	0	0	1042336	691	0	correct_rejection	NA	0
28	Nonet	104	104	1238	9	0	0	1043044	692	0	correct_rejection	NA	0
28	Nonet	105	105	1239	7	0	0	1043753	691	0	correct_rejection	NA	0
28	Nonet	106	106	1240	8	0	0	1044461	692	0	correct_rejection	NA	0
28	Nonet	107	107	1241	9	0	0	1045170	692	0	correct_rejection	NA	0
28	Nonet	108	108	1242	7	0	0	1045878	692	0	correct_rejection	NA	0
28	Nonet	109	109	1243	8	0	0	1046587	692	0	correct_rejection	NA	0
28	Nonet	110	110	1244	9	0	0	1047296	691	0	correct_rejection	NA	0
28	Nonet	111	111	1245	6	0	0	1048004	692	0	correct_rejection	NA	0
28	Nonet	112	112	1246	5	0	0	1048713	691	0	correct_rejection	NA	0
28	Nonet	113	113	1247	0	1	1	1049421	692	1	hit	515	0
28	Nonet	114	114	1248	4	0	0	1050130	692	0	correct_rejection	NA	0
28	Nonet	115	115	1249	6	0	0	1050838	692	0	correct_rejection	NA	0
28	Nonet	116	116	1250	5	0	0	1051547	692	0	correct_rejection	NA	0
28	Nonet	117	117	1251	4	0	0	1052256	691	0	correct_rejection	NA	0
28	Nonet	118	118	1252	0	1	2	1052964	692	1	hit	449	0
28	Nonet	119	119	1253	6	0	0	1053673	691	0	correct_rejection	NA	0
28	Nonet	120	120	1254	5	0	0	1054381	692	0	correct_rejection	NA	0
28	Nonet	121	121	1255	4	0	0	1055090	692	0	correct_rejection	NA	0
28	Nonet	122	122	1256	4	0	0	1055798	692	0	correct_rejection	NA	0
28	Nonet	123	123	1257	5	0	0	1056507	692	0	correct_rejection	NA	0
28	Nonet	124	124	1258	6	0	0	1057216	691	1	false_alarm	489	0
28	Nonet	125	125	1259	4	0	0	1057924	692	0	correct_rejection	NA	0
28	Nonet	126	126	1260	5	0	0	1058633	691	0	correct_rejection	NA	0
28	Nonet	127	127	1261	0	1	1	1059341	692	0	miss	NA	0
28	Nonet	128	128	1262	6	0	0	1060050	692	0	correct_rejection	NA	0
28	Nonet	129	129	1263	4	0	0	1060758	692	0	correct_rejection	NA	0
28	Nonet	130	130	1264	0	1	1	1061467	692	1	hit	408	0
28	Nonet	131	131	1265	5	0	0	1062176	691	0	correct_rejection	NA	0
28	Nonet	132	132	1266	6	0	0	1062884	692	0	correct_rejection	NA	0
28	Nonet	133	133	1267	6	0	0	1063593	691	0	correct_rejection	NA	0
28	Nonet	134	134	1268	5	0	0	1064301	692	0	correct_rejection	NA	0
28	Nonet	135	135	1269	4	0	0	1065010	691	0	correct_rejection	NA	0
28	Nonet	136	136	1270	6	0	0	1065718	692	0	correct_rejection	NA	0
28	Nonet	137	137	1271	5	0	0	1066427	692	0	correct_rejection	NA	0
28	Nonet	138	138	1272	4	0	0	1067135	692	0	correct_rejection	NA	0
28	Nonet	139	139	1273	6	0	0	1067844	692	0	correct_rejection	NA	0
28	Nonet	140	140	1274	5	0	0	1068553	691	0	correct_rejection	NA	0
28	Nonet	141	141	1275	4	0	0	1069261	692	0	correct_rejection	NA	0
28	Nonet	142	142	1276	7	0	0	1069970	691	0	correct_rejection	NA	0
28	Nonet	143	143	1277	8	0	0	1070678	692	0	correct_rejection	NA	0
28	Nonet	144	144	1278	0	1	1	1071387	692	1	hit	369	0
28	Nonet	145	145	1279	9	0	0	1072095	692	0	correct_rejection	NA	0
28	Nonet	146	146	1280	7	0	0	1072804	692	0	correct_rejection	NA	0
28	Nonet	147	147	1281	8	0	0	1073513	691	0	correct_rejection	NA	0
28	Nonet	148	148	1282	9	0	0	1074221	692	0	correct_rejection	NA	0
28	Nonet	149	149	1283	0	1	2	1074930	691	1	hit	355	0
28	Nonet	150	150	1284	7	0	0	1075638	692	0	correct_rejection	NA	0
28	Nonet	151	151	1285	8	0	0	1076347	692	0	correct_rejection	NA	0
28	Nonet	152	152	1286	9	0	0	1077055	692	0	correct_rejection	NA	0
28	Nonet	153	153	1287	7	0	0	1077764	692	0	correct_rejection	NA	0
28	Nonet	154	154	1288	8	0	0	1078473	691	0	correct_rejection	NA	0
28	Nonet	155	155	1289	9	0	0	1079181	692	0	correct_rejection	NA	0
28	Nonet	156	156	1290	7	0	0	1079890	691	0	correct_rejection	NA	0
28	Nonet	157	157	1291	8	0	0	1080598	692	0	correct_rejection	NA	0
28	Nonet	158	158	1292	9	0	0	1081307	692	0	correct_rejection	NA	0
28	Nonet	159	159	1293	0	1	2	1082015	692	1	hit	458	0
28	Nonet	160	160	1294	7	0	0	1082724	692	0	correct_rejection	NA	0
28	Nonet	161	161	1295	8	0	0	1083433	691	0	correct_rejection	NA	0
28	Nonet	162	162	1296	9	0	0	1084141	692	0	correct_rejection	NA	0
28	Correct	1	163	1297	4	0	0	1093119	692	0	correct_rejection	NA	6489
28	Correct	2	164	1298	5	0	0	1093828	691	0	correct_rejection	NA	0
28	Correct	3	165	1299	6	0	0	1094536	692	0	correct_rejection	NA	0
28	Correct	4	166	1300	4	0	0	1095245	691	0	correct_rejection	NA	0
28	Correct	5	167	1301	5	0	0	1095953	692	0	correct_rejection	NA	0
28	Correct	6	168	1302	6	0	0	1096662	692	0	correct_rejection	NA	0
28	Correct	7	169	1303	4	0	0	1097370	692	0	correct_rejection	NA	0
28	Correct	8	170	1304	0	1	1	1098079	692	1	hit	423	0
28	Correct	9	171	1305	5	0	0	1098788	691	0	correct_rejection	NA	0
28	Correct	10	172	1306	6	0	0	1099496	692	0	correct_rejection	NA	0
28	Correct	11	173	1307	6	0	0	1100205	691	0	correct_rejection	NA	0
28	Correct	12	174	1308	5	0	0	1100913	692	0	correct_rejection	NA	0
28	Correct	13	175	1309	4	0	0	1101622	692	0	correct_rejection	NA	0
28	Correct	14	176	1310	0	1	2	1102330	692	1	hit	436	0
28	Correct	15	177	1311	6	0	0	1103039	692	0	correct_rejection	NA	0
28	Correct	16	178	1312	5	0	0	1103748	691	0	correct_rejection	NA	0
28	Correct	17	179	1313	4	0	0	1104456	692	0	correct_rejection	NA	0
28	Correct	18	180	1314	6	0	0	1105165	691	0	correct_rejection	NA	0
28	Correct	19	181	1315	5	0	0	1105873	692	0	correct_rejection	NA	0
28	Correct	20	182	1316	4	0	0	1106582	692	0	correct_rejection	NA	0
28	Correct	21	183	1317	0	1	3	1107290	692	0	miss	NA	0
28	Correct	22	184	1318	9	0	0	1107999	692	0	correct_rejection	NA	0
28	Correct	23	185	1319	8	0	0	1108708	691	0	correct_rejection	NA	0
28	Correct	24	186	1320	7	0	0	1109416	692	0	correct_rejection	NA	0
28	Correct	25	187	1321	0	1	2	1110125	691	1	hit	360	0
28	Correct	26	188	1322	9	0	0	1110833	692	0	correct_rejection	NA	0
28	Correct	27	189	1323	8	0	0	1111542	692	0	correct_rejection	NA	0
28	Correct	28	190	1324	0	1	1	1112250	692	1	hit	417	0
28	Correct	29	191	1325	7	0	0	1112959	692	0	correct_rejection	NA	0
28	Correct	30	192	1326	9	0	0	1113668	691	0	correct_rejection	NA	0
28	Correct	31	193	1327	8	0	0	1114376	692	0	correct_rejection	NA	0
28	Correct	32	194	1328	7	0	0	1115085	691	0	correct_rejection	NA	0
28	Correct	33	195	1329	0	1	3	1115793	692	1	hit	335	0
28	Correct	34	196	1330	7	0	0	1116502	692	0	correct_rejection	NA	0
28	Correct	35	197	1331	8	0	0	1117210	692	0	correct_rejection	NA	0
28	Correct	36	198	1332	9	0	0	1117919	692	0	correct_rejection	NA	0
28	Correct	37	199	1333	7	0	0	1118628	691	0	correct_rejection	NA	0
28	Correct	38	200	1334	8	0	0	1119336	692	0	correct_rejection	NA	0
28	Correct	39	201	1335	9	0	0	1120045	691	0	correct_rejection	NA	0
28	Correct	40	202	1336	7	0	0	1120753	692	0	correct_rejection	NA	0
28	Correct	41	203	1337	8	0	0	1121462	691	0	correct_rejection	NA	0
28	Correct	42	204	1338	9	0	0	1122170	692	0	correct_rejection	NA	0
28	Correct	43	205	1339	4	0	0	1122879	692	0	correct_rejection	NA	0
28	Correct	44	206	1340	5	0	0	1123587	692	0	correct_rejection	NA	0
28	Correct	45	207	1341	6	0	0	1124296	692	0	correct_rejection	NA	0
28	Correct	46	208	1342	4	0	0	1125005	691	0	correct_rejection	NA	0
28	Correct	47	209	1343	5	0	0	1125713	692	0	correct_rejection	NA	0
28	Correct	48	210	1344	6	0	0	1126422	691	0	correct_rejection	NA	0
28	Correct	49	211	1345	4	0	0	1127130	692	0	correct_rejection	NA	0
28	Correct	50	212	1346	5	0	0	1127839	692	0	correct_rejection	NA	0
28	Correct	51	213	1347	6	0	0	1128547	692	0	correct_rejection	NA	0
28	Correct	52	214	1348	6	0	0	1129256	692	0	correct_rejection	NA	0
28	Correct	53	215	1349	5	0	0	1129965	691	0	correct_rejection	NA	0
28	Correct	54	216	1350	4	0	0	1130673	692	0	correct_rejection	NA	0
28	Correct	55	217	1351	6	0	0	1131382	691	0	correct_rejection	NA	0
28	Correct	56	218	1352	5	0	0	1132090	692	0	correct_rejection	NA	0
28	Correct	57	219	1353	4	0	0	1132799	692	0	correct_rejection	NA	0
28	Correct	58	220	1354	6	0	0	1133507	692	0	correct_rejection	NA	0
28	Correct	59	221	1355	5	0	0	1134216	692	0	correct_rejection	NA	0
28	Correct	60	222	1356	0	1	1	1134925	691	1	hit	444	0
28	Correct	61	223	1357	4	0	0	1135633	692	0	correct_rejection	NA	0
28	Correct	62	224	1358	9	0	0	1136342	691	0	correct_rejection	NA	0
28	Correct	63	225	1359	0	1	1	1137050	692	1	hit	454	0
28	Correct	64	226	1360	8	0	0	1137759	692	0	correct_rejection	NA	0
28	Correct	65	227	1361	7	0	0	1138467	692	0	correct_rejection	NA	0
28	Correct	66	228	1362	9	0	0	1139176	692	0	correct_rejection	NA	0
28	Correct	67	229	1363	8	0	0	1139885	691	0	correct_rejection	NA	0
28	Correct	68	230	1364	7	0	0	1140593	692	0	correct_rejection	NA	0
28	Correct	69	231	1365	9	0	0	1141302	691	0	correct_rejection	NA	0
28	Correct	70	232	1366	8	0	0	1142010	692	0	correct_rejection	NA	0
28	Correct	71	233	1367	7	0	0	1142719	692	0	correct_rejection	NA	0
28	Correct	72	234	1368	7	0	0	1143427	692	0	correct_rejection	NA	0
28	Correct	73	235	1369	8	0	0	1144136	692	0	correct_rejection	NA	0
28	Correct	74	236	1370	0	1	1	1144845	691	1	hit	452	0
28	Correct	75	237	1371	9	0	0	1145553	692	0	correct_rejection	NA	0
28	Correct	76	238	1372	7	0	0	1146262	691	0	correct_rejection	NA	0
28	Correct	77	239	1373	0	1	1	1146970	692	1	hit	435	0
28	Correct	78	240	1374	8	0	0	1147679	691	0	correct_rejection	NA	0
28	Correct	79	241	1375	9	0	0	1148387	692	0	correct_rejection	NA	0
28	Correct	80	242	1376	7	0	0	1149096	692	0	correct_rejection	NA	0
28	Correct	81	243	1377	0	1	1	1149804	692	1	hit	501	0
28	Correct	82	244	1378	8	0	0	1150513	692	0	correct_rejection	NA	0
28	Correct	83	245	1379	9	0	0	1151222	691	0	correct_rejection	NA	0
28	Correct	84	246	1380	4	0	0	1151930	692	0	correct_rejection	NA	0
28	Correct	85	247	1381	5	0	0	1152639	691	0	correct_rejection	NA	0
28	Correct	86	248	1382	6	0	0	1153347	692	0	correct_rejection	NA	0
28	Correct	87	249	1383	0	1	2	1154056	692	1	hit	484	0
28	Correct	88	250	1384	4	0	0	1154764	692	0	correct_rejection	NA	0
28	Correct	89	251	1385	5	0	0	1155473	692	0	correct_rejection	NA	0
28	Correct	90	252	1386	6	0	0	1156182	691	0	correct_rejection	NA	0
28	Correct	91	253	1387	4	0	0	1156890	692	0	correct_rejection	NA	0
28	Correct	92	254	1388	5	0	0	1157599	691	0	correct_rejection	NA	0
28	Correct	93	255	1389	6	0	0	1158307	692	0	correct_rejection	NA	0
28	Correct	94	256	1390	6	0	0	1159016	692	0	correct_rejection	NA	0
28	Correct	95	257	1391	0	1	1	1159724	692	1	hit	412	0
28	Correct	96	258	1392	5	0	0	1160433	692	0	correct_rejection	NA	0
28	Correct	97	259	1393	4	0	0	1161142	691	0	correct_rejection	NA	0
28	Correct	98	260	1394	6	0	0	1161850	692	0	correct_rejection	NA	0
28	Correct	99	261	1395	5	0	0	1162559	691	0	correct_rejection	NA	0
28	Correct	100	262	1396	4	0	0	1163267	692	0	correct_rejection	NA	0
28	Correct	101	263	1397	6	0	0	1163976	692	0	correct_rejection	NA	0
28	Correct	102	264	1398	5	0	0	1164684	692	0	correct_rejection	NA	0
28	Correct	103	265	1399	4	0	0	1165393	692	0	correct_rejection	NA	0
28	Correct	104	266	1400	9	0	0	1166102	691	0	correct_rejection	NA	0
28	Correct	105	267	1401	8	0	0	1166810	692	0	correct_rejection	NA	0
28	Correct	106	268	1402	7	0	0	1167519	691	0	correct_rejection	NA	0
28	Correct	107	269	1403	9	0	0	1168227	692	0	correct_rejection	NA	0
28	Correct	108	270	1404	8	0	0	1168936	692	0	correct_rejection	NA	0
28	Correct	109	271	1405	7	0	0	1169644	692	0	correct_rejection	NA	0
28	Correct	110	272	1406	9	0	0	1170353	692	0	correct_rejection	NA	0
28	Correct	111	273	1407	8	0	0	1171062	691	0	correct_rejection	NA	0
28	Correct	112	274	1408	7	0	0	1171770	692	0	correct_rejection	NA	0
28	Correct	113	275	1409	7	0	0	1172479	691	0	correct_rejection	NA	0
28	Correct	114	276	1410	8	0	0	1173187	692	0	correct_rejection	NA	0
28	Correct	115	277	1411	0	1	1	1173896	691	0	miss	NA	0
28	Correct	116	278	1412	9	0	0	1174604	692	0	correct_rejection	NA	0
28	Correct	117	279	1413	7	0	0	1175313	692	0	correct_rejection	NA	0
28	Correct	118	280	1414	8	0	0	1176021	692	0	correct_rejection	NA	0
28	Correct	119	281	1415	9	0	0	1176730	692	0	correct_rejection	NA	0
28	Correct	120	282	1416	0	1	2	1177439	691	1	hit	449	0
28	Correct	121	283	1417	7	0	0	1178147	692	0	correct_rejection	NA	0
28	Correct	122	284	1418	8	0	0	1178856	691	0	correct_rejection	NA	0
28	Correct	123	285	1419	9	0	0	1179564	692	0	correct_rejection	NA	0
28	Correct	124	286	1420	4	0	0	1180273	692	0	correct_rejection	NA	0
28	Correct	125	287	1421	5	0	0	1180981	692	0	correct_rejection	NA	0
28	Correct	126	288	1422	0	1	1	1181690	692	1	hit	511	0
28	Correct	127	289	1423	6	0	0	1182399	691	0	correct_rejection	NA	0
28	Correct	128	290	1424	4	0	0	1183107	692	0	correct_rejection	NA	0
28	Correct	129	291	1425	5	0	0	1183816	691	0	correct_rejection	NA	0
28	Correct	130	292	1426	6	0	0	1184524	692	0	correct_rejection	NA	0
28	Correct	131	293	1427	4	0	0	1185233	692	0	correct_rejection	NA	0
28	Correct	132	294	1428	5	0	0	1185941	692	0	correct_rejection	NA	0
28	Correct	133	295	1429	6	0	0	1186650	692	0	correct_rejection	NA	0
28	Correct	134	296	1430	6	0	0	1187359	691	0	correct_rejection	NA	0
28	Correct	135	297	1431	5	0	0	1188067	692	0	correct_rejection	NA	0
28	Correct	136	298	1432	4	0	0	1188776	691	0	correct_rejection	NA	0
28	Correct	137	299	1433	6	0	0	1189484	692	0	correct_rejection	NA	0
28	Correct	138	300	1434	5	0	0	1190193	692	0	correct_rejection	NA	0
28	Correct	139	301	1435	4	0	0	1190901	692	0	correct_rejection	NA	0
28	Correct	140	302	1436	6	0	0	1191610	692	0	correct_rejection	NA	0
28	Correct	141	303	1437	5	0	0	1192319	691	0	correct_rejection	NA	0
28	Correct	142	304	1438	4	0	0	1193027	692	0	correct_rejection	NA	0
28	Correct	143	305	1439	9	0	0	1193736	691	0	correct_rejection	NA	0
28	Correct	144	306	1440	8	0	0	1194444	692	0	correct_rejection	NA	0
28	Correct	145	307	1441	7	0	0	1195153	692	0	correct_rejection	NA	0
28	Correct	146	308	1442	9	0	0	1195861	692	0	correct_rejection	NA	0
28	Correct	147	309	1443	8	0	0	1196570	692	0	correct_rejection	NA	0
28	Correct	148	310	1444	0	1	1	1197279	691	1	hit	500	0
28	Correct	149	311	1445	7	0	0	1197987	692	0	correct_rejection	NA	0
28	Correct	150	312	1446	9	0	0	1198696	691	0	correct_rejection	NA	0
28	Correct	151	313	1447	8	0	0	1199404	692	0	correct_rejection	NA	0
28	Correct	152	314	1448	7	0	0	1200113	691	0	correct_rejection	NA	0
28	Correct	153	315	1449	7	0	0	1200821	692	0	correct_rejection	NA	0
28	Correct	154	316	1450	0	1	1	1201530	692	1	hit	308	0
28	Correct	155	317	1451	8	0	0	1202238	692	0	correct_rejection	NA	0
28	Correct	156	318	1452	9	0	0	1202947	692	0	correct_rejection	NA	0
28	Correct	157	319	1453	7	0	0	1203656	691	0	correct_rejection	NA	0
28	Correct	158	320	1454	8	0	0	1204364	692	0	correct_rejection	NA	0
28	Correct	159	321	1455	9	0	0	1205073	691	0	correct_rejection	NA	0
28	Correct	160	322	1456	7	0	0	1205781	692	0	correct_rejection	NA	0
28	Correct	161	323	1457	8	0	0	1206490	692	0	correct_rejection	NA	0
28	Correct	162	324	1458	9	0	0	1207198	692	0	correct_rejection	NA	0
28	Single	1	1	1459	9	0	0	1217594	691	0	correct_rejection	NA	7959
28	Single	2	2	1460	5	0	0	1218302	692	0	correct_rejection	NA	0
28	Single	3	3	1461	4	0	0	1219011	691	0	correct_rejection	NA	0
28	Single	4	4	1462	7	0	0	1219719	692	0	correct_rejection	NA	0
28	Single	5	5	1463	9	0	0	1220428	692	0	correct_rejection	NA	0
28	Single	6	6	1464	4	0	0	1221136	692	0	correct_rejection	NA	0
28	Single	7	7	1465	4	0	0	1221845	692	0	correct_rejection	NA	0
28	Single	8	8	1466	5	0	0	1222554	691	0	correct_rejection	NA	0
28	Single	9	9	1467	0	1	1	1223262	692	1	hit	537	0
28	Single	10	10	1468	8	0	0	1223971	691	0	correct_rejection	NA	0
28	Single	11	11	1469	7	0	0	1224679	692	0	correct_rejection	NA	0
28	Single	12	12	1470	5	0	0	1225388	691	0	correct_rejection	NA	0
28	Single	13	13	1471	7	0	0	1226096	692	0	correct_rejection	NA	0
28	Single	14	14	1472	0	1	1	1226805	692	1	hit	386	0
28	Single	15	15	1473	7	0	0	1227514	691	0	correct_rejection	NA	0
28	Single	16	16	1474	8	0	0	1228222	692	0	correct_rejection	NA	0
28	Single	17	17	1475	9	0	0	1228931	691	0	correct_rejection	NA	0
28	Single	18	18	1476	8	0	0	1229639	692	0	correct_rejection	NA	0
28	Single	19	19	1477	6	0	0	1230348	691	0	correct_rejection	NA	0
28	Single	20	20	1478	4	0	0	1231056	692	0	correct_rejection	NA	0
28	Single	21	21	1479	0	1	1	1231765	692	1	hit	407	0
28	Single	22	22	1480	9	0	0	1232473	692	0	correct_rejection	NA	0
28	Single	23	23	1481	9	0	0	1233182	692	0	correct_rejection	NA	0
28	Single	24	24	1482	7	0	0	1233891	691	0	correct_rejection	NA	0
28	Single	25	25	1483	0	1	1	1234599	692	1	hit	382	0
28	Single	26	26	1484	6	0	0	1235308	691	0	correct_rejection	NA	0
28	Single	27	27	1485	6	0	0	1236016	692	0	correct_rejection	NA	0
28	Single	28	28	1486	8	0	0	1236725	692	0	correct_rejection	NA	0
28	Single	29	29	1487	5	0	0	1237433	692	0	correct_rejection	NA	0
28	Single	30	30	1488	6	0	0	1238142	692	0	correct_rejection	NA	0
28	Single	31	31	1489	0	1	1	1238851	691	1	hit	503	0
28	Single	32	32	1490	7	0	0	1239559	692	0	correct_rejection	NA	0
28	Single	33	33	1491	4	0	0	1240268	691	0	correct_rejection	NA	0
28	Single	34	34	1492	8	0	0	1240976	692	0	correct_rejection	NA	0
28	Single	35	35	1493	8	0	0	1241685	692	0	correct_rejection	NA	0
28	Single	36	36	1494	4	0	0	1242393	692	0	correct_rejection	NA	0
28	Single	37	37	1495	6	0	0	1243102	692	0	correct_rejection	NA	0
28	Single	38	38	1496	5	0	0	1243811	691	0	correct_rejection	NA	0
28	Single	39	39	1497	5	0	0	1244519	692	0	correct_rejection	NA	0
28	Single	40	40	1498	9	0	0	1245228	691	0	correct_rejection	NA	0
28	Single	41	41	1499	6	0	0	1245936	692	0	correct_rejection	NA	0
28	Single	42	42	1500	4	0	0	1246645	692	0	correct_rejection	NA	0
28	Single	43	43	1501	9	0	0	1247353	692	0	correct_rejection	NA	0
28	Single	44	44	1502	8	0	0	1248062	692	0	correct_rejection	NA	0
28	Single	45	45	1503	8	0	0	1248771	691	0	correct_rejection	NA	0
28	Single	46	46	1504	6	0	0	1249479	692	0	correct_rejection	NA	0
28	Single	47	47	1505	9	0	0	1250188	691	0	correct_rejection	NA	0
28	Single	48	48	1506	6	0	0	1250896	692	0	correct_rejection	NA	0
28	Single	49	49	1507	6	0	0	1251605	691	0	correct_rejection	NA	0
28	Single	50	50	1508	7	0	0	1252313	692	0	correct_rejection	NA	0
28	Single	51	51	1509	5	0	0	1253022	692	0	correct_rejection	NA	0
28	Single	52	52	1510	6	0	0	1253731	691	0	correct_rejection	NA	0
28	Single	53	53	1511	5	0	0	1254439	692	0	correct_rejection	NA	0
28	Single	54	54	1512	8	0	0	1255148	691	0	correct_rejection	NA	0
28	Single	55	55	1513	4	0	0	1255856	692	0	correct_rejection	NA	0
28	Single	56	56	1514	5	0	0	1256565	691	0	correct_rejection	NA	0
28	Single	57	57	1515	4	0	0	1257273	692	0	correct_rejection	NA	0
28	Single	58	58	1516	8	0	0	1257982	692	0	correct_rejection	NA	0
28	Single	59	59	1517	7	0	0	1258690	692	0	correct_rejection	NA	0
28	Single	60	60	1518	7	0	0	1259399	692	0	correct_rejection	NA	0
28	Single	61	61	1519	6	0	0	1260108	691	0	correct_rejection	NA	0
28	Single	62	62	1520	8	0	0	1260816	692	0	correct_rejection	NA	0
28	Single	63	63	1521	9	0	0	1261525	691	0	correct_rejection	NA	0
28	Single	64	64	1522	7	0	0	1262233	692	0	correct_rejection	NA	0
28	Single	65	65	1523	9	0	0	1262942	692	0	correct_rejection	NA	0
28	Single	66	66	1524	5	0	0	1263650	692	0	correct_rejection	NA	0
28	Single	67	67	1525	5	0	0	1264359	692	0	correct_rejection	NA	0
28	Single	68	68	1526	7	0	0	1265068	691	0	correct_rejection	NA	0
28	Single	69	69	1527	4	0	0	1265776	692	0	correct_rejection	NA	0
28	Single	70	70	1528	6	0	0	1266485	691	0	correct_rejection	NA	0
28	Single	71	71	1529	4	0	0	1267193	692	0	correct_rejection	NA	0
28	Single	72	72	1530	0	1	1	1267902	692	1	hit	402	0
28	Single	73	73	1531	4	0	0	1268610	692	0	correct_rejection	NA	0
28	Single	74	74	1532	7	0	0	1269319	692	0	correct_rejection	NA	0
28	Single	75	75	1533	0	1	1	1270028	691	1	hit	486	0
28	Single	76	76	1534	8	0	0	1270736	692	0	correct_rejection	NA	0
28	Single	77	77	1535	5	0	0	1271445	691	0	correct_rejection	NA	0
28	Single	78	78	1536	9	0	0	1272153	692	0	correct_rejection	NA	0
28	Single	79	79	1537	9	0	0	1272862	692	0	correct_rejection	NA	0
28	Single	80	80	1538	4	0	0	1273570	692	0	correct_rejection	NA	0
28	Single	81	81	1539	9	0	0	1274279	692	0	correct_rejection	NA	0
28	Single	82	82	1540	0	1	1	1274988	691	1	hit	566	0
28	Single	83	83	1541	6	0	0	1275696	692	0	correct_rejection	NA	0
28	Single	84	84	1542	4	0	0	1276405	691	0	correct_rejection	NA	0
28	Single	85	85	1543	6	0	0	1277113	692	0	correct_rejection	NA	0
28	Single	86	86	1544	8	0	0	1277822	691	0	correct_rejection	NA	0
28	Single	87	87	1545	0	1	1	1278530	692	1	hit	522	0
28	Single	88	88	1546	8	0	0	1279239	692	0	correct_rejection	NA	0
28	Single	89	89	1547	5	0	0	1279948	691	0	correct_rejection	NA	0
28	Single	90	90	1548	7	0	0	1280656	692	0	correct_rejection	NA	0
28	Single	91	91	1549	8	0	0	1281365	691	0	correct_rejection	NA	0
28	Single	92	92	1550	6	0	0	1282073	692	0	correct_rejection	NA	0
28	Single	93	93	1551	7	0	0	1282782	691	0	correct_rejection	NA	0
28	Single	94	94	1552	9	0	0	1283490	692	0	correct_rejection	NA	0
28	Single	95	95	1553	8	0	0	1284199	692	0	correct_rejection	NA	0
28	Single	96	96	1554	7	0	0	1284907	692	0	correct_rejection	NA	0
28	Single	97	97	1555	6	0	0	1285616	692	0	correct_rejection	NA	0
28	Single	98	98	1556	9	0	0	1286325	691	0	correct_rejection	NA	0
28	Single	99	99	1557	0	1	1	1287033	692	0	miss	NA	0
28	Single	100	100	1558	7	0	0	1287742	691	0	correct_rejection	NA	0
28	Single	101	101	1559	7	0	0	1288450	692	0	correct_rejection	NA	0
28	Single	102	102	1560	4	0	0	1289159	692	0	correct_rejection	NA	0
28	Single	103	103	1561	5	0	0	1289867	692	0	correct_rejection	NA	0
28	Single	104	104	1562	5	0	0	1290576	692	0	correct_rejection	NA	0
28	Single	105	105	1563	8	0	0	1291285	691	0	correct_rejection	NA	0
28	Single	106	106	1564	9	0	0	1291993	692	0	correct_rejection	NA	0
28	Single	107	107	1565	0	1	1	1292702	691	1	hit	346	0
28	Single	108	108	1566	9	0	0	1293410	692	0	correct_rejection	NA	0
28	Single	109	109	1567	4	0	0	1294119	692	0	correct_rejection	NA	0
28	Single	110	110	1568	0	1	1	1294827	692	1	hit	387	0
28	Single	111	111	1569	8	0	0	1295536	692	0	correct_rejection	NA	0
28	Single	112	112	1570	4	0	0	1296245	691	0	correct_rejection	NA	0
28	Single	113	113	1571	0	1	1	1296953	692	1	hit	401	0
28	Single	114	114	1572	7	0	0	1297662	691	0	correct_rejection	NA	0
28	Single	115	115	1573	5	0	0	1298370	692	0	correct_rejection	NA	0
28	Single	116	116	1574	9	0	0	1299079	692	0	correct_rejection	NA	0
28	Single	117	117	1575	5	0	0	1299787	692	0	correct_rejection	NA	0
28	Single	118	118	1576	6	0	0	1300496	692	0	correct_rejection	NA	0
28	Single	119	119	1577	6	0	0	1301205	691	0	correct_rejection	NA	0
28	Single	120	120	1578	5	0	0	1301913	692	0	correct_rejection	NA	0
28	Single	121	121	1579	0	1	1	1302622	691	1	hit	433	0
28	Single	122	122	1580	4	0	0	1303330	692	0	correct_rejection	NA	0
28	Single	123	123	1581	9	0	0	1304039	691	0	correct_rejection	NA	0
28	Single	124	124	1582	7	0	0	1304747	692	0	correct_rejection	NA	0
28	Single	125	125	1583	6	0	0	1305456	692	0	correct_rejection	NA	0
28	Single	126	126	1584	4	0	0	1306165	691	0	correct_rejection	NA	0
28	Single	127	127	1585	9	0	0	1306873	692	0	correct_rejection	NA	0
28	Single	128	128	1586	4	0	0	1307582	691	0	correct_rejection	NA	0
28	Single	129	129	1587	4	0	0	1308290	692	0	correct_rejection	NA	0
28	Single	130	130	1588	8	0	0	1308999	691	0	correct_rejection	NA	0
28	Single	131	131	1589	5	0	0	1309707	692	0	correct_rejection	NA	0
28	Single	132	132	1590	8	0	0	1310416	692	0	correct_rejection	NA	0
28	Single	133	133	1591	6	0	0	1311124	692	0	correct_rejection	NA	0
28	Single	134	134	1592	8	0	0	1311833	692	0	correct_rejection	NA	0
28	Single	135	135	1593	4	0	0	1312542	691	0	correct_rejection	NA	0
28	Single	136	136	1594	6	0	0	1313250	692	0	correct_rejection	NA	0
28	Single	137	137	1595	0	1	1	1313959	691	1	hit	398	0
28	Single	138	138	1596	6	0	0	1314667	692	0	correct_rejection	NA	0
28	Single	139	139	1597	9	0	0	1315376	692	0	correct_rejection	NA	0
