ID	block	trial_block	trial_cat	trial_total	number	violation	level_violation	onset	duration	Response	Hit_Miss	RT	pre_trial_fixcross_ISI
first_trigger_at: 11079
trigger nr 3 at 13079
29	Single	1	1	1	9	0	0	21081	692	0	correct_rejection	NA	7959
29	Single	2	2	2	5	0	0	21790	692	0	correct_rejection	NA	0
29	Single	3	3	3	4	0	0	22499	691	0	correct_rejection	NA	0
29	Single	4	4	4	7	0	0	23207	692	0	correct_rejection	NA	0
29	Single	5	5	5	9	0	0	23916	691	0	correct_rejection	NA	0
29	Single	6	6	6	4	0	0	24624	692	0	correct_rejection	NA	0
29	Single	7	7	7	4	0	0	25333	692	0	correct_rejection	NA	0
29	Single	8	8	8	5	0	0	26041	692	0	correct_rejection	NA	0
29	Single	9	9	9	0	1	1	26750	692	1	hit	399	0
29	Single	10	10	10	8	0	0	27459	691	0	correct_rejection	NA	0
29	Single	11	11	11	7	0	0	28167	692	0	correct_rejection	NA	0
29	Single	12	12	12	5	0	0	28876	691	0	correct_rejection	NA	0
29	Single	13	13	13	7	0	0	29584	692	0	correct_rejection	NA	0
29	Single	14	14	14	0	1	1	30293	692	1	hit	455	0
29	Single	15	15	15	7	0	0	31001	692	0	correct_rejection	NA	0
29	Single	16	16	16	8	0	0	31710	692	0	correct_rejection	NA	0
29	Single	17	17	17	9	0	0	32419	691	0	correct_rejection	NA	0
29	Single	18	18	18	8	0	0	33127	692	0	correct_rejection	NA	0
29	Single	19	19	19	6	0	0	33836	691	0	correct_rejection	NA	0
29	Single	20	20	20	4	0	0	34544	692	0	correct_rejection	NA	0
29	Single	21	21	21	0	1	1	35253	691	1	hit	402	0
29	Single	22	22	22	9	0	0	35961	692	0	correct_rejection	NA	0
29	Single	23	23	23	9	0	0	36670	692	0	correct_rejection	NA	0
29	Single	24	24	24	7	0	0	37378	692	0	correct_rejection	NA	0
29	Single	25	25	25	0	1	1	38087	692	1	hit	460	0
29	Single	26	26	26	6	0	0	38796	691	0	correct_rejection	NA	0
29	Single	27	27	27	6	0	0	39504	692	0	correct_rejection	NA	0
29	Single	28	28	28	8	0	0	40213	691	0	correct_rejection	NA	0
29	Single	29	29	29	5	0	0	40921	692	0	correct_rejection	NA	0
29	Single	30	30	30	6	0	0	41630	692	0	correct_rejection	NA	0
29	Single	31	31	31	0	1	1	42338	692	1	hit	355	0
29	Single	32	32	32	7	0	0	43047	692	0	correct_rejection	NA	0
29	Single	33	33	33	4	0	0	43756	691	0	correct_rejection	NA	0
29	Single	34	34	34	8	0	0	44464	692	0	correct_rejection	NA	0
29	Single	35	35	35	8	0	0	45173	691	0	correct_rejection	NA	0
29	Single	36	36	36	4	0	0	45881	692	0	correct_rejection	NA	0
29	Single	37	37	37	6	0	0	46590	692	0	correct_rejection	NA	0
29	Single	38	38	38	5	0	0	47298	692	0	correct_rejection	NA	0
29	Single	39	39	39	5	0	0	48007	692	0	correct_rejection	NA	0
29	Single	40	40	40	9	0	0	48716	691	0	correct_rejection	NA	0
29	Single	41	41	41	6	0	0	49424	692	0	correct_rejection	NA	0
29	Single	42	42	42	4	0	0	50133	691	0	correct_rejection	NA	0
29	Single	43	43	43	9	0	0	50841	692	0	correct_rejection	NA	0
29	Single	44	44	44	8	0	0	51550	692	0	correct_rejection	NA	0
29	Single	45	45	45	8	0	0	52258	692	0	correct_rejection	NA	0
29	Single	46	46	46	6	0	0	52967	692	0	correct_rejection	NA	0
29	Single	47	47	47	9	0	0	53676	691	0	correct_rejection	NA	0
29	Single	48	48	48	6	0	0	54384	692	0	correct_rejection	NA	0
29	Single	49	49	49	6	0	0	55093	691	0	correct_rejection	NA	0
29	Single	50	50	50	7	0	0	55801	692	0	correct_rejection	NA	0
29	Single	51	51	51	5	0	0	56510	691	0	correct_rejection	NA	0
29	Single	52	52	52	6	0	0	57218	692	0	correct_rejection	NA	0
29	Single	53	53	53	5	0	0	57927	692	0	correct_rejection	NA	0
29	Single	54	54	54	8	0	0	58636	691	0	correct_rejection	NA	0
29	Single	55	55	55	4	0	0	59344	692	0	correct_rejection	NA	0
29	Single	56	56	56	5	0	0	60053	691	0	correct_rejection	NA	0
29	Single	57	57	57	4	0	0	60761	692	0	correct_rejection	NA	0
29	Single	58	58	58	8	0	0	61470	691	0	correct_rejection	NA	0
29	Single	59	59	59	7	0	0	62178	692	0	correct_rejection	NA	0
29	Single	60	60	60	7	0	0	62887	692	0	correct_rejection	NA	0
29	Single	61	61	61	6	0	0	63595	692	0	correct_rejection	NA	0
29	Single	62	62	62	8	0	0	64304	692	0	correct_rejection	NA	0
29	Single	63	63	63	9	0	0	65013	691	0	correct_rejection	NA	0
29	Single	64	64	64	7	0	0	65721	692	0	correct_rejection	NA	0
29	Single	65	65	65	9	0	0	66430	691	0	correct_rejection	NA	0
29	Single	66	66	66	5	0	0	67138	692	0	correct_rejection	NA	0
29	Single	67	67	67	5	0	0	67847	692	0	correct_rejection	NA	0
29	Single	68	68	68	7	0	0	68555	692	0	correct_rejection	NA	0
29	Single	69	69	69	4	0	0	69264	692	0	correct_rejection	NA	0
29	Single	70	70	70	6	0	0	69973	691	0	correct_rejection	NA	0
29	Single	71	71	71	4	0	0	70681	692	0	correct_rejection	NA	0
29	Single	72	72	72	0	1	1	71390	691	1	hit	425	0
29	Single	73	73	73	4	0	0	72098	692	0	correct_rejection	NA	0
29	Single	74	74	74	7	0	0	72807	692	0	correct_rejection	NA	0
29	Single	75	75	75	0	1	1	73515	692	1	hit	466	0
29	Single	76	76	76	8	0	0	74224	692	0	correct_rejection	NA	0
29	Single	77	77	77	5	0	0	74933	691	0	correct_rejection	NA	0
29	Single	78	78	78	9	0	0	75641	692	0	correct_rejection	NA	0
29	Single	79	79	79	9	0	0	76350	691	0	correct_rejection	NA	0
29	Single	80	80	80	4	0	0	77058	692	0	correct_rejection	NA	0
29	Single	81	81	81	9	0	0	77767	692	0	correct_rejection	NA	0
29	Single	82	82	82	0	1	1	78475	692	1	hit	374	0
29	Single	83	83	83	6	0	0	79184	692	0	correct_rejection	NA	0
29	Single	84	84	84	4	0	0	79893	691	0	correct_rejection	NA	0
29	Single	85	85	85	6	0	0	80601	692	0	correct_rejection	NA	0
29	Single	86	86	86	8	0	0	81310	691	0	correct_rejection	NA	0
29	Single	87	87	87	0	1	1	82018	692	1	hit	384	0
29	Single	88	88	88	8	0	0	82727	692	0	correct_rejection	NA	0
29	Single	89	89	89	5	0	0	83435	692	0	correct_rejection	NA	0
29	Single	90	90	90	7	0	0	84144	692	0	correct_rejection	NA	0
29	Single	91	91	91	8	0	0	84852	692	0	correct_rejection	NA	0
29	Single	92	92	92	6	0	0	85561	692	0	correct_rejection	NA	0
29	Single	93	93	93	7	0	0	86270	691	0	correct_rejection	NA	0
29	Single	94	94	94	9	0	0	86978	692	0	correct_rejection	NA	0
29	Single	95	95	95	8	0	0	87687	691	0	correct_rejection	NA	0
29	Single	96	96	96	7	0	0	88395	692	0	correct_rejection	NA	0
29	Single	97	97	97	6	0	0	89104	692	0	correct_rejection	NA	0
29	Single	98	98	98	9	0	0	89812	692	0	correct_rejection	NA	0
29	Single	99	99	99	0	1	1	90521	692	1	hit	377	0
29	Single	100	100	100	7	0	0	91230	691	0	correct_rejection	NA	0
29	Single	101	101	101	7	0	0	91938	692	0	correct_rejection	NA	0
29	Single	102	102	102	4	0	0	92647	691	0	correct_rejection	NA	0
29	Single	103	103	103	5	0	0	93355	692	0	correct_rejection	NA	0
29	Single	104	104	104	5	0	0	94064	692	0	correct_rejection	NA	0
29	Single	105	105	105	8	0	0	94772	692	0	correct_rejection	NA	0
29	Single	106	106	106	9	0	0	95481	692	0	correct_rejection	NA	0
29	Single	107	107	107	0	1	1	96190	691	1	hit	307	0
29	Single	108	108	108	9	0	0	96898	692	0	correct_rejection	NA	0
29	Single	109	109	109	4	0	0	97607	691	0	correct_rejection	NA	0
29	Single	110	110	110	0	1	1	98315	692	1	hit	455	0
29	Single	111	111	111	8	0	0	99024	692	0	correct_rejection	NA	0
29	Single	112	112	112	4	0	0	99732	692	0	correct_rejection	NA	0
29	Single	113	113	113	0	1	1	100441	692	1	hit	428	0
29	Single	114	114	114	7	0	0	101150	691	0	correct_rejection	NA	0
29	Single	115	115	115	5	0	0	101858	692	0	correct_rejection	NA	0
29	Single	116	116	116	9	0	0	102567	691	0	correct_rejection	NA	0
29	Single	117	117	117	5	0	0	103275	692	0	correct_rejection	NA	0
29	Single	118	118	118	6	0	0	103984	692	0	correct_rejection	NA	0
29	Single	119	119	119	6	0	0	104692	692	0	correct_rejection	NA	0
29	Single	120	120	120	5	0	0	105401	692	0	correct_rejection	NA	0
29	Single	121	121	121	0	1	1	106110	691	1	hit	413	0
29	Single	122	122	122	4	0	0	106818	692	0	correct_rejection	NA	0
29	Single	123	123	123	9	0	0	107527	691	0	correct_rejection	NA	0
29	Single	124	124	124	7	0	0	108235	692	0	correct_rejection	NA	0
29	Single	125	125	125	6	0	0	108944	691	0	correct_rejection	NA	0
29	Single	126	126	126	4	0	0	109652	692	0	correct_rejection	NA	0
29	Single	127	127	127	9	0	0	110361	692	0	correct_rejection	NA	0
29	Single	128	128	128	4	0	0	111069	692	0	correct_rejection	NA	0
29	Single	129	129	129	4	0	0	111778	692	0	correct_rejection	NA	0
29	Single	130	130	130	8	0	0	112487	691	0	correct_rejection	NA	0
29	Single	131	131	131	5	0	0	113195	692	0	correct_rejection	NA	0
29	Single	132	132	132	8	0	0	113904	691	0	correct_rejection	NA	0
29	Single	133	133	133	6	0	0	114612	692	0	correct_rejection	NA	0
29	Single	134	134	134	8	0	0	115321	692	0	correct_rejection	NA	0
29	Single	135	135	135	4	0	0	116029	692	0	correct_rejection	NA	0
29	Single	136	136	136	6	0	0	116738	692	0	correct_rejection	NA	0
29	Single	137	137	137	0	1	1	117447	691	1	hit	496	0
29	Single	138	138	138	6	0	0	118155	692	0	correct_rejection	NA	0
29	Single	139	139	139	9	0	0	118864	691	0	correct_rejection	NA	0
29	Single	140	140	140	5	0	0	119572	692	0	correct_rejection	NA	0
29	Single	141	141	141	4	0	0	120281	692	0	correct_rejection	NA	0
29	Single	142	142	142	5	0	0	120989	692	0	correct_rejection	NA	0
29	Single	143	143	143	0	1	1	121698	692	1	hit	396	0
29	Single	144	144	144	6	0	0	122407	691	0	correct_rejection	NA	0
29	Single	145	145	145	7	0	0	123115	692	0	correct_rejection	NA	0
29	Single	146	146	146	8	0	0	123824	691	0	correct_rejection	NA	0
29	Single	147	147	147	8	0	0	124532	692	0	correct_rejection	NA	0
29	Single	148	148	148	7	0	0	125241	692	0	correct_rejection	NA	0
29	Single	149	149	149	4	0	0	125949	692	0	correct_rejection	NA	0
29	Single	150	150	150	7	0	0	126658	692	0	correct_rejection	NA	0
29	Single	151	151	151	9	0	0	127367	691	0	correct_rejection	NA	0
29	Single	152	152	152	6	0	0	128075	692	0	correct_rejection	NA	0
29	Single	153	153	153	5	0	0	128784	691	0	correct_rejection	NA	0
29	Single	154	154	154	0	1	1	129492	692	1	hit	376	0
29	Single	155	155	155	7	0	0	130201	692	0	correct_rejection	NA	0
29	Single	156	156	156	7	0	0	130909	692	0	correct_rejection	NA	0
29	Single	157	157	157	0	1	1	131618	692	1	hit	469	0
29	Single	158	158	158	5	0	0	132327	691	0	correct_rejection	NA	0
29	Single	159	159	159	5	0	0	133035	692	0	correct_rejection	NA	0
29	Single	160	160	160	9	0	0	133744	691	0	correct_rejection	NA	0
29	Single	161	161	161	8	0	0	134452	692	0	correct_rejection	NA	0
29	Single	162	162	162	9	0	0	135161	691	0	correct_rejection	NA	0
29	Triplet	1	487	163	6	0	0	144339	692	0	correct_rejection	NA	7219
29	Triplet	2	488	164	5	0	0	145047	692	0	correct_rejection	NA	0
29	Triplet	3	489	165	4	0	0	145756	692	0	correct_rejection	NA	0
29	Triplet	4	490	166	4	0	0	146465	691	0	correct_rejection	NA	0
29	Triplet	5	491	167	5	0	0	147173	692	0	correct_rejection	NA	0
29	Triplet	6	492	168	6	0	0	147882	691	0	correct_rejection	NA	0
29	Triplet	7	493	169	9	0	0	148590	692	0	correct_rejection	NA	0
29	Triplet	8	494	170	8	0	0	149299	691	0	correct_rejection	NA	0
29	Triplet	9	495	171	7	0	0	150007	692	0	correct_rejection	NA	0
29	Triplet	10	496	172	0	1	2	150716	692	1	hit	438	0
29	Triplet	11	497	173	4	0	0	151424	692	0	correct_rejection	NA	0
29	Triplet	12	498	174	5	0	0	152133	692	0	correct_rejection	NA	0
29	Triplet	13	499	175	0	1	1	152842	691	1	hit	456	0
29	Triplet	14	500	176	6	0	0	153550	692	0	correct_rejection	NA	0
29	Triplet	15	501	177	6	0	0	154259	691	0	correct_rejection	NA	0
29	Triplet	16	502	178	5	0	0	154967	692	0	correct_rejection	NA	0
29	Triplet	17	503	179	0	1	1	155676	692	1	hit	380	0
29	Triplet	18	504	180	4	0	0	156384	692	0	correct_rejection	NA	0
29	Triplet	19	505	181	6	0	0	157093	692	0	correct_rejection	NA	0
29	Triplet	20	506	182	5	0	0	157802	691	0	correct_rejection	NA	0
29	Triplet	21	507	183	4	0	0	158510	692	0	correct_rejection	NA	0
29	Triplet	22	508	184	7	0	0	159219	691	0	correct_rejection	NA	0
29	Triplet	23	509	185	0	1	1	159927	692	1	hit	441	0
29	Triplet	24	510	186	8	0	0	160636	692	0	correct_rejection	NA	0
29	Triplet	25	511	187	9	0	0	161344	692	0	correct_rejection	NA	0
29	Triplet	26	512	188	6	0	0	162053	692	0	correct_rejection	NA	0
29	Triplet	27	513	189	0	1	1	162762	691	1	hit	447	0
29	Triplet	28	514	190	5	0	0	163470	692	0	correct_rejection	NA	0
29	Triplet	29	515	191	4	0	0	164179	691	0	correct_rejection	NA	0
29	Triplet	30	516	192	9	0	0	164887	692	0	correct_rejection	NA	0
29	Triplet	31	517	193	0	1	1	165596	692	1	hit	544	0
29	Triplet	32	518	194	8	0	0	166304	692	0	correct_rejection	NA	0
29	Triplet	33	519	195	7	0	0	167013	692	0	correct_rejection	NA	0
29	Triplet	34	520	196	9	0	0	167722	691	0	correct_rejection	NA	0
29	Triplet	35	521	197	8	0	0	168430	692	0	correct_rejection	NA	0
29	Triplet	36	522	198	0	1	1	169139	691	1	hit	538	0
29	Triplet	37	523	199	7	0	0	169847	692	0	correct_rejection	NA	0
29	Triplet	38	524	200	7	0	0	170556	692	0	correct_rejection	NA	0
29	Triplet	39	525	201	8	0	0	171264	692	0	correct_rejection	NA	0
29	Triplet	40	526	202	9	0	0	171973	692	0	correct_rejection	NA	0
29	Triplet	41	527	203	0	1	2	172682	691	1	hit	478	0
29	Triplet	42	528	204	4	0	0	173390	692	0	correct_rejection	NA	0
29	Triplet	43	529	205	5	0	0	174099	691	0	correct_rejection	NA	0
29	Triplet	44	530	206	6	0	0	174807	692	0	correct_rejection	NA	0
29	Triplet	45	531	207	4	0	0	175516	691	0	correct_rejection	NA	0
29	Triplet	46	532	208	5	0	0	176224	692	0	correct_rejection	NA	0
29	Triplet	47	533	209	6	0	0	176933	692	0	correct_rejection	NA	0
29	Triplet	48	534	210	7	0	0	177641	692	0	correct_rejection	NA	0
29	Triplet	49	535	211	8	0	0	178350	692	0	correct_rejection	NA	0
29	Triplet	50	536	212	9	0	0	179059	691	0	correct_rejection	NA	0
29	Triplet	51	537	213	7	0	0	179767	692	0	correct_rejection	NA	0
29	Triplet	52	538	214	8	0	0	180476	691	0	correct_rejection	NA	0
29	Triplet	53	539	215	0	1	1	181184	692	1	hit	385	0
29	Triplet	54	540	216	9	0	0	181893	692	0	correct_rejection	NA	0
29	Triplet	55	541	217	9	0	0	182601	692	0	correct_rejection	NA	0
29	Triplet	56	542	218	8	0	0	183310	692	0	correct_rejection	NA	0
29	Triplet	57	543	219	7	0	0	184019	691	0	correct_rejection	NA	0
29	Triplet	58	544	220	4	0	0	184727	692	0	correct_rejection	NA	0
29	Triplet	59	545	221	5	0	0	185436	691	0	correct_rejection	NA	0
29	Triplet	60	546	222	0	1	1	186144	692	1	hit	382	0
29	Triplet	61	547	223	6	0	0	186853	692	0	correct_rejection	NA	0
29	Triplet	62	548	224	7	0	0	187561	692	0	correct_rejection	NA	0
29	Triplet	63	549	225	8	0	0	188270	692	0	correct_rejection	NA	0
29	Triplet	64	550	226	9	0	0	188979	691	0	correct_rejection	NA	0
29	Triplet	65	551	227	6	0	0	189687	692	0	correct_rejection	NA	0
29	Triplet	66	552	228	0	1	1	190396	691	1	hit	367	0
29	Triplet	67	553	229	5	0	0	191104	692	0	correct_rejection	NA	0
29	Triplet	68	554	230	4	0	0	191813	692	0	correct_rejection	NA	0
29	Triplet	69	555	231	6	0	0	192521	692	0	correct_rejection	NA	0
29	Triplet	70	556	232	5	0	0	193230	692	0	correct_rejection	NA	0
29	Triplet	71	557	233	4	0	0	193939	691	0	correct_rejection	NA	0
29	Triplet	72	558	234	4	0	0	194647	692	0	correct_rejection	NA	0
29	Triplet	73	559	235	5	0	0	195356	691	0	correct_rejection	NA	0
29	Triplet	74	560	236	6	0	0	196064	692	0	correct_rejection	NA	0
29	Triplet	75	561	237	4	0	0	196773	691	0	correct_rejection	NA	0
29	Triplet	76	562	238	5	0	0	197481	692	0	correct_rejection	NA	0
29	Triplet	77	563	239	6	0	0	198190	692	0	correct_rejection	NA	0
29	Triplet	78	564	240	0	1	2	198899	691	1	hit	398	0
29	Triplet	79	565	241	6	0	0	199607	692	0	correct_rejection	NA	0
29	Triplet	80	566	242	5	0	0	200316	691	0	correct_rejection	NA	0
29	Triplet	81	567	243	4	0	0	201024	692	0	correct_rejection	NA	0
29	Triplet	82	568	244	7	0	0	201733	691	0	correct_rejection	NA	0
29	Triplet	83	569	245	0	1	1	202441	692	1	hit	403	0
29	Triplet	84	570	246	8	0	0	203150	692	0	correct_rejection	NA	0
29	Triplet	85	571	247	9	0	0	203858	692	0	correct_rejection	NA	0
29	Triplet	86	572	248	0	1	2	204567	692	1	hit	471	0
29	Triplet	87	573	249	9	0	0	205276	691	0	correct_rejection	NA	0
29	Triplet	88	574	250	8	0	0	205984	692	0	correct_rejection	NA	0
29	Triplet	89	575	251	0	1	1	206693	691	1	hit	387	0
29	Triplet	90	576	252	7	0	0	207401	692	0	correct_rejection	NA	0
29	Triplet	91	577	253	4	0	0	208110	692	0	correct_rejection	NA	0
29	Triplet	92	578	254	5	0	0	208818	692	0	correct_rejection	NA	0
29	Triplet	93	579	255	6	0	0	209527	692	0	correct_rejection	NA	0
29	Triplet	94	580	256	9	0	0	210236	691	0	correct_rejection	NA	0
29	Triplet	95	581	257	8	0	0	210944	692	0	correct_rejection	NA	0
29	Triplet	96	582	258	7	0	0	211653	691	0	correct_rejection	NA	0
29	Triplet	97	583	259	9	0	0	212361	692	0	correct_rejection	NA	0
29	Triplet	98	584	260	8	0	0	213070	692	0	correct_rejection	NA	0
29	Triplet	99	585	261	0	1	1	213778	692	1	hit	402	0
29	Triplet	100	586	262	7	0	0	214487	692	0	correct_rejection	NA	0
29	Triplet	101	587	263	6	0	0	215196	691	0	correct_rejection	NA	0
29	Triplet	102	588	264	5	0	0	215904	692	0	correct_rejection	NA	0
29	Triplet	103	589	265	4	0	0	216613	691	0	correct_rejection	NA	0
29	Triplet	104	590	266	9	0	0	217321	692	0	correct_rejection	NA	0
29	Triplet	105	591	267	8	0	0	218030	692	0	correct_rejection	NA	0
29	Triplet	106	592	268	7	0	0	218738	692	0	correct_rejection	NA	0
29	Triplet	107	593	269	7	0	0	219447	692	0	correct_rejection	NA	0
29	Triplet	108	594	270	8	0	0	220156	691	0	correct_rejection	NA	0
29	Triplet	109	595	271	9	0	0	220864	692	0	correct_rejection	NA	0
29	Triplet	110	596	272	7	0	0	221573	691	0	correct_rejection	NA	0
29	Triplet	111	597	273	8	0	0	222281	692	0	correct_rejection	NA	0
29	Triplet	112	598	274	9	0	0	222990	691	0	correct_rejection	NA	0
29	Triplet	113	599	275	6	0	0	223698	692	0	correct_rejection	NA	0
29	Triplet	114	600	276	5	0	0	224407	692	0	correct_rejection	NA	0
29	Triplet	115	601	277	4	0	0	225115	692	0	correct_rejection	NA	0
29	Triplet	116	602	278	0	1	2	225824	692	1	hit	474	0
29	Triplet	117	603	279	9	0	0	226533	691	0	correct_rejection	NA	0
29	Triplet	118	604	280	8	0	0	227241	692	0	correct_rejection	NA	0
29	Triplet	119	605	281	7	0	0	227950	691	0	correct_rejection	NA	0
29	Triplet	120	606	282	6	0	0	228658	692	0	correct_rejection	NA	0
29	Triplet	121	607	283	5	0	0	229367	692	0	correct_rejection	NA	0
29	Triplet	122	608	284	4	0	0	230075	692	0	correct_rejection	NA	0
29	Triplet	123	609	285	7	0	0	230784	692	0	correct_rejection	NA	0
29	Triplet	124	610	286	8	0	0	231493	691	0	correct_rejection	NA	0
29	Triplet	125	611	287	9	0	0	232201	692	0	correct_rejection	NA	0
29	Triplet	126	612	288	7	0	0	232910	691	0	correct_rejection	NA	0
29	Triplet	127	613	289	8	0	0	233618	692	0	correct_rejection	NA	0
29	Triplet	128	614	290	9	0	0	234327	692	0	correct_rejection	NA	0
29	Triplet	129	615	291	4	0	0	235035	692	0	correct_rejection	NA	0
29	Triplet	130	616	292	5	0	0	235744	692	0	correct_rejection	NA	0
29	Triplet	131	617	293	6	0	0	236453	691	0	correct_rejection	NA	0
29	Triplet	132	618	294	6	0	0	237161	692	0	correct_rejection	NA	0
29	Triplet	133	619	295	5	0	0	237870	691	0	correct_rejection	NA	0
29	Triplet	134	620	296	4	0	0	238578	692	0	correct_rejection	NA	0
29	Triplet	135	621	297	4	0	0	239287	692	0	correct_rejection	NA	0
29	Triplet	136	622	298	5	0	0	239995	692	0	correct_rejection	NA	0
29	Triplet	137	623	299	6	0	0	240704	692	0	correct_rejection	NA	0
29	Triplet	138	624	300	7	0	0	241413	691	0	correct_rejection	NA	0
29	Triplet	139	625	301	8	0	0	242121	692	0	correct_rejection	NA	0
29	Triplet	140	626	302	9	0	0	242830	691	0	correct_rejection	NA	0
29	Triplet	141	627	303	9	0	0	243538	692	0	correct_rejection	NA	0
29	Triplet	142	628	304	8	0	0	244247	692	0	correct_rejection	NA	0
29	Triplet	143	629	305	7	0	0	244955	692	0	correct_rejection	NA	0
29	Triplet	144	630	306	0	1	2	245664	692	1	hit	389	0
29	Triplet	145	631	307	9	0	0	246373	691	0	correct_rejection	NA	0
29	Triplet	146	632	308	8	0	0	247081	692	0	correct_rejection	NA	0
29	Triplet	147	633	309	7	0	0	247790	691	0	correct_rejection	NA	0
29	Triplet	148	634	310	4	0	0	248498	692	0	correct_rejection	NA	0
29	Triplet	149	635	311	5	0	0	249207	691	0	correct_rejection	NA	0
29	Triplet	150	636	312	6	0	0	249915	692	0	correct_rejection	NA	0
29	Triplet	151	637	313	4	0	0	250624	692	0	correct_rejection	NA	0
29	Triplet	152	638	314	5	0	0	251332	692	0	correct_rejection	NA	0
29	Triplet	153	639	315	6	0	0	252041	692	0	correct_rejection	NA	0
29	Triplet	154	640	316	9	0	0	252750	691	0	correct_rejection	NA	0
29	Triplet	155	641	317	8	0	0	253458	692	0	correct_rejection	NA	0
29	Triplet	156	642	318	7	0	0	254167	691	0	correct_rejection	NA	0
29	Triplet	157	643	319	7	0	0	254875	692	0	correct_rejection	NA	0
29	Triplet	158	644	320	8	0	0	255584	692	0	correct_rejection	NA	0
29	Triplet	159	645	321	9	0	0	256292	692	0	correct_rejection	NA	0
29	Triplet	160	646	322	6	0	0	257001	692	0	correct_rejection	NA	0
29	Triplet	161	647	323	5	0	0	257710	691	0	correct_rejection	NA	0
29	Triplet	162	648	324	4	0	0	258418	692	0	correct_rejection	NA	0
29	Correct	1	649	325	4	0	0	269055	692	0	correct_rejection	NA	7949
29	Correct	2	650	326	5	0	0	269764	691	0	correct_rejection	NA	0
29	Correct	3	651	327	6	0	0	270472	692	0	correct_rejection	NA	0
29	Correct	4	652	328	4	0	0	271181	691	0	correct_rejection	NA	0
29	Correct	5	653	329	5	0	0	271889	692	0	correct_rejection	NA	0
29	Correct	6	654	330	6	0	0	272598	692	0	correct_rejection	NA	0
29	Correct	7	655	331	4	0	0	273306	692	0	correct_rejection	NA	0
29	Correct	8	656	332	5	0	0	274015	692	0	correct_rejection	NA	0
29	Correct	9	657	333	6	0	0	274724	691	0	correct_rejection	NA	0
29	Correct	10	658	334	6	0	0	275432	692	0	correct_rejection	NA	0
29	Correct	11	659	335	5	0	0	276141	691	0	correct_rejection	NA	0
29	Correct	12	660	336	4	0	0	276849	692	0	correct_rejection	NA	0
29	Correct	13	661	337	6	0	0	277558	692	0	correct_rejection	NA	0
29	Correct	14	662	338	5	0	0	278266	692	0	correct_rejection	NA	0
29	Correct	15	663	339	4	0	0	278975	692	0	correct_rejection	NA	0
29	Correct	16	664	340	6	0	0	279684	691	0	correct_rejection	NA	0
29	Correct	17	665	341	5	0	0	280392	692	0	correct_rejection	NA	0
29	Correct	18	666	342	4	0	0	281101	691	0	correct_rejection	NA	0
29	Correct	19	667	343	9	0	0	281809	692	0	correct_rejection	NA	0
29	Correct	20	668	344	8	0	0	282518	691	0	correct_rejection	NA	0
29	Correct	21	669	345	7	0	0	283226	692	0	correct_rejection	NA	0
29	Correct	22	670	346	0	1	2	283935	692	1	hit	407	0
29	Correct	23	671	347	9	0	0	284643	692	0	correct_rejection	NA	0
29	Correct	24	672	348	8	0	0	285352	692	0	correct_rejection	NA	0
29	Correct	25	673	349	7	0	0	286061	691	0	correct_rejection	NA	0
29	Correct	26	674	350	9	0	0	286769	692	0	correct_rejection	NA	0
29	Correct	27	675	351	8	0	0	287478	691	0	correct_rejection	NA	0
29	Correct	28	676	352	7	0	0	288186	692	0	correct_rejection	NA	0
29	Correct	29	677	353	7	0	0	288895	692	0	correct_rejection	NA	0
29	Correct	30	678	354	8	0	0	289603	692	0	correct_rejection	NA	0
29	Correct	31	679	355	9	0	0	290312	692	0	correct_rejection	NA	0
29	Correct	32	680	356	7	0	0	291021	691	0	correct_rejection	NA	0
29	Correct	33	681	357	8	0	0	291729	692	0	correct_rejection	NA	0
29	Correct	34	682	358	9	0	0	292438	691	0	correct_rejection	NA	0
29	Correct	35	683	359	0	1	2	293146	692	1	hit	463	0
29	Correct	36	684	360	7	0	0	293855	692	0	correct_rejection	NA	0
29	Correct	37	685	361	8	0	0	294563	692	0	correct_rejection	NA	0
29	Correct	38	686	362	9	0	0	295272	692	0	correct_rejection	NA	0
29	Correct	39	687	363	0	1	4	295981	691	1	hit	441	0
29	Correct	40	688	364	4	0	0	296689	692	0	correct_rejection	NA	0
29	Correct	41	689	365	5	0	0	297398	691	0	correct_rejection	NA	0
29	Correct	42	690	366	6	0	0	298106	692	0	correct_rejection	NA	0
29	Correct	43	691	367	4	0	0	298815	692	0	correct_rejection	NA	0
29	Correct	44	692	368	0	1	1	299523	692	1	hit	389	0
29	Correct	45	693	369	5	0	0	300232	692	0	correct_rejection	NA	0
29	Correct	46	694	370	6	0	0	300941	691	0	correct_rejection	NA	0
29	Correct	47	695	371	4	0	0	301649	692	0	correct_rejection	NA	0
29	Correct	48	696	372	5	0	0	302358	691	0	correct_rejection	NA	0
29	Correct	49	697	373	6	0	0	303066	692	0	correct_rejection	NA	0
29	Correct	50	698	374	6	0	0	303775	692	0	correct_rejection	NA	0
29	Correct	51	699	375	5	0	0	304483	692	0	correct_rejection	NA	0
29	Correct	52	700	376	4	0	0	305192	692	0	correct_rejection	NA	0
29	Correct	53	701	377	6	0	0	305901	691	0	correct_rejection	NA	0
29	Correct	54	702	378	5	0	0	306609	692	0	correct_rejection	NA	0
29	Correct	55	703	379	4	0	0	307318	691	0	correct_rejection	NA	0
29	Correct	56	704	380	6	0	0	308026	692	0	correct_rejection	NA	0
29	Correct	57	705	381	5	0	0	308735	691	0	correct_rejection	NA	0
29	Correct	58	706	382	0	1	1	309443	692	1	hit	336	0
29	Correct	59	707	383	4	0	0	310152	692	0	correct_rejection	NA	0
29	Correct	60	708	384	9	0	0	310860	692	0	correct_rejection	NA	0
29	Correct	61	709	385	8	0	0	311569	692	0	correct_rejection	NA	0
29	Correct	62	710	386	7	0	0	312278	691	0	correct_rejection	NA	0
29	Correct	63	711	387	9	0	0	312986	692	0	correct_rejection	NA	0
29	Correct	64	712	388	0	1	1	313695	691	1	hit	419	0
29	Correct	65	713	389	8	0	0	314403	692	0	correct_rejection	NA	0
29	Correct	66	714	390	7	0	0	315112	692	0	correct_rejection	NA	0
29	Correct	67	715	391	9	0	0	315820	692	0	correct_rejection	NA	0
29	Correct	68	716	392	8	0	0	316529	692	0	correct_rejection	NA	0
29	Correct	69	717	393	7	0	0	317238	691	0	correct_rejection	NA	0
29	Correct	70	718	394	7	0	0	317946	692	0	correct_rejection	NA	0
29	Correct	71	719	395	8	0	0	318655	691	0	correct_rejection	NA	0
29	Correct	72	720	396	9	0	0	319363	692	0	correct_rejection	NA	0
29	Correct	73	721	397	7	0	0	320072	692	0	correct_rejection	NA	0
29	Correct	74	722	398	8	0	0	320780	692	0	correct_rejection	NA	0
29	Correct	75	723	399	9	0	0	321489	692	0	correct_rejection	NA	0
29	Correct	76	724	400	7	0	0	322198	691	0	correct_rejection	NA	0
29	Correct	77	725	401	0	1	1	322906	692	1	hit	481	0
29	Correct	78	726	402	8	0	0	323615	691	0	correct_rejection	NA	0
29	Correct	79	727	403	9	0	0	324323	692	0	correct_rejection	NA	0
29	Correct	80	728	404	4	0	0	325032	692	0	correct_rejection	NA	0
29	Correct	81	729	405	5	0	0	325740	692	0	correct_rejection	NA	0
29	Correct	82	730	406	6	0	0	326449	692	0	correct_rejection	NA	0
29	Correct	83	731	407	4	0	0	327158	691	0	correct_rejection	NA	0
29	Correct	84	732	408	5	0	0	327866	692	0	correct_rejection	NA	0
29	Correct	85	733	409	6	0	0	328575	691	0	correct_rejection	NA	0
29	Correct	86	734	410	4	0	0	329283	692	0	correct_rejection	NA	0
29	Correct	87	735	411	5	0	0	329992	692	0	correct_rejection	NA	0
29	Correct	88	736	412	6	0	0	330700	692	0	correct_rejection	NA	0
29	Correct	89	737	413	6	0	0	331409	692	0	correct_rejection	NA	0
29	Correct	90	738	414	5	0	0	332118	691	0	correct_rejection	NA	0
29	Correct	91	739	415	4	0	0	332826	692	0	correct_rejection	NA	0
29	Correct	92	740	416	6	0	0	333535	691	0	correct_rejection	NA	0
29	Correct	93	741	417	0	1	1	334243	692	1	hit	526	0
29	Correct	94	742	418	5	0	0	334952	691	0	correct_rejection	NA	0
29	Correct	95	743	419	4	0	0	335660	692	0	correct_rejection	NA	0
29	Correct	96	744	420	6	0	0	336369	692	0	correct_rejection	NA	0
29	Correct	97	745	421	5	0	0	337077	692	0	correct_rejection	NA	0
29	Correct	98	746	422	4	0	0	337786	692	0	correct_rejection	NA	0
29	Correct	99	747	423	0	1	3	338495	691	1	hit	435	0
29	Correct	100	748	424	9	0	0	339203	692	0	correct_rejection	NA	0
29	Correct	101	749	425	8	0	0	339912	691	0	correct_rejection	NA	0
29	Correct	102	750	426	7	0	0	340620	692	0	correct_rejection	NA	0
29	Correct	103	751	427	9	0	0	341329	692	0	correct_rejection	NA	0
29	Correct	104	752	428	8	0	0	342037	692	0	correct_rejection	NA	0
29	Correct	105	753	429	7	0	0	342746	692	0	correct_rejection	NA	0
29	Correct	106	754	430	9	0	0	343455	691	0	correct_rejection	NA	0
29	Correct	107	755	431	8	0	0	344163	692	0	correct_rejection	NA	0
29	Correct	108	756	432	7	0	0	344872	691	0	correct_rejection	NA	0
29	Correct	109	757	433	0	1	3	345580	692	1	hit	371	0
29	Correct	110	758	434	7	0	0	346289	692	0	correct_rejection	NA	0
29	Correct	111	759	435	8	0	0	346997	692	0	correct_rejection	NA	0
29	Correct	112	760	436	9	0	0	347706	692	0	correct_rejection	NA	0
29	Correct	113	761	437	0	1	2	348415	692	1	hit	584	0
29	Correct	114	762	438	7	0	0	349123	692	0	correct_rejection	NA	0
29	Correct	115	763	439	8	0	0	349832	691	0	correct_rejection	NA	0
29	Correct	116	764	440	9	0	0	350540	692	0	correct_rejection	NA	0
29	Correct	117	765	441	7	0	0	351249	692	0	correct_rejection	NA	0
29	Correct	118	766	442	8	0	0	351957	692	0	correct_rejection	NA	0
29	Correct	119	767	443	9	0	0	352666	692	0	correct_rejection	NA	0
29	Correct	120	768	444	4	0	0	353375	691	0	correct_rejection	NA	0
29	Correct	121	769	445	0	1	1	354083	692	1	hit	407	0
29	Correct	122	770	446	5	0	0	354792	691	0	correct_rejection	NA	0
29	Correct	123	771	447	6	0	0	355500	692	0	correct_rejection	NA	0
29	Correct	124	772	448	4	0	0	356209	692	0	correct_rejection	NA	0
29	Correct	125	773	449	5	0	0	356917	692	0	correct_rejection	NA	0
29	Correct	126	774	450	0	1	1	357626	692	1	hit	419	0
29	Correct	127	775	451	6	0	0	358335	691	0	correct_rejection	NA	0
29	Correct	128	776	452	4	0	0	359043	692	0	correct_rejection	NA	0
29	Correct	129	777	453	5	0	0	359752	691	0	correct_rejection	NA	0
29	Correct	130	778	454	6	0	0	360460	692	0	correct_rejection	NA	0
29	Correct	131	779	455	6	0	0	361169	691	0	correct_rejection	NA	0
29	Correct	132	780	456	5	0	0	361877	692	0	correct_rejection	NA	0
29	Correct	133	781	457	0	1	1	362586	692	1	hit	422	0
29	Correct	134	782	458	4	0	0	363294	692	0	correct_rejection	NA	0
29	Correct	135	783	459	6	0	0	364003	692	0	correct_rejection	NA	0
29	Correct	136	784	460	0	1	1	364712	691	1	hit	482	0
29	Correct	137	785	461	5	0	0	365420	692	0	correct_rejection	NA	0
29	Correct	138	786	462	4	0	0	366129	691	0	correct_rejection	NA	0
29	Correct	139	787	463	6	0	0	366837	692	0	correct_rejection	NA	0
29	Correct	140	788	464	5	0	0	367546	692	0	correct_rejection	NA	0
29	Correct	141	789	465	4	0	0	368254	692	0	correct_rejection	NA	0
29	Correct	142	790	466	9	0	0	368963	692	0	correct_rejection	NA	0
29	Correct	143	791	467	8	0	0	369672	691	0	correct_rejection	NA	0
29	Correct	144	792	468	0	1	1	370380	692	1	hit	440	0
29	Correct	145	793	469	7	0	0	371089	691	0	correct_rejection	NA	0
29	Correct	146	794	470	9	0	0	371797	692	0	correct_rejection	NA	0
29	Correct	147	795	471	8	0	0	372506	692	0	correct_rejection	NA	0
29	Correct	148	796	472	7	0	0	373214	692	0	correct_rejection	NA	0
29	Correct	149	797	473	9	0	0	373923	692	0	correct_rejection	NA	0
29	Correct	150	798	474	8	0	0	374632	691	0	correct_rejection	NA	0
29	Correct	151	799	475	7	0	0	375340	692	0	correct_rejection	NA	0
29	Correct	152	800	476	7	0	0	376049	691	0	correct_rejection	NA	0
29	Correct	153	801	477	8	0	0	376757	692	0	correct_rejection	NA	0
29	Correct	154	802	478	9	0	0	377466	692	0	correct_rejection	NA	0
29	Correct	155	803	479	7	0	0	378174	692	0	correct_rejection	NA	0
29	Correct	156	804	480	8	0	0	378883	692	0	correct_rejection	NA	0
29	Correct	157	805	481	0	1	1	379592	691	1	hit	411	0
29	Correct	158	806	482	9	0	0	380300	692	0	correct_rejection	NA	0
29	Correct	159	807	483	7	0	0	381009	691	0	correct_rejection	NA	0
29	Correct	160	808	484	8	0	0	381717	692	0	correct_rejection	NA	0
29	Correct	161	809	485	0	1	1	382426	691	1	hit	652	0
29	Correct	162	810	486	9	0	0	383134	692	0	correct_rejection	NA	0
29	Nonet	1	1	487	9	0	0	391537	692	0	correct_rejection	NA	6429
29	Nonet	2	2	488	8	0	0	392246	691	0	correct_rejection	NA	0
29	Nonet	3	3	489	7	0	0	392954	692	0	correct_rejection	NA	0
29	Nonet	4	4	490	9	0	0	393663	692	0	correct_rejection	NA	0
29	Nonet	5	5	491	8	0	0	394371	692	0	correct_rejection	NA	0
29	Nonet	6	6	492	7	0	0	395080	692	0	correct_rejection	NA	0
29	Nonet	7	7	493	9	0	0	395789	691	0	correct_rejection	NA	0
29	Nonet	8	8	494	8	0	0	396497	692	0	correct_rejection	NA	0
29	Nonet	9	9	495	7	0	0	397206	691	0	correct_rejection	NA	0
29	Nonet	10	10	496	6	0	0	397914	692	0	correct_rejection	NA	0
29	Nonet	11	11	497	5	0	0	398623	692	0	correct_rejection	NA	0
29	Nonet	12	12	498	4	0	0	399331	692	0	correct_rejection	NA	0
29	Nonet	13	13	499	6	0	0	400040	692	0	correct_rejection	NA	0
29	Nonet	14	14	500	5	0	0	400749	691	0	correct_rejection	NA	0
29	Nonet	15	15	501	4	0	0	401457	692	0	correct_rejection	NA	0
29	Nonet	16	16	502	6	0	0	402166	691	0	correct_rejection	NA	0
29	Nonet	17	17	503	0	1	1	402874	692	1	hit	451	0
29	Nonet	18	18	504	5	0	0	403583	691	0	correct_rejection	NA	0
29	Nonet	19	19	505	4	0	0	404291	692	0	correct_rejection	NA	0
29	Nonet	20	20	506	6	0	0	405000	692	0	correct_rejection	NA	0
29	Nonet	21	21	507	5	0	0	405709	691	0	correct_rejection	NA	0
29	Nonet	22	22	508	0	1	1	406417	692	1	hit	451	0
29	Nonet	23	23	509	4	0	0	407126	691	0	correct_rejection	NA	0
29	Nonet	24	24	510	6	0	0	407834	692	0	correct_rejection	NA	0
29	Nonet	25	25	511	5	0	0	408543	691	0	correct_rejection	NA	0
29	Nonet	26	26	512	4	0	0	409251	692	0	correct_rejection	NA	0
29	Nonet	27	27	513	6	0	0	409960	692	0	correct_rejection	NA	0
29	Nonet	28	28	514	5	0	0	410668	692	0	correct_rejection	NA	0
29	Nonet	29	29	515	4	0	0	411377	692	0	correct_rejection	NA	0
29	Nonet	30	30	516	9	0	0	412086	691	0	correct_rejection	NA	0
29	Nonet	31	31	517	8	0	0	412794	692	0	correct_rejection	NA	0
29	Nonet	32	32	518	0	1	1	413503	691	1	hit	452	0
29	Nonet	33	33	519	7	0	0	414211	692	0	correct_rejection	NA	0
29	Nonet	34	34	520	9	0	0	414920	692	0	correct_rejection	NA	0
29	Nonet	35	35	521	8	0	0	415628	692	0	correct_rejection	NA	0
29	Nonet	36	36	522	7	0	0	416337	692	0	correct_rejection	NA	0
29	Nonet	37	37	523	9	0	0	417046	691	0	correct_rejection	NA	0
29	Nonet	38	38	524	8	0	0	417754	692	0	correct_rejection	NA	0
29	Nonet	39	39	525	7	0	0	418463	691	0	correct_rejection	NA	0
29	Nonet	40	40	526	4	0	0	419171	692	0	correct_rejection	NA	0
29	Nonet	41	41	527	5	0	0	419880	692	0	correct_rejection	NA	0
29	Nonet	42	42	528	6	0	0	420588	692	0	correct_rejection	NA	0
29	Nonet	43	43	529	0	1	2	421297	692	1	hit	567	0
29	Nonet	44	44	530	4	0	0	422006	691	0	correct_rejection	NA	0
29	Nonet	45	45	531	5	0	0	422714	692	0	correct_rejection	NA	0
29	Nonet	46	46	532	6	0	0	423423	691	0	correct_rejection	NA	0
29	Nonet	47	47	533	0	1	2	424131	692	0	miss	NA	0
29	Nonet	48	48	534	4	0	0	424840	692	1	false_alarm	220	0
29	Nonet	49	49	535	5	0	0	425548	692	0	correct_rejection	NA	0
29	Nonet	50	50	536	6	0	0	426257	692	0	correct_rejection	NA	0
29	Nonet	51	51	537	4	0	0	426966	691	0	correct_rejection	NA	0
29	Nonet	52	52	538	5	0	0	427674	692	0	correct_rejection	NA	0
29	Nonet	53	53	539	0	1	1	428383	691	1	hit	406	0
29	Nonet	54	54	540	6	0	0	429091	692	0	correct_rejection	NA	0
29	Nonet	55	55	541	4	0	0	429800	691	0	correct_rejection	NA	0
29	Nonet	56	56	542	5	0	0	430508	692	0	correct_rejection	NA	0
29	Nonet	57	57	543	6	0	0	431217	692	0	correct_rejection	NA	0
29	Nonet	58	58	544	4	0	0	431925	692	0	correct_rejection	NA	0
29	Nonet	59	59	545	5	0	0	432634	692	0	correct_rejection	NA	0
29	Nonet	60	60	546	6	0	0	433343	691	0	correct_rejection	NA	0
29	Nonet	61	61	547	7	0	0	434051	692	0	correct_rejection	NA	0
29	Nonet	62	62	548	8	0	0	434760	691	0	correct_rejection	NA	0
29	Nonet	63	63	549	9	0	0	435468	692	0	correct_rejection	NA	0
29	Nonet	64	64	550	7	0	0	436177	692	0	correct_rejection	NA	0
29	Nonet	65	65	551	8	0	0	436885	692	0	correct_rejection	NA	0
29	Nonet	66	66	552	0	1	1	437594	692	1	hit	468	0
29	Nonet	67	67	553	9	0	0	438303	691	0	correct_rejection	NA	0
29	Nonet	68	68	554	7	0	0	439011	692	0	correct_rejection	NA	0
29	Nonet	69	69	555	8	0	0	439720	691	0	correct_rejection	NA	0
29	Nonet	70	70	556	9	0	0	440428	692	0	correct_rejection	NA	0
29	Nonet	71	71	557	4	0	0	441137	692	0	correct_rejection	NA	0
29	Nonet	72	72	558	5	0	0	441845	692	0	correct_rejection	NA	0
29	Nonet	73	73	559	6	0	0	442554	692	0	correct_rejection	NA	0
29	Nonet	74	74	560	4	0	0	443263	691	0	correct_rejection	NA	0
29	Nonet	75	75	561	5	0	0	443971	692	0	correct_rejection	NA	0
29	Nonet	76	76	562	6	0	0	444680	691	0	correct_rejection	NA	0
29	Nonet	77	77	563	4	0	0	445388	692	0	correct_rejection	NA	0
29	Nonet	78	78	564	5	0	0	446097	692	0	correct_rejection	NA	0
29	Nonet	79	79	565	6	0	0	446805	692	0	correct_rejection	NA	0
29	Nonet	80	80	566	9	0	0	447514	692	0	correct_rejection	NA	0
29	Nonet	81	81	567	8	0	0	448223	691	0	correct_rejection	NA	0
29	Nonet	82	82	568	0	1	1	448931	692	1	hit	466	0
29	Nonet	83	83	569	7	0	0	449640	691	0	correct_rejection	NA	0
29	Nonet	84	84	570	9	0	0	450348	692	0	correct_rejection	NA	0
29	Nonet	85	85	571	8	0	0	451057	692	0	correct_rejection	NA	0
29	Nonet	86	86	572	0	1	1	451765	692	1	hit	432	0
29	Nonet	87	87	573	7	0	0	452474	692	0	correct_rejection	NA	0
29	Nonet	88	88	574	9	0	0	453183	691	0	correct_rejection	NA	0
29	Nonet	89	89	575	8	0	0	453891	692	0	correct_rejection	NA	0
29	Nonet	90	90	576	7	0	0	454600	691	0	correct_rejection	NA	0
29	Nonet	91	91	577	0	1	3	455308	692	1	hit	431	0
29	Nonet	92	92	578	9	0	0	456017	691	0	correct_rejection	NA	0
29	Nonet	93	93	579	8	0	0	456725	692	0	correct_rejection	NA	0
29	Nonet	94	94	580	7	0	0	457434	692	0	correct_rejection	NA	0
29	Nonet	95	95	581	9	0	0	458142	692	0	correct_rejection	NA	0
29	Nonet	96	96	582	8	0	0	458851	692	0	correct_rejection	NA	0
29	Nonet	97	97	583	7	0	0	459560	691	0	correct_rejection	NA	0
29	Nonet	98	98	584	9	0	0	460268	692	0	correct_rejection	NA	0
29	Nonet	99	99	585	8	0	0	460977	691	0	correct_rejection	NA	0
29	Nonet	100	100	586	7	0	0	461685	692	0	correct_rejection	NA	0
29	Nonet	101	101	587	7	0	0	462394	692	0	correct_rejection	NA	0
29	Nonet	102	102	588	0	1	1	463102	692	1	hit	436	0
29	Nonet	103	103	589	8	0	0	463811	692	0	correct_rejection	NA	0
29	Nonet	104	104	590	9	0	0	464520	691	0	correct_rejection	NA	0
29	Nonet	105	105	591	7	0	0	465228	692	0	correct_rejection	NA	0
29	Nonet	106	106	592	8	0	0	465937	691	0	correct_rejection	NA	0
29	Nonet	107	107	593	9	0	0	466645	692	0	correct_rejection	NA	0
29	Nonet	108	108	594	7	0	0	467354	692	0	correct_rejection	NA	0
29	Nonet	109	109	595	8	0	0	468062	692	0	correct_rejection	NA	0
29	Nonet	110	110	596	9	0	0	468771	692	0	correct_rejection	NA	0
29	Nonet	111	111	597	6	0	0	469480	691	0	correct_rejection	NA	0
29	Nonet	112	112	598	5	0	0	470188	692	0	correct_rejection	NA	0
29	Nonet	113	113	599	0	1	1	470897	691	1	hit	435	0
29	Nonet	114	114	600	4	0	0	471605	692	0	correct_rejection	NA	0
29	Nonet	115	115	601	6	0	0	472314	692	0	correct_rejection	NA	0
29	Nonet	116	116	602	5	0	0	473022	692	0	correct_rejection	NA	0
29	Nonet	117	117	603	4	0	0	473731	692	0	correct_rejection	NA	0
29	Nonet	118	118	604	0	1	2	474440	691	1	hit	418	0
29	Nonet	119	119	605	6	0	0	475148	692	0	correct_rejection	NA	0
29	Nonet	120	120	606	5	0	0	475857	691	0	correct_rejection	NA	0
29	Nonet	121	121	607	4	0	0	476565	692	0	correct_rejection	NA	0
29	Nonet	122	122	608	4	0	0	477274	691	0	correct_rejection	NA	0
29	Nonet	123	123	609	5	0	0	477982	692	0	correct_rejection	NA	0
29	Nonet	124	124	610	6	0	0	478691	692	0	correct_rejection	NA	0
29	Nonet	125	125	611	4	0	0	479400	691	0	correct_rejection	NA	0
29	Nonet	126	126	612	5	0	0	480108	692	0	correct_rejection	NA	0
29	Nonet	127	127	613	0	1	1	480817	691	1	hit	503	0
29	Nonet	128	128	614	6	0	0	481525	692	0	correct_rejection	NA	0
29	Nonet	129	129	615	4	0	0	482234	691	0	correct_rejection	NA	0
29	Nonet	130	130	616	0	1	1	482942	692	1	hit	464	0
29	Nonet	131	131	617	5	0	0	483651	692	0	correct_rejection	NA	0
29	Nonet	132	132	618	6	0	0	484359	692	0	correct_rejection	NA	0
29	Nonet	133	133	619	6	0	0	485068	692	0	correct_rejection	NA	0
29	Nonet	134	134	620	5	0	0	485777	691	0	correct_rejection	NA	0
29	Nonet	135	135	621	4	0	0	486485	692	0	correct_rejection	NA	0
29	Nonet	136	136	622	6	0	0	487194	691	0	correct_rejection	NA	0
29	Nonet	137	137	623	5	0	0	487902	692	0	correct_rejection	NA	0
29	Nonet	138	138	624	4	0	0	488611	692	0	correct_rejection	NA	0
29	Nonet	139	139	625	6	0	0	489319	692	0	correct_rejection	NA	0
29	Nonet	140	140	626	5	0	0	490028	692	0	correct_rejection	NA	0
29	Nonet	141	141	627	4	0	0	490737	691	0	correct_rejection	NA	0
29	Nonet	142	142	628	7	0	0	491445	692	0	correct_rejection	NA	0
29	Nonet	143	143	629	8	0	0	492154	691	0	correct_rejection	NA	0
29	Nonet	144	144	630	0	1	1	492862	692	1	hit	385	0
29	Nonet	145	145	631	9	0	0	493571	692	0	correct_rejection	NA	0
29	Nonet	146	146	632	7	0	0	494279	692	0	correct_rejection	NA	0
29	Nonet	147	147	633	8	0	0	494988	692	0	correct_rejection	NA	0
29	Nonet	148	148	634	9	0	0	495697	691	0	correct_rejection	NA	0
29	Nonet	149	149	635	0	1	2	496405	692	1	hit	428	0
29	Nonet	150	150	636	7	0	0	497114	691	0	correct_rejection	NA	0
29	Nonet	151	151	637	8	0	0	497822	692	0	correct_rejection	NA	0
29	Nonet	152	152	638	9	0	0	498531	692	0	correct_rejection	NA	0
29	Nonet	153	153	639	7	0	0	499239	692	0	correct_rejection	NA	0
29	Nonet	154	154	640	8	0	0	499948	692	0	correct_rejection	NA	0
29	Nonet	155	155	641	9	0	0	500657	691	0	correct_rejection	NA	0
29	Nonet	156	156	642	7	0	0	501365	692	0	correct_rejection	NA	0
29	Nonet	157	157	643	8	0	0	502074	691	0	correct_rejection	NA	0
29	Nonet	158	158	644	9	0	0	502782	692	0	correct_rejection	NA	0
29	Nonet	159	159	645	0	1	2	503491	691	1	hit	335	0
29	Nonet	160	160	646	7	0	0	504199	692	0	correct_rejection	NA	0
29	Nonet	161	161	647	8	0	0	504908	692	0	correct_rejection	NA	0
29	Nonet	162	162	648	9	0	0	505616	692	0	correct_rejection	NA	0
29	Correct	1	487	649	4	0	0	515820	692	0	correct_rejection	NA	7709
29	Correct	2	488	650	5	0	0	516528	692	0	correct_rejection	NA	0
29	Correct	3	489	651	6	0	0	517237	692	0	correct_rejection	NA	0
29	Correct	4	490	652	4	0	0	517946	691	0	correct_rejection	NA	0
29	Correct	5	491	653	0	1	1	518654	692	1	hit	439	0
29	Correct	6	492	654	5	0	0	519363	691	0	correct_rejection	NA	0
29	Correct	7	493	655	6	0	0	520071	692	0	correct_rejection	NA	0
29	Correct	8	494	656	0	1	2	520780	692	1	hit	550	0
29	Correct	9	495	657	4	0	0	521488	692	0	correct_rejection	NA	0
29	Correct	10	496	658	5	0	0	522197	692	0	correct_rejection	NA	0
29	Correct	11	497	659	6	0	0	522906	691	0	correct_rejection	NA	0
29	Correct	12	498	660	6	0	0	523614	692	0	correct_rejection	NA	0
29	Correct	13	499	661	5	0	0	524323	691	0	correct_rejection	NA	0
29	Correct	14	500	662	4	0	0	525031	692	0	correct_rejection	NA	0
29	Correct	15	501	663	0	1	2	525740	692	1	hit	442	0
29	Correct	16	502	664	6	0	0	526448	692	0	correct_rejection	NA	0
29	Correct	17	503	665	5	0	0	527157	692	0	correct_rejection	NA	0
29	Correct	18	504	666	4	0	0	527866	691	0	correct_rejection	NA	0
29	Correct	19	505	667	6	0	0	528574	692	0	correct_rejection	NA	0
29	Correct	20	506	668	0	1	1	529283	691	1	hit	470	0
29	Correct	21	507	669	5	0	0	529991	692	0	correct_rejection	NA	0
29	Correct	22	508	670	4	0	0	530700	691	0	correct_rejection	NA	0
29	Correct	23	509	671	9	0	0	531408	692	0	correct_rejection	NA	0
29	Correct	24	510	672	8	0	0	532117	692	0	correct_rejection	NA	0
29	Correct	25	511	673	7	0	0	532825	692	0	correct_rejection	NA	0
29	Correct	26	512	674	9	0	0	533534	692	0	correct_rejection	NA	0
29	Correct	27	513	675	0	1	1	534243	691	1	hit	451	0
29	Correct	28	514	676	8	0	0	534951	692	0	correct_rejection	NA	0
29	Correct	29	515	677	7	0	0	535660	691	0	correct_rejection	NA	0
29	Correct	30	516	678	9	0	0	536368	692	0	correct_rejection	NA	0
29	Correct	31	517	679	8	0	0	537077	692	0	correct_rejection	NA	0
29	Correct	32	518	680	0	1	1	537785	692	1	hit	528	0
29	Correct	33	519	681	7	0	0	538494	692	0	correct_rejection	NA	0
29	Correct	34	520	682	7	0	0	539203	691	0	correct_rejection	NA	0
29	Correct	35	521	683	8	0	0	539911	692	0	correct_rejection	NA	0
29	Correct	36	522	684	9	0	0	540620	691	0	correct_rejection	NA	0
29	Correct	37	523	685	7	0	0	541328	692	0	correct_rejection	NA	0
29	Correct	38	524	686	8	0	0	542037	692	0	correct_rejection	NA	0
29	Correct	39	525	687	9	0	0	542745	692	0	correct_rejection	NA	0
29	Correct	40	526	688	7	0	0	543454	692	0	correct_rejection	NA	0
29	Correct	41	527	689	8	0	0	544163	691	0	correct_rejection	NA	0
29	Correct	42	528	690	9	0	0	544871	692	0	correct_rejection	NA	0
29	Correct	43	529	691	4	0	0	545580	691	0	correct_rejection	NA	0
29	Correct	44	530	692	5	0	0	546288	692	0	correct_rejection	NA	0
29	Correct	45	531	693	6	0	0	546997	692	0	correct_rejection	NA	0
29	Correct	46	532	694	4	0	0	547705	692	0	correct_rejection	NA	0
29	Correct	47	533	695	5	0	0	548414	692	0	correct_rejection	NA	0
29	Correct	48	534	696	6	0	0	549123	691	0	correct_rejection	NA	0
29	Correct	49	535	697	4	0	0	549831	692	0	correct_rejection	NA	0
29	Correct	50	536	698	5	0	0	550540	691	0	correct_rejection	NA	0
29	Correct	51	537	699	0	1	1	551248	692	1	hit	427	0
29	Correct	52	538	700	6	0	0	551957	691	0	correct_rejection	NA	0
29	Correct	53	539	701	6	0	0	552665	692	0	correct_rejection	NA	0
29	Correct	54	540	702	5	0	0	553374	692	0	correct_rejection	NA	0
29	Correct	55	541	703	4	0	0	554083	691	0	correct_rejection	NA	0
29	Correct	56	542	704	6	0	0	554791	692	0	correct_rejection	NA	0
29	Correct	57	543	705	5	0	0	555500	691	0	correct_rejection	NA	0
29	Correct	58	544	706	4	0	0	556208	692	0	correct_rejection	NA	0
29	Correct	59	545	707	0	1	2	556917	691	1	hit	623	0
29	Correct	60	546	708	6	0	0	557625	692	0	correct_rejection	NA	0
29	Correct	61	547	709	5	0	0	558334	692	0	correct_rejection	NA	0
29	Correct	62	548	710	0	1	1	559042	692	1	hit	562	0
29	Correct	63	549	711	4	0	0	559751	692	0	correct_rejection	NA	0
29	Correct	64	550	712	9	0	0	560460	691	0	correct_rejection	NA	0
29	Correct	65	551	713	0	1	1	561168	692	1	hit	374	0
29	Correct	66	552	714	8	0	0	561877	691	0	correct_rejection	NA	0
29	Correct	67	553	715	7	0	0	562585	692	0	correct_rejection	NA	0
29	Correct	68	554	716	9	0	0	563294	692	0	correct_rejection	NA	0
29	Correct	69	555	717	8	0	0	564002	692	0	correct_rejection	NA	0
29	Correct	70	556	718	0	1	1	564711	692	1	hit	377	0
29	Correct	71	557	719	7	0	0	565420	691	0	correct_rejection	NA	0
29	Correct	72	558	720	9	0	0	566128	692	0	correct_rejection	NA	0
29	Correct	73	559	721	8	0	0	566837	691	0	correct_rejection	NA	0
29	Correct	74	560	722	7	0	0	567545	692	0	correct_rejection	NA	0
29	Correct	75	561	723	7	0	0	568254	692	0	correct_rejection	NA	0
29	Correct	76	562	724	8	0	0	568962	692	0	correct_rejection	NA	0
29	Correct	77	563	725	9	0	0	569671	692	0	correct_rejection	NA	0
29	Correct	78	564	726	7	0	0	570380	691	0	correct_rejection	NA	0
29	Correct	79	565	727	8	0	0	571088	692	0	correct_rejection	NA	0
29	Correct	80	566	728	9	0	0	571797	691	0	correct_rejection	NA	0
29	Correct	81	567	729	7	0	0	572505	692	0	correct_rejection	NA	0
29	Correct	82	568	730	8	0	0	573214	692	0	correct_rejection	NA	0
29	Correct	83	569	731	9	0	0	573922	692	0	correct_rejection	NA	0
29	Correct	84	570	732	4	0	0	574631	692	0	correct_rejection	NA	0
29	Correct	85	571	733	5	0	0	575340	691	0	correct_rejection	NA	0
29	Correct	86	572	734	6	0	0	576048	692	0	correct_rejection	NA	0
29	Correct	87	573	735	4	0	0	576757	691	0	correct_rejection	NA	0
29	Correct	88	574	736	5	0	0	577465	692	0	correct_rejection	NA	0
29	Correct	89	575	737	0	1	1	578174	691	1	hit	410	0
29	Correct	90	576	738	6	0	0	578882	692	0	correct_rejection	NA	0
29	Correct	91	577	739	4	0	0	579591	692	0	correct_rejection	NA	0
29	Correct	92	578	740	5	0	0	580299	692	0	correct_rejection	NA	0
29	Correct	93	579	741	6	0	0	581008	692	0	correct_rejection	NA	0
29	Correct	94	580	742	6	0	0	581717	691	0	correct_rejection	NA	0
29	Correct	95	581	743	0	1	1	582425	692	1	hit	365	0
29	Correct	96	582	744	5	0	0	583134	691	0	correct_rejection	NA	0
29	Correct	97	583	745	4	0	0	583842	692	0	correct_rejection	NA	0
29	Correct	98	584	746	6	0	0	584551	692	0	correct_rejection	NA	0
29	Correct	99	585	747	5	0	0	585259	692	0	correct_rejection	NA	0
29	Correct	100	586	748	4	0	0	585968	692	0	correct_rejection	NA	0
29	Correct	101	587	749	6	0	0	586677	691	0	correct_rejection	NA	0
29	Correct	102	588	750	5	0	0	587385	692	0	correct_rejection	NA	0
29	Correct	103	589	751	4	0	0	588094	691	0	correct_rejection	NA	0
29	Correct	104	590	752	9	0	0	588802	692	0	correct_rejection	NA	0
29	Correct	105	591	753	8	0	0	589511	692	0	correct_rejection	NA	0
29	Correct	106	592	754	7	0	0	590219	692	0	correct_rejection	NA	0
29	Correct	107	593	755	9	0	0	590928	692	0	correct_rejection	NA	0
29	Correct	108	594	756	8	0	0	591637	691	0	correct_rejection	NA	0
29	Correct	109	595	757	7	0	0	592345	692	0	correct_rejection	NA	0
29	Correct	110	596	758	9	0	0	593054	691	0	correct_rejection	NA	0
29	Correct	111	597	759	8	0	0	593762	692	0	correct_rejection	NA	0
29	Correct	112	598	760	7	0	0	594471	692	0	correct_rejection	NA	0
29	Correct	113	599	761	7	0	0	595179	692	0	correct_rejection	NA	0
29	Correct	114	600	762	8	0	0	595888	692	0	correct_rejection	NA	0
29	Correct	115	601	763	0	1	1	596597	691	1	hit	381	0
29	Correct	116	602	764	9	0	0	597305	692	0	correct_rejection	NA	0
29	Correct	117	603	765	7	0	0	598014	691	0	correct_rejection	NA	0
29	Correct	118	604	766	8	0	0	598722	692	0	correct_rejection	NA	0
29	Correct	119	605	767	9	0	0	599431	692	0	correct_rejection	NA	0
29	Correct	120	606	768	7	0	0	600139	692	0	correct_rejection	NA	0
29	Correct	121	607	769	8	0	0	600848	692	0	correct_rejection	NA	0
29	Correct	122	608	770	9	0	0	601557	691	0	correct_rejection	NA	0
29	Correct	123	609	771	0	1	4	602265	692	1	hit	485	0
29	Correct	124	610	772	4	0	0	602974	691	0	correct_rejection	NA	0
29	Correct	125	611	773	5	0	0	603682	692	0	correct_rejection	NA	0
29	Correct	126	612	774	6	0	0	604391	691	0	correct_rejection	NA	0
29	Correct	127	613	775	4	0	0	605099	692	0	correct_rejection	NA	0
29	Correct	128	614	776	5	0	0	605808	692	0	correct_rejection	NA	0
29	Correct	129	615	777	6	0	0	606516	692	0	correct_rejection	NA	0
29	Correct	130	616	778	0	1	2	607225	692	1	hit	444	0
29	Correct	131	617	779	4	0	0	607934	691	0	correct_rejection	NA	0
29	Correct	132	618	780	5	0	0	608642	692	0	correct_rejection	NA	0
29	Correct	133	619	781	6	0	0	609351	691	0	correct_rejection	NA	0
29	Correct	134	620	782	6	0	0	610059	692	0	correct_rejection	NA	0
29	Correct	135	621	783	5	0	0	610768	692	0	correct_rejection	NA	0
29	Correct	136	622	784	4	0	0	611476	692	0	correct_rejection	NA	0
29	Correct	137	623	785	6	0	0	612185	692	0	correct_rejection	NA	0
29	Correct	138	624	786	5	0	0	612894	691	0	correct_rejection	NA	0
29	Correct	139	625	787	0	1	1	613602	692	1	hit	398	0
29	Correct	140	626	788	4	0	0	614311	691	0	correct_rejection	NA	0
29	Correct	141	627	789	6	0	0	615019	692	0	correct_rejection	NA	0
29	Correct	142	628	790	5	0	0	615728	692	0	correct_rejection	NA	0
29	Correct	143	629	791	4	0	0	616436	692	0	correct_rejection	NA	0
29	Correct	144	630	792	0	1	3	617145	692	1	hit	414	0
29	Correct	145	631	793	9	0	0	617854	691	0	correct_rejection	NA	0
29	Correct	146	632	794	8	0	0	618562	692	0	correct_rejection	NA	0
29	Correct	147	633	795	7	0	0	619271	691	0	correct_rejection	NA	0
29	Correct	148	634	796	9	0	0	619979	692	0	correct_rejection	NA	0
29	Correct	149	635	797	8	0	0	620688	692	0	correct_rejection	NA	0
29	Correct	150	636	798	7	0	0	621396	692	0	correct_rejection	NA	0
29	Correct	151	637	799	9	0	0	622105	692	0	correct_rejection	NA	0
29	Correct	152	638	800	8	0	0	622814	691	0	correct_rejection	NA	0
29	Correct	153	639	801	7	0	0	623522	692	0	correct_rejection	NA	0
29	Correct	154	640	802	7	0	0	624231	691	0	correct_rejection	NA	0
29	Correct	155	641	803	8	0	0	624939	692	0	correct_rejection	NA	0
29	Correct	156	642	804	9	0	0	625648	692	0	correct_rejection	NA	0
29	Correct	157	643	805	7	0	0	626356	692	0	correct_rejection	NA	0
29	Correct	158	644	806	8	0	0	627065	692	0	correct_rejection	NA	0
29	Correct	159	645	807	9	0	0	627774	691	0	correct_rejection	NA	0
29	Correct	160	646	808	7	0	0	628482	692	0	correct_rejection	NA	0
29	Correct	161	647	809	8	0	0	629191	691	0	correct_rejection	NA	0
29	Correct	162	648	810	9	0	0	629899	692	0	correct_rejection	NA	0
trigger nr 622 at 632065
trigger nr 647 at 712331
29	Single	1	487	811	7	0	0	719512	692	0	correct_rejection	NA	7149
29	Single	2	488	812	4	0	0	720221	691	0	correct_rejection	NA	0
29	Single	3	489	813	5	0	0	720929	692	0	correct_rejection	NA	0
29	Single	4	490	814	0	1	1	721638	692	1	hit	439	0
29	Single	5	491	815	5	0	0	722346	692	0	correct_rejection	NA	0
29	Single	6	492	816	7	0	0	723055	692	0	correct_rejection	NA	0
29	Single	7	493	817	6	0	0	723764	691	0	correct_rejection	NA	0
29	Single	8	494	818	4	0	0	724472	692	0	correct_rejection	NA	0
29	Single	9	495	819	9	0	0	725181	691	0	correct_rejection	NA	0
29	Single	10	496	820	0	1	1	725889	692	1	hit	402	0
29	Single	11	497	821	5	0	0	726598	692	0	correct_rejection	NA	0
29	Single	12	498	822	9	0	0	727306	692	0	correct_rejection	NA	0
29	Single	13	499	823	0	1	1	728015	692	1	hit	405	0
29	Single	14	500	824	4	0	0	728724	691	0	correct_rejection	NA	0
29	Single	15	501	825	8	0	0	729432	692	0	correct_rejection	NA	0
29	Single	16	502	826	5	0	0	730141	691	0	correct_rejection	NA	0
29	Single	17	503	827	8	0	0	730849	692	0	correct_rejection	NA	0
29	Single	18	504	828	4	0	0	731558	691	0	correct_rejection	NA	0
29	Single	19	505	829	7	0	0	732266	692	0	correct_rejection	NA	0
29	Single	20	506	830	8	0	0	732975	692	0	correct_rejection	NA	0
29	Single	21	507	831	6	0	0	733683	692	0	correct_rejection	NA	0
29	Single	22	508	832	8	0	0	734392	692	0	correct_rejection	NA	0
29	Single	23	509	833	9	0	0	735101	691	0	correct_rejection	NA	0
29	Single	24	510	834	7	0	0	735809	692	0	correct_rejection	NA	0
29	Single	25	511	835	0	1	1	736518	691	1	hit	365	0
29	Single	26	512	836	5	0	0	737226	692	0	correct_rejection	NA	0
29	Single	27	513	837	6	0	0	737935	692	0	correct_rejection	NA	0
29	Single	28	514	838	9	0	0	738643	692	0	correct_rejection	NA	0
29	Single	29	515	839	6	0	0	739352	692	0	correct_rejection	NA	0
29	Single	30	516	840	6	0	0	740061	691	0	correct_rejection	NA	0
29	Single	31	517	841	5	0	0	740769	692	0	correct_rejection	NA	0
29	Single	32	518	842	4	0	0	741478	691	0	correct_rejection	NA	0
29	Single	33	519	843	4	0	0	742186	692	0	correct_rejection	NA	0
29	Single	34	520	844	0	1	1	742895	692	1	hit	442	0
29	Single	35	521	845	6	0	0	743603	692	0	correct_rejection	NA	0
29	Single	36	522	846	7	0	0	744312	692	0	correct_rejection	NA	0
29	Single	37	523	847	7	0	0	745021	691	0	correct_rejection	NA	0
29	Single	38	524	848	9	0	0	745729	692	0	correct_rejection	NA	0
29	Single	39	525	849	9	0	0	746438	691	0	correct_rejection	NA	0
29	Single	40	526	850	8	0	0	747146	692	0	correct_rejection	NA	0
29	Single	41	527	851	8	0	0	747855	692	0	correct_rejection	NA	0
29	Single	42	528	852	5	0	0	748563	692	0	correct_rejection	NA	0
29	Single	43	529	853	9	0	0	749272	692	0	correct_rejection	NA	0
29	Single	44	530	854	9	0	0	749981	691	0	correct_rejection	NA	0
29	Single	45	531	855	7	0	0	750689	692	0	correct_rejection	NA	0
29	Single	46	532	856	0	1	1	751398	691	1	hit	474	0
29	Single	47	533	857	9	0	0	752106	692	0	correct_rejection	NA	0
29	Single	48	534	858	5	0	0	752815	692	0	correct_rejection	NA	0
29	Single	49	535	859	5	0	0	753523	692	0	correct_rejection	NA	0
29	Single	50	536	860	0	1	1	754232	692	1	hit	510	0
29	Single	51	537	861	8	0	0	754940	692	0	correct_rejection	NA	0
29	Single	52	538	862	7	0	0	755649	692	0	correct_rejection	NA	0
29	Single	53	539	863	5	0	0	756358	691	0	correct_rejection	NA	0
29	Single	54	540	864	4	0	0	757066	692	0	correct_rejection	NA	0
29	Single	55	541	865	5	0	0	757775	692	0	correct_rejection	NA	0
29	Single	56	542	866	7	0	0	758483	692	0	correct_rejection	NA	0
29	Single	57	543	867	7	0	0	759192	692	0	correct_rejection	NA	0
29	Single	58	544	868	4	0	0	759900	692	0	correct_rejection	NA	0
29	Single	59	545	869	9	0	0	760609	692	0	correct_rejection	NA	0
29	Single	60	546	870	6	0	0	761318	691	0	correct_rejection	NA	0
29	Single	61	547	871	7	0	0	762026	692	0	correct_rejection	NA	0
29	Single	62	548	872	8	0	0	762735	691	0	correct_rejection	NA	0
29	Single	63	549	873	4	0	0	763443	692	0	correct_rejection	NA	0
29	Single	64	550	874	6	0	0	764152	692	0	correct_rejection	NA	0
29	Single	65	551	875	5	0	0	764860	692	0	correct_rejection	NA	0
29	Single	66	552	876	6	0	0	765569	692	0	correct_rejection	NA	0
29	Single	67	553	877	6	0	0	766278	691	0	correct_rejection	NA	0
29	Single	68	554	878	9	0	0	766986	692	0	correct_rejection	NA	0
29	Single	69	555	879	8	0	0	767695	691	0	correct_rejection	NA	0
29	Single	70	556	880	9	0	0	768403	692	0	correct_rejection	NA	0
29	Single	71	557	881	4	0	0	769112	692	0	correct_rejection	NA	0
29	Single	72	558	882	4	0	0	769820	692	0	correct_rejection	NA	0
29	Single	73	559	883	8	0	0	770529	692	0	correct_rejection	NA	0
29	Single	74	560	884	6	0	0	771238	691	0	correct_rejection	NA	0
29	Single	75	561	885	4	0	0	771946	692	0	correct_rejection	NA	0
29	Single	76	562	886	7	0	0	772655	691	0	correct_rejection	NA	0
29	Single	77	563	887	6	0	0	773363	692	0	correct_rejection	NA	0
29	Single	78	564	888	8	0	0	774072	692	0	correct_rejection	NA	0
29	Single	79	565	889	8	0	0	774780	692	0	correct_rejection	NA	0
29	Single	80	566	890	4	0	0	775489	692	0	correct_rejection	NA	0
29	Single	81	567	891	7	0	0	776198	691	0	correct_rejection	NA	0
29	Single	82	568	892	5	0	0	776906	692	0	correct_rejection	NA	0
29	Single	83	569	893	5	0	0	777615	691	0	correct_rejection	NA	0
29	Single	84	570	894	4	0	0	778323	692	0	correct_rejection	NA	0
29	Single	85	571	895	0	1	1	779032	691	1	hit	391	0
29	Single	86	572	896	8	0	0	779740	692	0	correct_rejection	NA	0
29	Single	87	573	897	9	0	0	780449	692	0	correct_rejection	NA	0
29	Single	88	574	898	0	1	1	781158	691	1	hit	472	0
29	Single	89	575	899	6	0	0	781866	692	0	correct_rejection	NA	0
29	Single	90	576	900	9	0	0	782575	691	0	correct_rejection	NA	0
29	Single	91	577	901	9	0	0	783283	692	0	correct_rejection	NA	0
29	Single	92	578	902	5	0	0	783992	691	0	correct_rejection	NA	0
29	Single	93	579	903	8	0	0	784700	692	0	correct_rejection	NA	0
29	Single	94	580	904	5	0	0	785409	692	0	correct_rejection	NA	0
29	Single	95	581	905	6	0	0	786117	692	0	correct_rejection	NA	0
29	Single	96	582	906	7	0	0	786826	692	0	correct_rejection	NA	0
29	Single	97	583	907	9	0	0	787535	691	0	correct_rejection	NA	0
29	Single	98	584	908	4	0	0	788243	692	0	correct_rejection	NA	0
29	Single	99	585	909	6	0	0	788952	691	0	correct_rejection	NA	0
29	Single	100	586	910	8	0	0	789660	692	0	correct_rejection	NA	0
29	Single	101	587	911	0	1	1	790369	692	1	hit	398	0
29	Single	102	588	912	4	0	0	791077	692	0	correct_rejection	NA	0
29	Single	103	589	913	5	0	0	791786	692	0	correct_rejection	NA	0
29	Single	104	590	914	9	0	0	792495	691	0	correct_rejection	NA	0
29	Single	105	591	915	8	0	0	793203	692	0	correct_rejection	NA	0
29	Single	106	592	916	7	0	0	793912	691	0	correct_rejection	NA	0
29	Single	107	593	917	0	1	1	794620	692	1	hit	496	0
29	Single	108	594	918	6	0	0	795329	692	0	correct_rejection	NA	0
29	Single	109	595	919	6	0	0	796037	692	0	correct_rejection	NA	0
29	Single	110	596	920	4	0	0	796746	692	0	correct_rejection	NA	0
29	Single	111	597	921	0	1	1	797455	691	1	hit	470	0
29	Single	112	598	922	4	0	0	798163	692	0	correct_rejection	NA	0
29	Single	113	599	923	9	0	0	798872	691	0	correct_rejection	NA	0
29	Single	114	600	924	7	0	0	799580	692	0	correct_rejection	NA	0
29	Single	115	601	925	7	0	0	800289	692	0	correct_rejection	NA	0
29	Single	116	602	926	0	1	1	800997	692	1	hit	525	0
29	Single	117	603	927	8	0	0	801706	692	0	correct_rejection	NA	0
29	Single	118	604	928	8	0	0	802415	691	0	correct_rejection	NA	0
29	Single	119	605	929	6	0	0	803123	692	0	correct_rejection	NA	0
29	Single	120	606	930	5	0	0	803832	691	0	correct_rejection	NA	0
29	Single	121	607	931	7	0	0	804540	692	0	correct_rejection	NA	0
29	Single	122	608	932	0	1	1	805249	691	1	hit	484	0
29	Single	123	609	933	7	0	0	805957	692	0	correct_rejection	NA	0
29	Single	124	610	934	8	0	0	806666	692	0	correct_rejection	NA	0
29	Single	125	611	935	5	0	0	807374	692	0	correct_rejection	NA	0
29	Single	126	612	936	0	1	1	808083	692	1	hit	379	0
29	Single	127	613	937	7	0	0	808792	691	0	correct_rejection	NA	0
29	Single	128	614	938	6	0	0	809500	692	0	correct_rejection	NA	0
29	Single	129	615	939	4	0	0	810209	691	0	correct_rejection	NA	0
29	Single	130	616	940	5	0	0	810917	692	0	correct_rejection	NA	0
29	Single	131	617	941	5	0	0	811626	692	0	correct_rejection	NA	0
29	Single	132	618	942	6	0	0	812334	692	0	correct_rejection	NA	0
29	Single	133	619	943	8	0	0	813043	692	0	correct_rejection	NA	0
29	Single	134	620	944	0	1	1	813752	691	1	hit	361	0
29	Single	135	621	945	6	0	0	814460	692	0	correct_rejection	NA	0
29	Single	136	622	946	9	0	0	815169	691	0	correct_rejection	NA	0
29	Single	137	623	947	4	0	0	815877	692	0	correct_rejection	NA	0
29	Single	138	624	948	8	0	0	816586	692	0	correct_rejection	NA	0
29	Single	139	625	949	7	0	0	817294	692	0	correct_rejection	NA	0
29	Single	140	626	950	0	1	1	818003	692	1	hit	429	0
29	Single	141	627	951	4	0	0	818712	691	0	correct_rejection	NA	0
29	Single	142	628	952	6	0	0	819420	692	0	correct_rejection	NA	0
29	Single	143	629	953	6	0	0	820129	691	0	correct_rejection	NA	0
29	Single	144	630	954	7	0	0	820837	692	0	correct_rejection	NA	0
29	Single	145	631	955	5	0	0	821546	692	0	correct_rejection	NA	0
29	Single	146	632	956	8	0	0	822254	692	0	correct_rejection	NA	0
29	Single	147	633	957	9	0	0	822963	692	0	correct_rejection	NA	0
29	Single	148	634	958	8	0	0	823672	691	0	correct_rejection	NA	0
29	Single	149	635	959	8	0	0	824380	692	0	correct_rejection	NA	0
29	Single	150	636	960	4	0	0	825089	691	0	correct_rejection	NA	0
29	Single	151	637	961	9	0	0	825797	692	0	correct_rejection	NA	0
29	Single	152	638	962	5	0	0	826506	692	0	correct_rejection	NA	0
29	Single	153	639	963	4	0	0	827214	692	0	correct_rejection	NA	0
29	Single	154	640	964	4	0	0	827923	692	0	correct_rejection	NA	0
29	Single	155	641	965	7	0	0	828632	691	0	correct_rejection	NA	0
29	Single	156	642	966	9	0	0	829340	692	0	correct_rejection	NA	0
29	Single	157	643	967	9	0	0	830049	691	0	correct_rejection	NA	0
29	Single	158	644	968	6	0	0	830757	692	0	correct_rejection	NA	0
29	Single	159	645	969	5	0	0	831466	691	0	correct_rejection	NA	0
29	Single	160	646	970	0	1	1	832174	692	1	hit	443	0
29	Single	161	647	971	9	0	0	832883	692	0	correct_rejection	NA	0
29	Single	162	648	972	7	0	0	833591	692	0	correct_rejection	NA	0
29	Nonet	1	325	973	4	0	0	842895	691	0	correct_rejection	NA	7529
29	Nonet	2	326	974	5	0	0	843603	692	0	correct_rejection	NA	0
29	Nonet	3	327	975	6	0	0	844312	691	0	correct_rejection	NA	0
29	Nonet	4	328	976	4	0	0	845020	692	0	correct_rejection	NA	0
29	Nonet	5	329	977	5	0	0	845729	692	0	correct_rejection	NA	0
29	Nonet	6	330	978	6	0	0	846437	692	0	correct_rejection	NA	0
29	Nonet	7	331	979	0	1	2	847146	692	1	hit	450	0
29	Nonet	8	332	980	4	0	0	847855	691	0	correct_rejection	NA	0
29	Nonet	9	333	981	5	0	0	848563	692	0	correct_rejection	NA	0
29	Nonet	10	334	982	6	0	0	849272	691	0	correct_rejection	NA	0
29	Nonet	11	335	983	6	0	0	849980	692	0	correct_rejection	NA	0
29	Nonet	12	336	984	0	1	1	850689	692	1	hit	403	0
29	Nonet	13	337	985	5	0	0	851397	692	0	correct_rejection	NA	0
29	Nonet	14	338	986	4	0	0	852106	692	0	correct_rejection	NA	0
29	Nonet	15	339	987	6	0	0	852815	691	0	correct_rejection	NA	0
29	Nonet	16	340	988	5	0	0	853523	692	0	correct_rejection	NA	0
29	Nonet	17	341	989	4	0	0	854232	691	0	correct_rejection	NA	0
29	Nonet	18	342	990	6	0	0	854940	692	0	correct_rejection	NA	0
29	Nonet	19	343	991	5	0	0	855649	691	0	correct_rejection	NA	0
29	Nonet	20	344	992	4	0	0	856357	692	0	correct_rejection	NA	0
29	Nonet	21	345	993	4	0	0	857066	692	0	correct_rejection	NA	0
29	Nonet	22	346	994	5	0	0	857774	692	0	correct_rejection	NA	0
29	Nonet	23	347	995	6	0	0	858483	692	0	correct_rejection	NA	0
29	Nonet	24	348	996	4	0	0	859192	691	0	correct_rejection	NA	0
29	Nonet	25	349	997	0	1	1	859900	692	1	hit	557	0
29	Nonet	26	350	998	5	0	0	860609	691	0	correct_rejection	NA	0
29	Nonet	27	351	999	6	0	0	861317	692	0	correct_rejection	NA	0
29	Nonet	28	352	1000	4	0	0	862026	692	0	correct_rejection	NA	0
29	Nonet	29	353	1001	5	0	0	862734	692	0	correct_rejection	NA	0
29	Nonet	30	354	1002	6	0	0	863443	692	0	correct_rejection	NA	0
29	Nonet	31	355	1003	9	0	0	864152	691	0	correct_rejection	NA	0
29	Nonet	32	356	1004	8	0	0	864860	692	0	correct_rejection	NA	0
29	Nonet	33	357	1005	7	0	0	865569	691	0	correct_rejection	NA	0
29	Nonet	34	358	1006	9	0	0	866277	692	0	correct_rejection	NA	0
29	Nonet	35	359	1007	8	0	0	866986	692	0	correct_rejection	NA	0
29	Nonet	36	360	1008	7	0	0	867694	692	0	correct_rejection	NA	0
29	Nonet	37	361	1009	9	0	0	868403	692	0	correct_rejection	NA	0
29	Nonet	38	362	1010	8	0	0	869112	691	0	correct_rejection	NA	0
29	Nonet	39	363	1011	7	0	0	869820	692	0	correct_rejection	NA	0
29	Nonet	40	364	1012	4	0	0	870529	691	0	correct_rejection	NA	0
29	Nonet	41	365	1013	5	0	0	871237	692	0	correct_rejection	NA	0
29	Nonet	42	366	1014	6	0	0	871946	692	0	correct_rejection	NA	0
29	Nonet	43	367	1015	4	0	0	872654	692	0	correct_rejection	NA	0
29	Nonet	44	368	1016	5	0	0	873363	692	0	correct_rejection	NA	0
29	Nonet	45	369	1017	0	1	1	874072	691	1	hit	467	0
29	Nonet	46	370	1018	6	0	0	874780	692	0	correct_rejection	NA	0
29	Nonet	47	371	1019	4	0	0	875489	691	0	correct_rejection	NA	0
29	Nonet	48	372	1020	5	0	0	876197	692	0	correct_rejection	NA	0
29	Nonet	49	373	1021	6	0	0	876906	691	0	correct_rejection	NA	0
29	Nonet	50	374	1022	7	0	0	877614	692	0	correct_rejection	NA	0
29	Nonet	51	375	1023	0	1	1	878323	692	1	hit	423	0
29	Nonet	52	376	1024	8	0	0	879032	691	0	correct_rejection	NA	0
29	Nonet	53	377	1025	9	0	0	879740	692	0	correct_rejection	NA	0
29	Nonet	54	378	1026	7	0	0	880449	691	0	correct_rejection	NA	0
29	Nonet	55	379	1027	8	0	0	881157	692	0	correct_rejection	NA	0
29	Nonet	56	380	1028	9	0	0	881866	691	0	correct_rejection	NA	0
29	Nonet	57	381	1029	7	0	0	882574	692	0	correct_rejection	NA	0
29	Nonet	58	382	1030	8	0	0	883283	692	0	correct_rejection	NA	0
29	Nonet	59	383	1031	9	0	0	883991	692	0	correct_rejection	NA	0
29	Nonet	60	384	1032	9	0	0	884700	692	0	correct_rejection	NA	0
29	Nonet	61	385	1033	8	0	0	885409	691	0	correct_rejection	NA	0
29	Nonet	62	386	1034	7	0	0	886117	692	0	correct_rejection	NA	0
29	Nonet	63	387	1035	9	0	0	886826	691	0	correct_rejection	NA	0
29	Nonet	64	388	1036	8	0	0	887534	692	0	correct_rejection	NA	0
29	Nonet	65	389	1037	0	1	1	888243	692	1	hit	412	0
29	Nonet	66	390	1038	7	0	0	888951	692	0	correct_rejection	NA	0
29	Nonet	67	391	1039	9	0	0	889660	692	0	correct_rejection	NA	0
29	Nonet	68	392	1040	8	0	0	890369	691	0	correct_rejection	NA	0
29	Nonet	69	393	1041	7	0	0	891077	692	0	correct_rejection	NA	0
29	Nonet	70	394	1042	0	1	3	891786	691	1	hit	414	0
29	Nonet	71	395	1043	9	0	0	892494	692	0	correct_rejection	NA	0
29	Nonet	72	396	1044	8	0	0	893203	692	0	correct_rejection	NA	0
29	Nonet	73	397	1045	7	0	0	893911	692	0	correct_rejection	NA	0
29	Nonet	74	398	1046	9	0	0	894620	692	0	correct_rejection	NA	0
29	Nonet	75	399	1047	8	0	0	895329	691	0	correct_rejection	NA	0
29	Nonet	76	400	1048	7	0	0	896037	692	0	correct_rejection	NA	0
29	Nonet	77	401	1049	9	0	0	896746	691	0	correct_rejection	NA	0
29	Nonet	78	402	1050	0	1	1	897454	692	1	hit	514	0
29	Nonet	79	403	1051	8	0	0	898163	692	0	correct_rejection	NA	0
29	Nonet	80	404	1052	7	0	0	898871	692	0	correct_rejection	NA	0
29	Nonet	81	405	1053	6	0	0	899580	692	0	correct_rejection	NA	0
29	Nonet	82	406	1054	5	0	0	900289	691	0	correct_rejection	NA	0
29	Nonet	83	407	1055	4	0	0	900997	692	0	correct_rejection	NA	0
29	Nonet	84	408	1056	0	1	2	901706	691	1	hit	446	0
29	Nonet	85	409	1057	6	0	0	902414	692	0	correct_rejection	NA	0
29	Nonet	86	410	1058	5	0	0	903123	691	0	correct_rejection	NA	0
29	Nonet	87	411	1059	4	0	0	903831	692	0	correct_rejection	NA	0
29	Nonet	88	412	1060	6	0	0	904540	692	0	correct_rejection	NA	0
29	Nonet	89	413	1061	5	0	0	905249	691	0	correct_rejection	NA	0
29	Nonet	90	414	1062	4	0	0	905957	692	0	correct_rejection	NA	0
29	Nonet	91	415	1063	7	0	0	906666	691	0	correct_rejection	NA	0
29	Nonet	92	416	1064	8	0	0	907374	692	0	correct_rejection	NA	0
29	Nonet	93	417	1065	9	0	0	908083	691	0	correct_rejection	NA	0
29	Nonet	94	418	1066	7	0	0	908791	692	0	correct_rejection	NA	0
29	Nonet	95	419	1067	8	0	0	909500	692	0	correct_rejection	NA	0
29	Nonet	96	420	1068	9	0	0	910208	692	0	correct_rejection	NA	0
29	Nonet	97	421	1069	7	0	0	910917	692	0	correct_rejection	NA	0
29	Nonet	98	422	1070	8	0	0	911626	691	0	correct_rejection	NA	0
29	Nonet	99	423	1071	9	0	0	912334	692	0	correct_rejection	NA	0
29	Nonet	100	424	1072	6	0	0	913043	691	0	correct_rejection	NA	0
29	Nonet	101	425	1073	0	1	1	913751	692	1	hit	369	0
29	Nonet	102	426	1074	5	0	0	914460	692	0	correct_rejection	NA	0
29	Nonet	103	427	1075	4	0	0	915168	692	0	correct_rejection	NA	0
29	Nonet	104	428	1076	6	0	0	915877	692	0	correct_rejection	NA	0
29	Nonet	105	429	1077	5	0	0	916586	691	0	correct_rejection	NA	0
29	Nonet	106	430	1078	4	0	0	917294	692	0	correct_rejection	NA	0
29	Nonet	107	431	1079	6	0	0	918003	691	0	correct_rejection	NA	0
29	Nonet	108	432	1080	5	0	0	918711	692	0	correct_rejection	NA	0
29	Nonet	109	433	1081	4	0	0	919420	692	0	correct_rejection	NA	0
29	Nonet	110	434	1082	0	1	3	920128	692	1	hit	440	0
29	Nonet	111	435	1083	6	0	0	920837	692	0	correct_rejection	NA	0
29	Nonet	112	436	1084	5	0	0	921546	691	0	correct_rejection	NA	0
29	Nonet	113	437	1085	0	1	1	922254	692	1	hit	491	0
29	Nonet	114	438	1086	4	0	0	922963	691	0	correct_rejection	NA	0
29	Nonet	115	439	1087	6	0	0	923671	692	0	correct_rejection	NA	0
29	Nonet	116	440	1088	5	0	0	924380	692	0	correct_rejection	NA	0
29	Nonet	117	441	1089	4	0	0	925088	692	0	correct_rejection	NA	0
29	Nonet	118	442	1090	6	0	0	925797	692	0	correct_rejection	NA	0
29	Nonet	119	443	1091	5	0	0	926506	691	0	correct_rejection	NA	0
29	Nonet	120	444	1092	4	0	0	927214	692	0	correct_rejection	NA	0
29	Nonet	121	445	1093	9	0	0	927923	691	0	correct_rejection	NA	0
29	Nonet	122	446	1094	8	0	0	928631	692	0	correct_rejection	NA	0
29	Nonet	123	447	1095	0	1	1	929340	691	1	hit	420	0
29	Nonet	124	448	1096	7	0	0	930048	692	0	correct_rejection	NA	0
29	Nonet	125	449	1097	9	0	0	930757	692	0	correct_rejection	NA	0
29	Nonet	126	450	1098	8	0	0	931465	692	0	correct_rejection	NA	0
29	Nonet	127	451	1099	7	0	0	932174	692	0	correct_rejection	NA	0
29	Nonet	128	452	1100	9	0	0	932883	691	0	correct_rejection	NA	0
29	Nonet	129	453	1101	8	0	0	933591	692	0	correct_rejection	NA	0
29	Nonet	130	454	1102	7	0	0	934300	691	0	correct_rejection	NA	0
29	Nonet	131	455	1103	0	1	3	935008	692	1	hit	666	0
29	Nonet	132	456	1104	7	0	0	935717	692	0	correct_rejection	NA	0
29	Nonet	133	457	1105	8	0	0	936425	692	0	correct_rejection	NA	0
29	Nonet	134	458	1106	9	0	0	937134	692	0	correct_rejection	NA	0
29	Nonet	135	459	1107	7	0	0	937843	691	0	correct_rejection	NA	0
29	Nonet	136	460	1108	8	0	0	938551	692	0	correct_rejection	NA	0
29	Nonet	137	461	1109	0	1	1	939260	691	1	hit	540	0
29	Nonet	138	462	1110	9	0	0	939968	692	0	correct_rejection	NA	0
29	Nonet	139	463	1111	7	0	0	940677	692	0	correct_rejection	NA	0
29	Nonet	140	464	1112	8	0	0	941385	692	0	correct_rejection	NA	0
29	Nonet	141	465	1113	9	0	0	942094	692	0	correct_rejection	NA	0
29	Nonet	142	466	1114	0	1	3	942803	691	1	hit	365	0
29	Nonet	143	467	1115	7	0	0	943511	692	0	correct_rejection	NA	0
29	Nonet	144	468	1116	8	0	0	944220	691	0	correct_rejection	NA	0
29	Nonet	145	469	1117	9	0	0	944928	692	0	correct_rejection	NA	0
29	Nonet	146	470	1118	7	0	0	945637	692	0	correct_rejection	NA	0
29	Nonet	147	471	1119	8	0	0	946345	692	0	correct_rejection	NA	0
29	Nonet	148	472	1120	9	0	0	947054	692	0	correct_rejection	NA	0
29	Nonet	149	473	1121	7	0	0	947763	691	0	correct_rejection	NA	0
29	Nonet	150	474	1122	8	0	0	948471	692	0	correct_rejection	NA	0
29	Nonet	151	475	1123	9	0	0	949180	691	0	correct_rejection	NA	0
29	Nonet	152	476	1124	4	0	0	949888	692	0	correct_rejection	NA	0
29	Nonet	153	477	1125	5	0	0	950597	692	0	correct_rejection	NA	0
29	Nonet	154	478	1126	0	1	1	951305	692	1	hit	348	0
29	Nonet	155	479	1127	6	0	0	952014	692	0	correct_rejection	NA	0
29	Nonet	156	480	1128	4	0	0	952723	691	0	correct_rejection	NA	0
29	Nonet	157	481	1129	0	1	1	953431	692	1	hit	365	0
29	Nonet	158	482	1130	5	0	0	954140	691	0	correct_rejection	NA	0
29	Nonet	159	483	1131	6	0	0	954848	692	0	correct_rejection	NA	0
29	Nonet	160	484	1132	4	0	0	955557	691	0	correct_rejection	NA	0
29	Nonet	161	485	1133	5	0	0	956265	692	0	correct_rejection	NA	0
29	Nonet	162	486	1134	6	0	0	956974	692	0	correct_rejection	NA	0
29	Triplet	1	325	1135	6	0	0	965743	692	0	correct_rejection	NA	6379
29	Triplet	2	326	1136	5	0	0	966452	692	0	correct_rejection	NA	0
29	Triplet	3	327	1137	4	0	0	967161	691	0	correct_rejection	NA	0
29	Triplet	4	328	1138	6	0	0	967869	692	0	correct_rejection	NA	0
29	Triplet	5	329	1139	5	0	0	968578	691	0	correct_rejection	NA	0
29	Triplet	6	330	1140	4	0	0	969286	692	0	correct_rejection	NA	0
29	Triplet	7	331	1141	9	0	0	969995	692	0	correct_rejection	NA	0
29	Triplet	8	332	1142	8	0	0	970703	692	0	correct_rejection	NA	0
29	Triplet	9	333	1143	7	0	0	971412	692	0	correct_rejection	NA	0
29	Triplet	10	334	1144	9	0	0	972121	691	0	correct_rejection	NA	0
29	Triplet	11	335	1145	8	0	0	972829	692	0	correct_rejection	NA	0
29	Triplet	12	336	1146	7	0	0	973538	691	0	correct_rejection	NA	0
29	Triplet	13	337	1147	7	0	0	974246	692	0	correct_rejection	NA	0
29	Triplet	14	338	1148	0	1	1	974955	692	1	hit	348	0
29	Triplet	15	339	1149	8	0	0	975663	692	0	correct_rejection	NA	0
29	Triplet	16	340	1150	9	0	0	976372	692	0	correct_rejection	NA	0
29	Triplet	17	341	1151	9	0	0	977081	691	0	correct_rejection	NA	0
29	Triplet	18	342	1152	8	0	0	977789	692	0	correct_rejection	NA	0
29	Triplet	19	343	1153	7	0	0	978498	691	0	correct_rejection	NA	0
29	Triplet	20	344	1154	6	0	0	979206	692	0	correct_rejection	NA	0
29	Triplet	21	345	1155	5	0	0	979915	692	0	correct_rejection	NA	0
29	Triplet	22	346	1156	4	0	0	980623	692	0	correct_rejection	NA	0
29	Triplet	23	347	1157	7	0	0	981332	692	0	correct_rejection	NA	0
29	Triplet	24	348	1158	8	0	0	982041	691	0	correct_rejection	NA	0
29	Triplet	25	349	1159	9	0	0	982749	692	0	correct_rejection	NA	0
29	Triplet	26	350	1160	4	0	0	983458	691	0	correct_rejection	NA	0
29	Triplet	27	351	1161	5	0	0	984166	692	0	correct_rejection	NA	0
29	Triplet	28	352	1162	6	0	0	984875	691	0	correct_rejection	NA	0
29	Triplet	29	353	1163	6	0	0	985583	692	0	correct_rejection	NA	0
29	Triplet	30	354	1164	0	1	1	986292	692	1	hit	460	0
29	Triplet	31	355	1165	5	0	0	987001	691	0	correct_rejection	NA	0
29	Triplet	32	356	1166	4	0	0	987709	692	0	correct_rejection	NA	0
29	Triplet	33	357	1167	4	0	0	988418	691	0	correct_rejection	NA	0
29	Triplet	34	358	1168	5	0	0	989126	692	0	correct_rejection	NA	0
29	Triplet	35	359	1169	6	0	0	989835	691	0	correct_rejection	NA	0
29	Triplet	36	360	1170	9	0	0	990543	692	0	correct_rejection	NA	0
29	Triplet	37	361	1171	8	0	0	991252	692	0	correct_rejection	NA	0
29	Triplet	38	362	1172	7	0	0	991960	692	0	correct_rejection	NA	0
29	Triplet	39	363	1173	4	0	0	992669	692	0	correct_rejection	NA	0
29	Triplet	40	364	1174	5	0	0	993378	691	0	correct_rejection	NA	0
29	Triplet	41	365	1175	6	0	0	994086	692	0	correct_rejection	NA	0
29	Triplet	42	366	1176	4	0	0	994795	691	0	correct_rejection	NA	0
29	Triplet	43	367	1177	0	1	1	995503	692	1	hit	401	0
29	Triplet	44	368	1178	5	0	0	996212	692	0	correct_rejection	NA	0
29	Triplet	45	369	1179	6	0	0	996920	692	0	correct_rejection	NA	0
29	Triplet	46	370	1180	7	0	0	997629	692	0	correct_rejection	NA	0
29	Triplet	47	371	1181	8	0	0	998338	691	0	correct_rejection	NA	0
29	Triplet	48	372	1182	9	0	0	999046	692	0	correct_rejection	NA	0
29	Triplet	49	373	1183	7	0	0	999755	691	0	correct_rejection	NA	0
29	Triplet	50	374	1184	8	0	0	1000463	692	0	correct_rejection	NA	0
29	Triplet	51	375	1185	9	0	0	1001172	692	0	correct_rejection	NA	0
29	Triplet	52	376	1186	0	1	2	1001880	692	1	hit	437	0
29	Triplet	53	377	1187	6	0	0	1002589	692	0	correct_rejection	NA	0
29	Triplet	54	378	1188	5	0	0	1003298	691	0	correct_rejection	NA	0
29	Triplet	55	379	1189	4	0	0	1004006	692	0	correct_rejection	NA	0
29	Triplet	56	380	1190	0	1	2	1004715	691	1	hit	432	0
29	Triplet	57	381	1191	7	0	0	1005423	692	0	correct_rejection	NA	0
29	Triplet	58	382	1192	8	0	0	1006132	692	0	correct_rejection	NA	0
29	Triplet	59	383	1193	9	0	0	1006840	692	0	correct_rejection	NA	0
29	Triplet	60	384	1194	9	0	0	1007549	692	0	correct_rejection	NA	0
29	Triplet	61	385	1195	8	0	0	1008258	691	0	correct_rejection	NA	0
29	Triplet	62	386	1196	7	0	0	1008966	692	0	correct_rejection	NA	0
29	Triplet	63	387	1197	4	0	0	1009675	691	0	correct_rejection	NA	0
29	Triplet	64	388	1198	5	0	0	1010383	692	0	correct_rejection	NA	0
29	Triplet	65	389	1199	6	0	0	1011092	691	0	correct_rejection	NA	0
29	Triplet	66	390	1200	7	0	0	1011800	692	0	correct_rejection	NA	0
29	Triplet	67	391	1201	8	0	0	1012509	692	0	correct_rejection	NA	0
29	Triplet	68	392	1202	0	1	1	1013217	692	1	hit	424	0
29	Triplet	69	393	1203	9	0	0	1013926	692	0	correct_rejection	NA	0
29	Triplet	70	394	1204	4	0	0	1014635	691	0	correct_rejection	NA	0
29	Triplet	71	395	1205	5	0	0	1015343	692	0	correct_rejection	NA	0
29	Triplet	72	396	1206	0	1	1	1016052	691	1	hit	477	0
29	Triplet	73	397	1207	6	0	0	1016760	692	0	correct_rejection	NA	0
29	Triplet	74	398	1208	4	0	0	1017469	692	0	correct_rejection	NA	0
29	Triplet	75	399	1209	0	1	1	1018177	692	1	hit	364	0
29	Triplet	76	400	1210	5	0	0	1018886	692	0	correct_rejection	NA	0
29	Triplet	77	401	1211	6	0	0	1019595	691	0	correct_rejection	NA	0
29	Triplet	78	402	1212	9	0	0	1020303	692	0	correct_rejection	NA	0
29	Triplet	79	403	1213	0	1	1	1021012	691	1	hit	426	0
29	Triplet	80	404	1214	8	0	0	1021720	692	0	correct_rejection	NA	0
29	Triplet	81	405	1215	7	0	0	1022429	692	0	correct_rejection	NA	0
29	Triplet	82	406	1216	9	0	0	1023137	692	0	correct_rejection	NA	0
29	Triplet	83	407	1217	8	0	0	1023846	692	0	correct_rejection	NA	0
29	Triplet	84	408	1218	7	0	0	1024555	691	0	correct_rejection	NA	0
29	Triplet	85	409	1219	6	0	0	1025263	692	0	correct_rejection	NA	0
29	Triplet	86	410	1220	5	0	0	1025972	691	0	correct_rejection	NA	0
29	Triplet	87	411	1221	4	0	0	1026680	692	0	correct_rejection	NA	0
29	Triplet	88	412	1222	4	0	0	1027389	692	0	correct_rejection	NA	0
29	Triplet	89	413	1223	5	0	0	1028097	692	0	correct_rejection	NA	0
29	Triplet	90	414	1224	6	0	0	1028806	692	0	correct_rejection	NA	0
29	Triplet	91	415	1225	6	0	0	1029515	691	0	correct_rejection	NA	0
29	Triplet	92	416	1226	5	0	0	1030223	692	0	correct_rejection	NA	0
29	Triplet	93	417	1227	4	0	0	1030932	691	0	correct_rejection	NA	0
29	Triplet	94	418	1228	9	0	0	1031640	692	0	correct_rejection	NA	0
29	Triplet	95	419	1229	8	0	0	1032349	692	0	correct_rejection	NA	0
29	Triplet	96	420	1230	7	0	0	1033057	692	0	correct_rejection	NA	0
29	Triplet	97	421	1231	0	1	2	1033766	692	1	hit	530	0
29	Triplet	98	422	1232	7	0	0	1034475	691	0	correct_rejection	NA	0
29	Triplet	99	423	1233	8	0	0	1035183	692	0	correct_rejection	NA	0
29	Triplet	100	424	1234	9	0	0	1035892	691	0	correct_rejection	NA	0
29	Triplet	101	425	1235	7	0	0	1036600	692	0	correct_rejection	NA	0
29	Triplet	102	426	1236	8	0	0	1037309	691	0	correct_rejection	NA	0
29	Triplet	103	427	1237	9	0	0	1038017	692	0	correct_rejection	NA	0
29	Triplet	104	428	1238	6	0	0	1038726	692	0	correct_rejection	NA	0
29	Triplet	105	429	1239	5	0	0	1039434	692	0	correct_rejection	NA	0
29	Triplet	106	430	1240	4	0	0	1040143	692	0	correct_rejection	NA	0
29	Triplet	107	431	1241	0	1	2	1040852	691	1	hit	455	0
29	Triplet	108	432	1242	6	0	0	1041560	692	0	correct_rejection	NA	0
29	Triplet	109	433	1243	5	0	0	1042269	691	0	correct_rejection	NA	0
29	Triplet	110	434	1244	0	1	1	1042977	692	1	hit	450	0
29	Triplet	111	435	1245	4	0	0	1043686	692	0	correct_rejection	NA	0
29	Triplet	112	436	1246	9	0	0	1044394	692	0	correct_rejection	NA	0
29	Triplet	113	437	1247	8	0	0	1045103	692	0	correct_rejection	NA	0
29	Triplet	114	438	1248	7	0	0	1045812	691	0	correct_rejection	NA	0
29	Triplet	115	439	1249	4	0	0	1046520	692	0	correct_rejection	NA	0
29	Triplet	116	440	1250	5	0	0	1047229	691	0	correct_rejection	NA	0
29	Triplet	117	441	1251	6	0	0	1047937	692	0	correct_rejection	NA	0
29	Triplet	118	442	1252	9	0	0	1048646	692	0	correct_rejection	NA	0
29	Triplet	119	443	1253	8	0	0	1049354	692	0	correct_rejection	NA	0
29	Triplet	120	444	1254	7	0	0	1050063	692	0	correct_rejection	NA	0
29	Triplet	121	445	1255	7	0	0	1050772	691	0	correct_rejection	NA	0
29	Triplet	122	446	1256	8	0	0	1051480	692	0	correct_rejection	NA	0
29	Triplet	123	447	1257	9	0	0	1052189	691	0	correct_rejection	NA	0
29	Triplet	124	448	1258	6	0	0	1052897	692	0	correct_rejection	NA	0
29	Triplet	125	449	1259	5	0	0	1053606	692	0	correct_rejection	NA	0
29	Triplet	126	450	1260	4	0	0	1054314	692	0	correct_rejection	NA	0
29	Triplet	127	451	1261	4	0	0	1055023	692	0	correct_rejection	NA	0
29	Triplet	128	452	1262	0	1	1	1055732	691	1	hit	390	0
29	Triplet	129	453	1263	5	0	0	1056440	692	0	correct_rejection	NA	0
29	Triplet	130	454	1264	6	0	0	1057149	691	0	correct_rejection	NA	0
29	Triplet	131	455	1265	0	1	2	1057857	692	1	hit	511	0
29	Triplet	132	456	1266	4	0	0	1058566	692	0	correct_rejection	NA	0
29	Triplet	133	457	1267	5	0	0	1059274	692	0	correct_rejection	NA	0
29	Triplet	134	458	1268	6	0	0	1059983	692	0	correct_rejection	NA	0
29	Triplet	135	459	1269	6	0	0	1060692	691	0	correct_rejection	NA	0
29	Triplet	136	460	1270	5	0	0	1061400	692	0	correct_rejection	NA	0
29	Triplet	137	461	1271	4	0	0	1062109	691	0	correct_rejection	NA	0
29	Triplet	138	462	1272	6	0	0	1062817	692	0	correct_rejection	NA	0
29	Triplet	139	463	1273	5	0	0	1063526	691	0	correct_rejection	NA	0
29	Triplet	140	464	1274	0	1	1	1064234	692	1	hit	614	0
29	Triplet	141	465	1275	4	0	0	1064943	692	0	correct_rejection	NA	0
29	Triplet	142	466	1276	7	0	0	1065651	692	0	correct_rejection	NA	0
29	Triplet	143	467	1277	8	0	0	1066360	692	0	correct_rejection	NA	0
29	Triplet	144	468	1278	9	0	0	1067069	691	0	correct_rejection	NA	0
29	Triplet	145	469	1279	7	0	0	1067777	692	0	correct_rejection	NA	0
29	Triplet	146	470	1280	8	0	0	1068486	691	0	correct_rejection	NA	0
29	Triplet	147	471	1281	9	0	0	1069194	692	0	correct_rejection	NA	0
29	Triplet	148	472	1282	4	0	0	1069903	692	0	correct_rejection	NA	0
29	Triplet	149	473	1283	5	0	0	1070611	692	0	correct_rejection	NA	0
29	Triplet	150	474	1284	6	0	0	1071320	692	0	correct_rejection	NA	0
29	Triplet	151	475	1285	0	1	2	1072029	691	1	hit	559	0
29	Triplet	152	476	1286	7	0	0	1072737	692	0	correct_rejection	NA	0
29	Triplet	153	477	1287	8	0	0	1073446	691	0	correct_rejection	NA	0
29	Triplet	154	478	1288	0	1	1	1074154	692	1	hit	445	0
29	Triplet	155	479	1289	9	0	0	1074863	692	0	correct_rejection	NA	0
29	Triplet	156	480	1290	9	0	0	1075571	692	0	correct_rejection	NA	0
29	Triplet	157	481	1291	8	0	0	1076280	692	0	correct_rejection	NA	0
29	Triplet	158	482	1292	7	0	0	1076989	691	0	correct_rejection	NA	0
29	Triplet	159	483	1293	9	0	0	1077697	692	0	correct_rejection	NA	0
29	Triplet	160	484	1294	0	1	1	1078406	691	1	hit	492	0
29	Triplet	161	485	1295	8	0	0	1079114	692	0	correct_rejection	NA	0
29	Triplet	162	486	1296	7	0	0	1079823	692	0	correct_rejection	NA	0
29	Single	1	163	1297	8	0	0	1089359	692	0	correct_rejection	NA	6998
29	Single	2	164	1298	6	0	0	1090068	692	0	correct_rejection	NA	0
29	Single	3	165	1299	7	0	0	1090776	692	0	correct_rejection	NA	0
29	Single	4	166	1300	5	0	0	1091485	692	0	correct_rejection	NA	0
29	Single	5	167	1301	0	1	1	1092194	691	1	hit	434	0
29	Single	6	168	1302	5	0	0	1092902	692	0	correct_rejection	NA	0
29	Single	7	169	1303	7	0	0	1093611	691	0	correct_rejection	NA	0
29	Single	8	170	1304	6	0	0	1094319	692	0	correct_rejection	NA	0
29	Single	9	171	1305	0	1	1	1095028	692	1	hit	420	0
29	Single	10	172	1306	8	0	0	1095736	692	0	correct_rejection	NA	0
29	Single	11	173	1307	7	0	0	1096445	692	0	correct_rejection	NA	0
29	Single	12	174	1308	7	0	0	1097154	691	0	correct_rejection	NA	0
29	Single	13	175	1309	8	0	0	1097862	692	0	correct_rejection	NA	0
29	Single	14	176	1310	8	0	0	1098571	691	0	correct_rejection	NA	0
29	Single	15	177	1311	4	0	0	1099279	692	0	correct_rejection	NA	0
29	Single	16	178	1312	7	0	0	1099988	692	0	correct_rejection	NA	0
29	Single	17	179	1313	0	1	1	1100696	692	1	hit	512	0
29	Single	18	180	1314	9	0	0	1101405	692	0	correct_rejection	NA	0
29	Single	19	181	1315	6	0	0	1102114	691	0	correct_rejection	NA	0
29	Single	20	182	1316	5	0	0	1102822	692	0	correct_rejection	NA	0
29	Single	21	183	1317	9	0	0	1103531	691	0	correct_rejection	NA	0
29	Single	22	184	1318	7	0	0	1104239	692	0	correct_rejection	NA	0
29	Single	23	185	1319	4	0	0	1104948	692	0	correct_rejection	NA	0
29	Single	24	186	1320	4	0	0	1105656	692	0	correct_rejection	NA	0
29	Single	25	187	1321	0	1	1	1106365	692	1	hit	404	0
29	Single	26	188	1322	6	0	0	1107073	692	0	correct_rejection	NA	0
29	Single	27	189	1323	9	0	0	1107782	692	0	correct_rejection	NA	0
29	Single	28	190	1324	9	0	0	1108491	691	0	correct_rejection	NA	0
29	Single	29	191	1325	5	0	0	1109199	692	0	correct_rejection	NA	0
29	Single	30	192	1326	6	0	0	1109908	691	0	correct_rejection	NA	0
29	Single	31	193	1327	6	0	0	1110616	692	0	correct_rejection	NA	0
29	Single	32	194	1328	0	1	1	1111325	692	1	hit	499	0
29	Single	33	195	1329	4	0	0	1112033	692	0	correct_rejection	NA	0
29	Single	34	196	1330	8	0	0	1112742	692	0	correct_rejection	NA	0
29	Single	35	197	1331	5	0	0	1113451	691	0	correct_rejection	NA	0
29	Single	36	198	1332	4	0	0	1114159	692	0	correct_rejection	NA	0
29	Single	37	199	1333	9	0	0	1114868	691	0	correct_rejection	NA	0
29	Single	38	200	1334	4	0	0	1115576	692	0	correct_rejection	NA	0
29	Single	39	201	1335	5	0	0	1116285	692	0	correct_rejection	NA	0
29	Single	40	202	1336	8	0	0	1116993	692	0	correct_rejection	NA	0
29	Single	41	203	1337	9	0	0	1117702	692	0	correct_rejection	NA	0
29	Single	42	204	1338	9	0	0	1118411	691	0	correct_rejection	NA	0
29	Single	43	205	1339	7	0	0	1119119	692	0	correct_rejection	NA	0
29	Single	44	206	1340	6	0	0	1119828	691	0	correct_rejection	NA	0
29	Single	45	207	1341	9	0	0	1120536	692	0	correct_rejection	NA	0
29	Single	46	208	1342	6	0	0	1121245	692	0	correct_rejection	NA	0
29	Single	47	209	1343	8	0	0	1121953	692	0	correct_rejection	NA	0
29	Single	48	210	1344	0	1	1	1122662	692	1	hit	493	0
29	Single	49	211	1345	4	0	0	1123371	691	0	correct_rejection	NA	0
29	Single	50	212	1346	8	0	0	1124079	692	0	correct_rejection	NA	0
29	Single	51	213	1347	8	0	0	1124788	691	0	correct_rejection	NA	0
29	Single	52	214	1348	0	1	1	1125496	692	1	hit	592	0
29	Single	53	215	1349	5	0	0	1126205	692	0	correct_rejection	NA	0
29	Single	54	216	1350	7	0	0	1126913	692	0	correct_rejection	NA	0
29	Single	55	217	1351	7	0	0	1127622	692	0	correct_rejection	NA	0
29	Single	56	218	1352	5	0	0	1128331	691	0	correct_rejection	NA	0
29	Single	57	219	1353	6	0	0	1129039	692	0	correct_rejection	NA	0
29	Single	58	220	1354	4	0	0	1129748	691	0	correct_rejection	NA	0
29	Single	59	221	1355	7	0	0	1130456	692	0	correct_rejection	NA	0
29	Single	60	222	1356	0	1	1	1131165	691	1	hit	422	0
29	Single	61	223	1357	4	0	0	1131873	692	0	correct_rejection	NA	0
29	Single	62	224	1358	6	0	0	1132582	692	0	correct_rejection	NA	0
29	Single	63	225	1359	5	0	0	1133290	692	0	correct_rejection	NA	0
29	Single	64	226	1360	5	0	0	1133999	692	0	correct_rejection	NA	0
29	Single	65	227	1361	8	0	0	1134708	691	0	correct_rejection	NA	0
29	Single	66	228	1362	0	1	1	1135416	692	1	hit	436	0
29	Single	67	229	1363	7	0	0	1136125	691	0	correct_rejection	NA	0
29	Single	68	230	1364	8	0	0	1136833	692	0	correct_rejection	NA	0
29	Single	69	231	1365	9	0	0	1137542	692	0	correct_rejection	NA	0
29	Single	70	232	1366	0	1	1	1138250	692	1	hit	442	0
29	Single	71	233	1367	4	0	0	1138959	692	0	correct_rejection	NA	0
29	Single	72	234	1368	9	0	0	1139668	691	0	correct_rejection	NA	0
29	Single	73	235	1369	5	0	0	1140376	692	0	correct_rejection	NA	0
29	Single	74	236	1370	4	0	0	1141085	691	0	correct_rejection	NA	0
29	Single	75	237	1371	4	0	0	1141793	692	0	correct_rejection	NA	0
29	Single	76	238	1372	5	0	0	1142502	692	0	correct_rejection	NA	0
29	Single	77	239	1373	0	1	1	1143210	692	1	hit	457	0
29	Single	78	240	1374	9	0	0	1143919	692	0	correct_rejection	NA	0
29	Single	79	241	1375	9	0	0	1144628	691	0	correct_rejection	NA	0
29	Single	80	242	1376	8	0	0	1145336	692	0	correct_rejection	NA	0
29	Single	81	243	1377	6	0	0	1146045	691	0	correct_rejection	NA	0
29	Single	82	244	1378	6	0	0	1146753	692	0	correct_rejection	NA	0
29	Single	83	245	1379	7	0	0	1147462	692	0	correct_rejection	NA	0
29	Single	84	246	1380	7	0	0	1148170	692	0	correct_rejection	NA	0
29	Single	85	247	1381	5	0	0	1148879	692	0	correct_rejection	NA	0
29	Single	86	248	1382	7	0	0	1149588	691	0	correct_rejection	NA	0
29	Single	87	249	1383	9	0	0	1150296	692	0	correct_rejection	NA	0
29	Single	88	250	1384	9	0	0	1151005	691	0	correct_rejection	NA	0
29	Single	89	251	1385	7	0	0	1151713	692	0	correct_rejection	NA	0
29	Single	90	252	1386	7	0	0	1152422	691	0	correct_rejection	NA	0
29	Single	91	253	1387	4	0	0	1153130	692	0	correct_rejection	NA	0
29	Single	92	254	1388	8	0	0	1153839	692	0	correct_rejection	NA	0
29	Single	93	255	1389	7	0	0	1154548	691	0	correct_rejection	NA	0
29	Single	94	256	1390	6	0	0	1155256	692	0	correct_rejection	NA	0
29	Single	95	257	1391	5	0	0	1155965	691	0	correct_rejection	NA	0
29	Single	96	258	1392	6	0	0	1156673	692	0	correct_rejection	NA	0
29	Single	97	259	1393	7	0	0	1157382	691	0	correct_rejection	NA	0
29	Single	98	260	1394	8	0	0	1158090	692	0	correct_rejection	NA	0
29	Single	99	261	1395	5	0	0	1158799	692	0	correct_rejection	NA	0
29	Single	100	262	1396	9	0	0	1159507	692	0	correct_rejection	NA	0
29	Single	101	263	1397	4	0	0	1160216	692	0	correct_rejection	NA	0
29	Single	102	264	1398	4	0	0	1160925	691	0	correct_rejection	NA	0
29	Single	103	265	1399	9	0	0	1161633	692	0	correct_rejection	NA	0
29	Single	104	266	1400	0	1	1	1162342	691	1	hit	536	0
29	Single	105	267	1401	8	0	0	1163050	692	0	correct_rejection	NA	0
29	Single	106	268	1402	9	0	0	1163759	692	0	correct_rejection	NA	0
29	Single	107	269	1403	6	0	0	1164467	692	0	correct_rejection	NA	0
29	Single	108	270	1404	9	0	0	1165176	692	0	correct_rejection	NA	0
29	Single	109	271	1405	0	1	1	1165885	691	1	hit	538	0
29	Single	110	272	1406	5	0	0	1166593	692	0	correct_rejection	NA	0
29	Single	111	273	1407	8	0	0	1167302	691	0	correct_rejection	NA	0
29	Single	112	274	1408	4	0	0	1168010	692	0	correct_rejection	NA	0
29	Single	113	275	1409	5	0	0	1168719	692	0	correct_rejection	NA	0
29	Single	114	276	1410	5	0	0	1169427	692	0	correct_rejection	NA	0
29	Single	115	277	1411	4	0	0	1170136	692	0	correct_rejection	NA	0
29	Single	116	278	1412	6	0	0	1170845	691	0	correct_rejection	NA	0
29	Single	117	279	1413	6	0	0	1171553	692	0	correct_rejection	NA	0
29	Single	118	280	1414	8	0	0	1172262	691	0	correct_rejection	NA	0
29	Single	119	281	1415	8	0	0	1172970	692	0	correct_rejection	NA	0
29	Single	120	282	1416	6	0	0	1173679	692	0	correct_rejection	NA	0
29	Single	121	283	1417	4	0	0	1174387	692	0	correct_rejection	NA	0
29	Single	122	284	1418	8	0	0	1175096	692	0	correct_rejection	NA	0
29	Single	123	285	1419	4	0	0	1175805	691	0	correct_rejection	NA	0
29	Single	124	286	1420	6	0	0	1176513	692	0	correct_rejection	NA	0
29	Single	125	287	1421	0	1	1	1177222	691	0	miss	NA	0
29	Single	126	288	1422	9	0	0	1177930	692	1	false_alarm	0	0
29	Single	127	289	1423	8	0	0	1178639	691	0	correct_rejection	NA	0
29	Single	128	290	1424	8	0	0	1179347	692	0	correct_rejection	NA	0
29	Single	129	291	1425	0	1	1	1180056	692	1	hit	510	0
29	Single	130	292	1426	9	0	0	1180765	691	0	correct_rejection	NA	0
29	Single	131	293	1427	5	0	0	1181473	692	0	correct_rejection	NA	0
29	Single	132	294	1428	9	0	0	1182182	691	0	correct_rejection	NA	0
29	Single	133	295	1429	7	0	0	1182890	692	0	correct_rejection	NA	0
29	Single	134	296	1430	5	0	0	1183599	691	0	correct_rejection	NA	0
29	Single	135	297	1431	8	0	0	1184307	692	0	correct_rejection	NA	0
29	Single	136	298	1432	5	0	0	1185016	692	0	correct_rejection	NA	0
29	Single	137	299	1433	5	0	0	1185724	692	0	correct_rejection	NA	0
29	Single	138	300	1434	6	0	0	1186433	692	0	correct_rejection	NA	0
29	Single	139	301	1435	8	0	0	1187142	691	0	correct_rejection	NA	0
29	Single	140	302	1436	0	1	1	1187850	692	1	hit	471	0
29	Single	141	303	1437	6	0	0	1188559	691	0	correct_rejection	NA	0
29	Single	142	304	1438	7	0	0	1189267	692	0	correct_rejection	NA	0
29	Single	143	305	1439	9	0	0	1189976	692	0	correct_rejection	NA	0
29	Single	144	306	1440	6	0	0	1190684	692	0	correct_rejection	NA	0
29	Single	145	307	1441	0	1	1	1191393	692	1	hit	435	0
29	Single	146	308	1442	5	0	0	1192102	691	0	correct_rejection	NA	0
29	Single	147	309	1443	4	0	0	1192810	692	0	correct_rejection	NA	0
29	Single	148	310	1444	0	1	1	1193519	691	1	hit	650	0
29	Single	149	311	1445	5	0	0	1194227	692	0	correct_rejection	NA	0
29	Single	150	312	1446	7	0	0	1194936	692	0	correct_rejection	NA	0
29	Single	151	313	1447	8	0	0	1195644	692	0	correct_rejection	NA	0
29	Single	152	314	1448	7	0	0	1196353	692	0	correct_rejection	NA	0
29	Single	153	315	1449	4	0	0	1197062	691	0	correct_rejection	NA	0
29	Single	154	316	1450	4	0	0	1197770	692	0	correct_rejection	NA	0
29	Single	155	317	1451	7	0	0	1198479	691	0	correct_rejection	NA	0
29	Single	156	318	1452	7	0	0	1199187	692	0	correct_rejection	NA	0
29	Single	157	319	1453	6	0	0	1199896	692	0	correct_rejection	NA	0
29	Single	158	320	1454	6	0	0	1200604	692	0	correct_rejection	NA	0
29	Single	159	321	1455	4	0	0	1201313	692	0	correct_rejection	NA	0
29	Single	160	322	1456	9	0	0	1202022	691	0	correct_rejection	NA	0
29	Single	161	323	1457	9	0	0	1202730	692	0	correct_rejection	NA	0
29	Single	162	324	1458	4	0	0	1203439	691	0	correct_rejection	NA	0
29	Correct	1	163	1459	4	0	0	1211841	692	0	correct_rejection	NA	6489
29	Correct	2	164	1460	5	0	0	1212550	692	0	correct_rejection	NA	0
29	Correct	3	165	1461	6	0	0	1213259	691	0	correct_rejection	NA	0
29	Correct	4	166	1462	4	0	0	1213967	692	0	correct_rejection	NA	0
29	Correct	5	167	1463	5	0	0	1214676	691	0	correct_rejection	NA	0
29	Correct	6	168	1464	6	0	0	1215384	692	0	correct_rejection	NA	0
29	Correct	7	169	1465	4	0	0	1216093	692	0	correct_rejection	NA	0
29	Correct	8	170	1466	0	1	1	1216801	692	1	hit	504	0
29	Correct	9	171	1467	5	0	0	1217510	692	0	correct_rejection	NA	0
29	Correct	10	172	1468	6	0	0	1218219	691	0	correct_rejection	NA	0
29	Correct	11	173	1469	6	0	0	1218927	692	0	correct_rejection	NA	0
29	Correct	12	174	1470	5	0	0	1219636	691	0	correct_rejection	NA	0
29	Correct	13	175	1471	4	0	0	1220344	692	0	correct_rejection	NA	0
29	Correct	14	176	1472	0	1	2	1221053	692	1	hit	427	0
29	Correct	15	177	1473	6	0	0	1221761	692	0	correct_rejection	NA	0
29	Correct	16	178	1474	5	0	0	1222470	692	0	correct_rejection	NA	0
29	Correct	17	179	1475	4	0	0	1223179	691	0	correct_rejection	NA	0
29	Correct	18	180	1476	6	0	0	1223887	692	0	correct_rejection	NA	0
29	Correct	19	181	1477	5	0	0	1224596	691	0	correct_rejection	NA	0
29	Correct	20	182	1478	4	0	0	1225304	692	0	correct_rejection	NA	0
29	Correct	21	183	1479	0	1	3	1226013	691	1	hit	366	0
29	Correct	22	184	1480	9	0	0	1226721	692	0	correct_rejection	NA	0
29	Correct	23	185	1481	8	0	0	1227430	692	0	correct_rejection	NA	0
29	Correct	24	186	1482	7	0	0	1228138	692	0	correct_rejection	NA	0
29	Correct	25	187	1483	0	1	2	1228847	692	1	hit	605	0
29	Correct	26	188	1484	9	0	0	1229556	691	0	correct_rejection	NA	0
29	Correct	27	189	1485	8	0	0	1230264	692	0	correct_rejection	NA	0
29	Correct	28	190	1486	0	1	1	1230973	691	1	hit	394	0
29	Correct	29	191	1487	7	0	0	1231681	692	0	correct_rejection	NA	0
29	Correct	30	192	1488	9	0	0	1232390	692	0	correct_rejection	NA	0
29	Correct	31	193	1489	8	0	0	1233098	692	0	correct_rejection	NA	0
29	Correct	32	194	1490	7	0	0	1233807	692	0	correct_rejection	NA	0
29	Correct	33	195	1491	0	1	3	1234516	691	1	hit	357	0
29	Correct	34	196	1492	7	0	0	1235224	692	0	correct_rejection	NA	0
29	Correct	35	197	1493	8	0	0	1235933	691	0	correct_rejection	NA	0
29	Correct	36	198	1494	9	0	0	1236641	692	0	correct_rejection	NA	0
29	Correct	37	199	1495	7	0	0	1237350	692	0	correct_rejection	NA	0
29	Correct	38	200	1496	8	0	0	1238058	692	0	correct_rejection	NA	0
29	Correct	39	201	1497	9	0	0	1238767	692	0	correct_rejection	NA	0
29	Correct	40	202	1498	7	0	0	1239476	691	0	correct_rejection	NA	0
29	Correct	41	203	1499	8	0	0	1240184	692	0	correct_rejection	NA	0
29	Correct	42	204	1500	9	0	0	1240893	691	0	correct_rejection	NA	0
29	Correct	43	205	1501	4	0	0	1241601	692	0	correct_rejection	NA	0
29	Correct	44	206	1502	5	0	0	1242310	692	0	correct_rejection	NA	0
29	Correct	45	207	1503	6	0	0	1243018	692	0	correct_rejection	NA	0
29	Correct	46	208	1504	4	0	0	1243727	692	0	correct_rejection	NA	0
29	Correct	47	209	1505	5	0	0	1244436	691	0	correct_rejection	NA	0
29	Correct	48	210	1506	6	0	0	1245144	692	0	correct_rejection	NA	0
29	Correct	49	211	1507	4	0	0	1245853	691	0	correct_rejection	NA	0
29	Correct	50	212	1508	5	0	0	1246561	692	0	correct_rejection	NA	0
29	Correct	51	213	1509	6	0	0	1247270	691	0	correct_rejection	NA	0
29	Correct	52	214	1510	6	0	0	1247978	692	0	correct_rejection	NA	0
29	Correct	53	215	1511	5	0	0	1248687	692	0	correct_rejection	NA	0
29	Correct	54	216	1512	4	0	0	1249396	691	0	correct_rejection	NA	0
29	Correct	55	217	1513	6	0	0	1250104	692	0	correct_rejection	NA	0
29	Correct	56	218	1514	5	0	0	1250813	691	0	correct_rejection	NA	0
29	Correct	57	219	1515	4	0	0	1251521	692	0	correct_rejection	NA	0
29	Correct	58	220	1516	6	0	0	1252230	691	0	correct_rejection	NA	0
29	Correct	59	221	1517	5	0	0	1252938	692	0	correct_rejection	NA	0
29	Correct	60	222	1518	0	1	1	1253647	692	1	hit	352	0
29	Correct	61	223	1519	4	0	0	1254355	692	0	correct_rejection	NA	0
29	Correct	62	224	1520	9	0	0	1255064	692	0	correct_rejection	NA	0
29	Correct	63	225	1521	0	1	1	1255773	691	0	miss	NA	0
29	Correct	64	226	1522	8	0	0	1256481	692	0	correct_rejection	NA	0
29	Correct	65	227	1523	7	0	0	1257190	691	0	correct_rejection	NA	0
29	Correct	66	228	1524	9	0	0	1257898	692	0	correct_rejection	NA	0
29	Correct	67	229	1525	8	0	0	1258607	692	0	correct_rejection	NA	0
29	Correct	68	230	1526	7	0	0	1259315	692	0	correct_rejection	NA	0
29	Correct	69	231	1527	9	0	0	1260024	692	0	correct_rejection	NA	0
29	Correct	70	232	1528	8	0	0	1260733	691	0	correct_rejection	NA	0
29	Correct	71	233	1529	7	0	0	1261441	692	0	correct_rejection	NA	0
29	Correct	72	234	1530	7	0	0	1262150	691	0	correct_rejection	NA	0
29	Correct	73	235	1531	8	0	0	1262858	692	0	correct_rejection	NA	0
29	Correct	74	236	1532	0	1	1	1263567	692	1	hit	402	0
29	Correct	75	237	1533	9	0	0	1264275	692	0	correct_rejection	NA	0
29	Correct	76	238	1534	7	0	0	1264984	692	0	correct_rejection	NA	0
29	Correct	77	239	1535	0	1	1	1265693	691	1	hit	414	0
29	Correct	78	240	1536	8	0	0	1266401	692	0	correct_rejection	NA	0
29	Correct	79	241	1537	9	0	0	1267110	691	0	correct_rejection	NA	0
29	Correct	80	242	1538	7	0	0	1267818	692	0	correct_rejection	NA	0
29	Correct	81	243	1539	0	1	1	1268527	692	1	hit	386	0
29	Correct	82	244	1540	8	0	0	1269235	692	0	correct_rejection	NA	0
29	Correct	83	245	1541	9	0	0	1269944	692	0	correct_rejection	NA	0
29	Correct	84	246	1542	4	0	0	1270653	691	0	correct_rejection	NA	0
29	Correct	85	247	1543	5	0	0	1271361	692	0	correct_rejection	NA	0
29	Correct	86	248	1544	6	0	0	1272070	691	0	correct_rejection	NA	0
29	Correct	87	249	1545	0	1	2	1272778	692	1	hit	387	0
29	Correct	88	250	1546	4	0	0	1273487	691	0	correct_rejection	NA	0
29	Correct	89	251	1547	5	0	0	1274195	692	0	correct_rejection	NA	0
29	Correct	90	252	1548	6	0	0	1274904	692	0	correct_rejection	NA	0
29	Correct	91	253	1549	4	0	0	1275612	692	0	correct_rejection	NA	0
29	Correct	92	254	1550	5	0	0	1276321	692	0	correct_rejection	NA	0
29	Correct	93	255	1551	6	0	0	1277030	691	0	correct_rejection	NA	0
29	Correct	94	256	1552	6	0	0	1277738	692	0	correct_rejection	NA	0
29	Correct	95	257	1553	0	1	1	1278447	691	1	hit	637	0
29	Correct	96	258	1554	5	0	0	1279155	692	0	correct_rejection	NA	0
29	Correct	97	259	1555	4	0	0	1279864	692	0	correct_rejection	NA	0
29	Correct	98	260	1556	6	0	0	1280572	692	0	correct_rejection	NA	0
29	Correct	99	261	1557	5	0	0	1281281	692	0	correct_rejection	NA	0
29	Correct	100	262	1558	4	0	0	1281990	691	0	correct_rejection	NA	0
29	Correct	101	263	1559	6	0	0	1282698	692	0	correct_rejection	NA	0
29	Correct	102	264	1560	5	0	0	1283407	691	0	correct_rejection	NA	0
29	Correct	103	265	1561	4	0	0	1284115	692	0	correct_rejection	NA	0
29	Correct	104	266	1562	9	0	0	1284824	692	0	correct_rejection	NA	0
29	Correct	105	267	1563	8	0	0	1285532	692	0	correct_rejection	NA	0
29	Correct	106	268	1564	7	0	0	1286241	692	0	correct_rejection	NA	0
29	Correct	107	269	1565	9	0	0	1286950	691	0	correct_rejection	NA	0
29	Correct	108	270	1566	8	0	0	1287658	692	0	correct_rejection	NA	0
29	Correct	109	271	1567	7	0	0	1288367	691	0	correct_rejection	NA	0
29	Correct	110	272	1568	9	0	0	1289075	692	0	correct_rejection	NA	0
29	Correct	111	273	1569	8	0	0	1289784	692	0	correct_rejection	NA	0
29	Correct	112	274	1570	7	0	0	1290492	692	0	correct_rejection	NA	0
29	Correct	113	275	1571	7	0	0	1291201	692	0	correct_rejection	NA	0
29	Correct	114	276	1572	8	0	0	1291910	691	0	correct_rejection	NA	0
29	Correct	115	277	1573	0	1	1	1292618	692	1	hit	398	0
29	Correct	116	278	1574	9	0	0	1293327	691	0	correct_rejection	NA	0
29	Correct	117	279	1575	7	0	0	1294035	692	0	correct_rejection	NA	0
29	Correct	118	280	1576	8	0	0	1294744	692	0	correct_rejection	NA	0
29	Correct	119	281	1577	9	0	0	1295452	692	0	correct_rejection	NA	0
29	Correct	120	282	1578	0	1	2	1296161	692	1	hit	452	0
29	Correct	121	283	1579	7	0	0	1296870	691	0	correct_rejection	NA	0
29	Correct	122	284	1580	8	0	0	1297578	692	0	correct_rejection	NA	0
29	Correct	123	285	1581	9	0	0	1298287	691	0	correct_rejection	NA	0
29	Correct	124	286	1582	4	0	0	1298995	692	0	correct_rejection	NA	0
29	Correct	125	287	1583	5	0	0	1299704	691	0	correct_rejection	NA	0
29	Correct	126	288	1584	0	1	1	1300412	692	1	hit	371	0
29	Correct	127	289	1585	6	0	0	1301121	692	0	correct_rejection	NA	0
29	Correct	128	290	1586	4	0	0	1301829	692	0	correct_rejection	NA	0
29	Correct	129	291	1587	5	0	0	1302538	692	0	correct_rejection	NA	0
29	Correct	130	292	1588	6	0	0	1303247	691	0	correct_rejection	NA	0
29	Correct	131	293	1589	4	0	0	1303955	692	0	correct_rejection	NA	0
29	Correct	132	294	1590	5	0	0	1304664	691	0	correct_rejection	NA	0
29	Correct	133	295	1591	6	0	0	1305372	692	0	correct_rejection	NA	0
29	Correct	134	296	1592	6	0	0	1306081	692	0	correct_rejection	NA	0
29	Correct	135	297	1593	5	0	0	1306789	692	0	correct_rejection	NA	0
29	Correct	136	298	1594	4	0	0	1307498	692	0	correct_rejection	NA	0
29	Correct	137	299	1595	6	0	0	1308207	691	0	correct_rejection	NA	0
