ID	block	trial_block	trial_cat	trial_total	number	violation	level_violation	onset	duration	Response	Hit_Miss	RT	pre_trial_fixcross_ISI
first_trigger_at: 11275
trigger nr 3 at 13275
30	Triplet	1	163	1	6	0	0	21249	684	0	correct_rejection	NA	7907
30	Triplet	2	164	2	5	0	0	21966	683	0	correct_rejection	NA	0
30	Triplet	3	165	3	4	0	0	22683	683	0	correct_rejection	NA	0
30	Triplet	4	166	4	0	1	2	23399	684	1	hit	384	0
30	Triplet	5	167	5	6	0	0	24116	683	0	correct_rejection	NA	0
30	Triplet	6	168	6	5	0	0	24832	684	0	correct_rejection	NA	0
30	Triplet	7	169	7	0	1	1	25549	683	1	hit	425	0
30	Triplet	8	170	8	4	0	0	26266	683	0	correct_rejection	NA	0
30	Triplet	9	171	9	4	0	0	26982	684	0	correct_rejection	NA	0
30	Triplet	10	172	10	5	0	0	27699	683	0	correct_rejection	NA	0
30	Triplet	11	173	11	0	1	1	28416	683	1	hit	477	0
30	Triplet	12	174	12	6	0	0	29132	684	0	correct_rejection	NA	0
30	Triplet	13	175	13	9	0	0	29849	683	0	correct_rejection	NA	0
30	Triplet	14	176	14	8	0	0	30566	683	0	correct_rejection	NA	0
30	Triplet	15	177	15	7	0	0	31282	684	0	correct_rejection	NA	0
30	Triplet	16	178	16	6	0	0	31999	683	0	correct_rejection	NA	0
30	Triplet	17	179	17	0	1	1	32716	683	1	hit	366	0
30	Triplet	18	180	18	5	0	0	33432	684	0	correct_rejection	NA	0
30	Triplet	19	181	19	4	0	0	34149	683	0	correct_rejection	NA	0
30	Triplet	20	182	20	9	0	0	34866	683	0	correct_rejection	NA	0
30	Triplet	21	183	21	8	0	0	35582	684	0	correct_rejection	NA	0
30	Triplet	22	184	22	7	0	0	36299	683	0	correct_rejection	NA	0
30	Triplet	23	185	23	0	1	2	37016	683	1	hit	393	0
30	Triplet	24	186	24	7	0	0	37732	684	0	correct_rejection	NA	0
30	Triplet	25	187	25	8	0	0	38449	683	0	correct_rejection	NA	0
30	Triplet	26	188	26	9	0	0	39166	683	0	correct_rejection	NA	0
30	Triplet	27	189	27	6	0	0	39882	684	0	correct_rejection	NA	0
30	Triplet	28	190	28	5	0	0	40599	683	0	correct_rejection	NA	0
30	Triplet	29	191	29	0	1	1	41316	683	1	hit	360	0
30	Triplet	30	192	30	4	0	0	42032	684	0	correct_rejection	NA	0
30	Triplet	31	193	31	7	0	0	42749	683	0	correct_rejection	NA	0
30	Triplet	32	194	32	8	0	0	43466	683	0	correct_rejection	NA	0
30	Triplet	33	195	33	9	0	0	44182	684	0	correct_rejection	NA	0
30	Triplet	34	196	34	7	0	0	44899	683	0	correct_rejection	NA	0
30	Triplet	35	197	35	8	0	0	45616	683	0	correct_rejection	NA	0
30	Triplet	36	198	36	9	0	0	46332	684	0	correct_rejection	NA	0
30	Triplet	37	199	37	9	0	0	47049	683	0	correct_rejection	NA	0
30	Triplet	38	200	38	8	0	0	47766	683	0	correct_rejection	NA	0
30	Triplet	39	201	39	7	0	0	48482	684	0	correct_rejection	NA	0
30	Triplet	40	202	40	9	0	0	49199	683	0	correct_rejection	NA	0
30	Triplet	41	203	41	8	0	0	49915	684	0	correct_rejection	NA	0
30	Triplet	42	204	42	0	1	1	50632	683	1	hit	565	0
30	Triplet	43	205	43	7	0	0	51349	683	0	correct_rejection	NA	0
30	Triplet	44	206	44	4	0	0	52065	684	0	correct_rejection	NA	0
30	Triplet	45	207	45	5	0	0	52782	683	0	correct_rejection	NA	0
30	Triplet	46	208	46	6	0	0	53499	683	0	correct_rejection	NA	0
30	Triplet	47	209	47	4	0	0	54215	684	0	correct_rejection	NA	0
30	Triplet	48	210	48	5	0	0	54932	683	0	correct_rejection	NA	0
30	Triplet	49	211	49	6	0	0	55649	683	0	correct_rejection	NA	0
30	Triplet	50	212	50	7	0	0	56365	684	0	correct_rejection	NA	0
30	Triplet	51	213	51	8	0	0	57082	683	0	correct_rejection	NA	0
30	Triplet	52	214	52	9	0	0	57799	683	0	correct_rejection	NA	0
30	Triplet	53	215	53	4	0	0	58515	684	0	correct_rejection	NA	0
30	Triplet	54	216	54	5	0	0	59232	683	0	correct_rejection	NA	0
30	Triplet	55	217	55	6	0	0	59949	683	0	correct_rejection	NA	0
30	Triplet	56	218	56	7	0	0	60665	684	0	correct_rejection	NA	0
30	Triplet	57	219	57	0	1	1	61382	683	1	hit	446	0
30	Triplet	58	220	58	8	0	0	62099	683	0	correct_rejection	NA	0
30	Triplet	59	221	59	9	0	0	62815	684	0	correct_rejection	NA	0
30	Triplet	60	222	60	0	1	2	63532	683	1	hit	527	0
30	Triplet	61	223	61	6	0	0	64249	683	0	correct_rejection	NA	0
30	Triplet	62	224	62	5	0	0	64965	684	0	correct_rejection	NA	0
30	Triplet	63	225	63	4	0	0	65682	683	0	correct_rejection	NA	0
30	Triplet	64	226	64	6	0	0	66399	683	0	correct_rejection	NA	0
30	Triplet	65	227	65	5	0	0	67115	684	0	correct_rejection	NA	0
30	Triplet	66	228	66	4	0	0	67832	683	0	correct_rejection	NA	0
30	Triplet	67	229	67	9	0	0	68549	683	0	correct_rejection	NA	0
30	Triplet	68	230	68	8	0	0	69265	684	0	correct_rejection	NA	0
30	Triplet	69	231	69	7	0	0	69982	683	0	correct_rejection	NA	0
30	Triplet	70	232	70	4	0	0	70699	683	0	correct_rejection	NA	0
30	Triplet	71	233	71	0	1	1	71415	684	1	hit	597	0
30	Triplet	72	234	72	5	0	0	72132	683	0	correct_rejection	NA	0
30	Triplet	73	235	73	6	0	0	72849	683	0	correct_rejection	NA	0
30	Triplet	74	236	74	7	0	0	73565	684	0	correct_rejection	NA	0
30	Triplet	75	237	75	8	0	0	74282	683	0	correct_rejection	NA	0
30	Triplet	76	238	76	9	0	0	74998	684	0	correct_rejection	NA	0
30	Triplet	77	239	77	7	0	0	75715	683	0	correct_rejection	NA	0
30	Triplet	78	240	78	8	0	0	76432	683	0	correct_rejection	NA	0
30	Triplet	79	241	79	9	0	0	77148	684	0	correct_rejection	NA	0
30	Triplet	80	242	80	4	0	0	77865	683	0	correct_rejection	NA	0
30	Triplet	81	243	81	5	0	0	78582	683	0	correct_rejection	NA	0
30	Triplet	82	244	82	6	0	0	79298	684	0	correct_rejection	NA	0
30	Triplet	83	245	83	6	0	0	80015	683	0	correct_rejection	NA	0
30	Triplet	84	246	84	5	0	0	80732	683	0	correct_rejection	NA	0
30	Triplet	85	247	85	4	0	0	81448	684	0	correct_rejection	NA	0
30	Triplet	86	248	86	7	0	0	82165	683	0	correct_rejection	NA	0
30	Triplet	87	249	87	8	0	0	82882	683	0	correct_rejection	NA	0
30	Triplet	88	250	88	9	0	0	83598	684	0	correct_rejection	NA	0
30	Triplet	89	251	89	9	0	0	84315	683	0	correct_rejection	NA	0
30	Triplet	90	252	90	8	0	0	85032	683	0	correct_rejection	NA	0
30	Triplet	91	253	91	7	0	0	85748	684	0	correct_rejection	NA	0
30	Triplet	92	254	92	6	0	0	86465	683	0	correct_rejection	NA	0
30	Triplet	93	255	93	5	0	0	87182	683	0	correct_rejection	NA	0
30	Triplet	94	256	94	4	0	0	87898	684	0	correct_rejection	NA	0
30	Triplet	95	257	95	4	0	0	88615	683	0	correct_rejection	NA	0
30	Triplet	96	258	96	5	0	0	89332	683	0	correct_rejection	NA	0
30	Triplet	97	259	97	6	0	0	90048	684	0	correct_rejection	NA	0
30	Triplet	98	260	98	4	0	0	90765	683	0	correct_rejection	NA	0
30	Triplet	99	261	99	5	0	0	91482	683	0	correct_rejection	NA	0
30	Triplet	100	262	100	6	0	0	92198	684	0	correct_rejection	NA	0
30	Triplet	101	263	101	9	0	0	92915	683	0	correct_rejection	NA	0
30	Triplet	102	264	102	8	0	0	93632	683	0	correct_rejection	NA	0
30	Triplet	103	265	103	7	0	0	94348	684	0	correct_rejection	NA	0
30	Triplet	104	266	104	0	1	2	95065	683	1	hit	523	0
30	Triplet	105	267	105	9	0	0	95782	683	0	correct_rejection	NA	0
30	Triplet	106	268	106	8	0	0	96498	684	0	correct_rejection	NA	0
30	Triplet	107	269	107	7	0	0	97215	683	0	correct_rejection	NA	0
30	Triplet	108	270	108	4	0	0	97932	683	0	correct_rejection	NA	0
30	Triplet	109	271	109	5	0	0	98648	684	0	correct_rejection	NA	0
30	Triplet	110	272	110	6	0	0	99365	683	0	correct_rejection	NA	0
30	Triplet	111	273	111	4	0	0	100081	684	0	correct_rejection	NA	0
30	Triplet	112	274	112	5	0	0	100798	683	0	correct_rejection	NA	0
30	Triplet	113	275	113	6	0	0	101515	683	0	correct_rejection	NA	0
30	Triplet	114	276	114	6	0	0	102231	684	0	correct_rejection	NA	0
30	Triplet	115	277	115	0	1	1	102948	683	1	hit	459	0
30	Triplet	116	278	116	5	0	0	103665	683	0	correct_rejection	NA	0
30	Triplet	117	279	117	4	0	0	104381	684	0	correct_rejection	NA	0
30	Triplet	118	280	118	9	0	0	105098	683	0	correct_rejection	NA	0
30	Triplet	119	281	119	8	0	0	105815	683	0	correct_rejection	NA	0
30	Triplet	120	282	120	0	1	1	106531	684	1	hit	434	0
30	Triplet	121	283	121	7	0	0	107248	683	0	correct_rejection	NA	0
30	Triplet	122	284	122	9	0	0	107965	683	0	correct_rejection	NA	0
30	Triplet	123	285	123	0	1	1	108681	684	1	hit	450	0
30	Triplet	124	286	124	8	0	0	109398	683	0	correct_rejection	NA	0
30	Triplet	125	287	125	7	0	0	110115	683	0	correct_rejection	NA	0
30	Triplet	126	288	126	6	0	0	110831	684	0	correct_rejection	NA	0
30	Triplet	127	289	127	5	0	0	111548	683	0	correct_rejection	NA	0
30	Triplet	128	290	128	4	0	0	112265	683	0	correct_rejection	NA	0
30	Triplet	129	291	129	6	0	0	112981	684	0	correct_rejection	NA	0
30	Triplet	130	292	130	5	0	0	113698	683	0	correct_rejection	NA	0
30	Triplet	131	293	131	4	0	0	114415	683	0	correct_rejection	NA	0
30	Triplet	132	294	132	7	0	0	115131	684	0	correct_rejection	NA	0
30	Triplet	133	295	133	0	1	1	115848	683	1	hit	648	0
30	Triplet	134	296	134	8	0	0	116565	683	0	correct_rejection	NA	0
30	Triplet	135	297	135	9	0	0	117281	684	0	correct_rejection	NA	0
30	Triplet	136	298	136	4	0	0	117998	683	0	correct_rejection	NA	0
30	Triplet	137	299	137	5	0	0	118715	683	0	correct_rejection	NA	0
30	Triplet	138	300	138	6	0	0	119431	684	0	correct_rejection	NA	0
30	Triplet	139	301	139	7	0	0	120148	683	0	correct_rejection	NA	0
30	Triplet	140	302	140	8	0	0	120865	683	0	correct_rejection	NA	0
30	Triplet	141	303	141	0	1	1	121581	684	1	hit	449	0
30	Triplet	142	304	142	9	0	0	122298	683	0	correct_rejection	NA	0
30	Triplet	143	305	143	9	0	0	123015	683	0	correct_rejection	NA	0
30	Triplet	144	306	144	8	0	0	123731	684	0	correct_rejection	NA	0
30	Triplet	145	307	145	7	0	0	124448	683	0	correct_rejection	NA	0
30	Triplet	146	308	146	4	0	0	125164	684	0	correct_rejection	NA	0
30	Triplet	147	309	147	5	0	0	125881	684	0	correct_rejection	NA	0
30	Triplet	148	310	148	6	0	0	126598	683	0	correct_rejection	NA	0
30	Triplet	149	311	149	9	0	0	127314	684	0	correct_rejection	NA	0
30	Triplet	150	312	150	0	1	1	128031	683	1	hit	566	0
30	Triplet	151	313	151	8	0	0	128748	683	0	correct_rejection	NA	0
30	Triplet	152	314	152	7	0	0	129464	684	0	correct_rejection	NA	0
30	Triplet	153	315	153	7	0	0	130181	683	0	correct_rejection	NA	0
30	Triplet	154	316	154	8	0	0	130898	683	0	correct_rejection	NA	0
30	Triplet	155	317	155	9	0	0	131614	684	0	correct_rejection	NA	0
30	Triplet	156	318	156	7	0	0	132331	683	0	correct_rejection	NA	0
30	Triplet	157	319	157	0	1	1	133048	683	1	hit	422	0
30	Triplet	158	320	158	8	0	0	133764	684	0	correct_rejection	NA	0
30	Triplet	159	321	159	9	0	0	134481	683	0	correct_rejection	NA	0
30	Triplet	160	322	160	6	0	0	135198	683	0	correct_rejection	NA	0
30	Triplet	161	323	161	5	0	0	135914	684	0	correct_rejection	NA	0
30	Triplet	162	324	162	4	0	0	136631	683	0	correct_rejection	NA	0
30	Nonet	1	325	163	4	0	0	146881	683	0	correct_rejection	NA	7537
30	Nonet	2	326	164	5	0	0	147598	683	0	correct_rejection	NA	0
30	Nonet	3	327	165	6	0	0	148314	684	0	correct_rejection	NA	0
30	Nonet	4	328	166	4	0	0	149031	683	0	correct_rejection	NA	0
30	Nonet	5	329	167	5	0	0	149748	683	0	correct_rejection	NA	0
30	Nonet	6	330	168	6	0	0	150464	684	0	correct_rejection	NA	0
30	Nonet	7	331	169	0	1	2	151181	683	1	hit	523	0
30	Nonet	8	332	170	4	0	0	151897	684	0	correct_rejection	NA	0
30	Nonet	9	333	171	5	0	0	152614	683	0	correct_rejection	NA	0
30	Nonet	10	334	172	6	0	0	153331	683	0	correct_rejection	NA	0
30	Nonet	11	335	173	6	0	0	154047	684	0	correct_rejection	NA	0
30	Nonet	12	336	174	0	1	1	154764	683	1	hit	589	0
30	Nonet	13	337	175	5	0	0	155481	683	0	correct_rejection	NA	0
30	Nonet	14	338	176	4	0	0	156197	684	0	correct_rejection	NA	0
30	Nonet	15	339	177	6	0	0	156914	683	0	correct_rejection	NA	0
30	Nonet	16	340	178	5	0	0	157631	683	0	correct_rejection	NA	0
30	Nonet	17	341	179	4	0	0	158347	684	0	correct_rejection	NA	0
30	Nonet	18	342	180	6	0	0	159064	683	0	correct_rejection	NA	0
30	Nonet	19	343	181	5	0	0	159781	683	0	correct_rejection	NA	0
30	Nonet	20	344	182	4	0	0	160497	684	0	correct_rejection	NA	0
30	Nonet	21	345	183	4	0	0	161214	683	0	correct_rejection	NA	0
30	Nonet	22	346	184	5	0	0	161931	683	0	correct_rejection	NA	0
30	Nonet	23	347	185	6	0	0	162647	684	0	correct_rejection	NA	0
30	Nonet	24	348	186	4	0	0	163364	683	0	correct_rejection	NA	0
30	Nonet	25	349	187	0	1	1	164081	683	1	hit	420	0
30	Nonet	26	350	188	5	0	0	164797	684	0	correct_rejection	NA	0
30	Nonet	27	351	189	6	0	0	165514	683	0	correct_rejection	NA	0
30	Nonet	28	352	190	4	0	0	166231	683	0	correct_rejection	NA	0
30	Nonet	29	353	191	5	0	0	166947	684	0	correct_rejection	NA	0
30	Nonet	30	354	192	6	0	0	167664	683	0	correct_rejection	NA	0
30	Nonet	31	355	193	9	0	0	168381	683	0	correct_rejection	NA	0
30	Nonet	32	356	194	8	0	0	169097	684	0	correct_rejection	NA	0
30	Nonet	33	357	195	7	0	0	169814	683	0	correct_rejection	NA	0
30	Nonet	34	358	196	9	0	0	170531	683	0	correct_rejection	NA	0
30	Nonet	35	359	197	8	0	0	171247	684	0	correct_rejection	NA	0
30	Nonet	36	360	198	7	0	0	171964	683	0	correct_rejection	NA	0
30	Nonet	37	361	199	9	0	0	172681	683	0	correct_rejection	NA	0
30	Nonet	38	362	200	8	0	0	173397	684	0	correct_rejection	NA	0
30	Nonet	39	363	201	7	0	0	174114	683	0	correct_rejection	NA	0
30	Nonet	40	364	202	4	0	0	174830	684	0	correct_rejection	NA	0
30	Nonet	41	365	203	5	0	0	175547	684	0	correct_rejection	NA	0
30	Nonet	42	366	204	6	0	0	176264	683	0	correct_rejection	NA	0
30	Nonet	43	367	205	4	0	0	176980	684	0	correct_rejection	NA	0
30	Nonet	44	368	206	5	0	0	177697	683	0	correct_rejection	NA	0
30	Nonet	45	369	207	0	1	1	178414	683	1	hit	602	0
30	Nonet	46	370	208	6	0	0	179130	684	0	correct_rejection	NA	0
30	Nonet	47	371	209	4	0	0	179847	683	0	correct_rejection	NA	0
30	Nonet	48	372	210	5	0	0	180564	683	0	correct_rejection	NA	0
30	Nonet	49	373	211	6	0	0	181280	684	0	correct_rejection	NA	0
30	Nonet	50	374	212	7	0	0	181997	683	0	correct_rejection	NA	0
30	Nonet	51	375	213	0	1	1	182714	683	1	hit	535	0
30	Nonet	52	376	214	8	0	0	183430	684	0	correct_rejection	NA	0
30	Nonet	53	377	215	9	0	0	184147	683	0	correct_rejection	NA	0
30	Nonet	54	378	216	7	0	0	184864	683	0	correct_rejection	NA	0
30	Nonet	55	379	217	8	0	0	185580	684	0	correct_rejection	NA	0
30	Nonet	56	380	218	9	0	0	186297	683	0	correct_rejection	NA	0
30	Nonet	57	381	219	7	0	0	187014	683	0	correct_rejection	NA	0
30	Nonet	58	382	220	8	0	0	187730	684	0	correct_rejection	NA	0
30	Nonet	59	383	221	9	0	0	188447	683	0	correct_rejection	NA	0
30	Nonet	60	384	222	9	0	0	189164	683	0	correct_rejection	NA	0
30	Nonet	61	385	223	8	0	0	189880	684	0	correct_rejection	NA	0
30	Nonet	62	386	224	7	0	0	190597	683	0	correct_rejection	NA	0
30	Nonet	63	387	225	9	0	0	191314	683	0	correct_rejection	NA	0
30	Nonet	64	388	226	8	0	0	192030	684	0	correct_rejection	NA	0
30	Nonet	65	389	227	0	1	1	192747	683	1	hit	467	0
30	Nonet	66	390	228	7	0	0	193464	683	0	correct_rejection	NA	0
30	Nonet	67	391	229	9	0	0	194180	684	0	correct_rejection	NA	0
30	Nonet	68	392	230	8	0	0	194897	683	0	correct_rejection	NA	0
30	Nonet	69	393	231	7	0	0	195614	683	0	correct_rejection	NA	0
30	Nonet	70	394	232	0	1	3	196330	684	1	hit	444	0
30	Nonet	71	395	233	9	0	0	197047	683	0	correct_rejection	NA	0
30	Nonet	72	396	234	8	0	0	197764	683	0	correct_rejection	NA	0
30	Nonet	73	397	235	7	0	0	198480	684	0	correct_rejection	NA	0
30	Nonet	74	398	236	9	0	0	199197	683	0	correct_rejection	NA	0
30	Nonet	75	399	237	8	0	0	199913	684	0	correct_rejection	NA	0
30	Nonet	76	400	238	7	0	0	200630	683	0	correct_rejection	NA	0
30	Nonet	77	401	239	9	0	0	201347	683	0	correct_rejection	NA	0
30	Nonet	78	402	240	0	1	1	202063	684	1	hit	574	0
30	Nonet	79	403	241	8	0	0	202780	683	0	correct_rejection	NA	0
30	Nonet	80	404	242	7	0	0	203497	683	0	correct_rejection	NA	0
30	Nonet	81	405	243	6	0	0	204213	684	0	correct_rejection	NA	0
30	Nonet	82	406	244	5	0	0	204930	683	0	correct_rejection	NA	0
30	Nonet	83	407	245	4	0	0	205647	683	0	correct_rejection	NA	0
30	Nonet	84	408	246	0	1	2	206363	684	1	hit	511	0
30	Nonet	85	409	247	6	0	0	207080	683	0	correct_rejection	NA	0
30	Nonet	86	410	248	5	0	0	207797	683	0	correct_rejection	NA	0
30	Nonet	87	411	249	4	0	0	208513	684	0	correct_rejection	NA	0
30	Nonet	88	412	250	6	0	0	209230	683	0	correct_rejection	NA	0
30	Nonet	89	413	251	5	0	0	209947	683	0	correct_rejection	NA	0
30	Nonet	90	414	252	4	0	0	210663	684	0	correct_rejection	NA	0
30	Nonet	91	415	253	7	0	0	211380	683	0	correct_rejection	NA	0
30	Nonet	92	416	254	8	0	0	212097	683	0	correct_rejection	NA	0
30	Nonet	93	417	255	9	0	0	212813	684	0	correct_rejection	NA	0
30	Nonet	94	418	256	7	0	0	213530	683	0	correct_rejection	NA	0
30	Nonet	95	419	257	8	0	0	214247	683	0	correct_rejection	NA	0
30	Nonet	96	420	258	9	0	0	214963	684	0	correct_rejection	NA	0
30	Nonet	97	421	259	7	0	0	215680	683	0	correct_rejection	NA	0
30	Nonet	98	422	260	8	0	0	216397	683	0	correct_rejection	NA	0
30	Nonet	99	423	261	9	0	0	217113	684	0	correct_rejection	NA	0
30	Nonet	100	424	262	6	0	0	217830	683	0	correct_rejection	NA	0
30	Nonet	101	425	263	0	1	1	218547	683	1	hit	397	0
30	Nonet	102	426	264	5	0	0	219263	684	0	correct_rejection	NA	0
30	Nonet	103	427	265	4	0	0	219980	683	0	correct_rejection	NA	0
30	Nonet	104	428	266	6	0	0	220697	683	0	correct_rejection	NA	0
30	Nonet	105	429	267	5	0	0	221413	684	0	correct_rejection	NA	0
30	Nonet	106	430	268	4	0	0	222130	683	0	correct_rejection	NA	0
30	Nonet	107	431	269	6	0	0	222847	683	0	correct_rejection	NA	0
30	Nonet	108	432	270	5	0	0	223563	684	0	correct_rejection	NA	0
30	Nonet	109	433	271	4	0	0	224280	683	0	correct_rejection	NA	0
30	Nonet	110	434	272	0	1	3	224996	684	1	hit	424	0
30	Nonet	111	435	273	6	0	0	225713	683	0	correct_rejection	NA	0
30	Nonet	112	436	274	5	0	0	226430	683	0	correct_rejection	NA	0
30	Nonet	113	437	275	0	1	1	227146	684	1	hit	648	0
30	Nonet	114	438	276	4	0	0	227863	683	0	correct_rejection	NA	0
30	Nonet	115	439	277	6	0	0	228580	683	0	correct_rejection	NA	0
30	Nonet	116	440	278	5	0	0	229296	684	0	correct_rejection	NA	0
30	Nonet	117	441	279	4	0	0	230013	683	0	correct_rejection	NA	0
30	Nonet	118	442	280	6	0	0	230730	683	0	correct_rejection	NA	0
30	Nonet	119	443	281	5	0	0	231446	684	0	correct_rejection	NA	0
30	Nonet	120	444	282	4	0	0	232163	683	0	correct_rejection	NA	0
30	Nonet	121	445	283	9	0	0	232880	683	0	correct_rejection	NA	0
30	Nonet	122	446	284	8	0	0	233596	684	0	correct_rejection	NA	0
30	Nonet	123	447	285	0	1	1	234313	683	1	hit	436	0
30	Nonet	124	448	286	7	0	0	235030	683	0	correct_rejection	NA	0
30	Nonet	125	449	287	9	0	0	235746	684	0	correct_rejection	NA	0
30	Nonet	126	450	288	8	0	0	236463	683	0	correct_rejection	NA	0
30	Nonet	127	451	289	7	0	0	237180	683	0	correct_rejection	NA	0
30	Nonet	128	452	290	9	0	0	237896	684	0	correct_rejection	NA	0
30	Nonet	129	453	291	8	0	0	238613	683	0	correct_rejection	NA	0
30	Nonet	130	454	292	7	0	0	239330	683	0	correct_rejection	NA	0
30	Nonet	131	455	293	0	1	3	240046	684	1	hit	439	0
30	Nonet	132	456	294	7	0	0	240763	683	0	correct_rejection	NA	0
30	Nonet	133	457	295	8	0	0	241480	683	0	correct_rejection	NA	0
30	Nonet	134	458	296	9	0	0	242196	684	0	correct_rejection	NA	0
30	Nonet	135	459	297	7	0	0	242913	683	0	correct_rejection	NA	0
30	Nonet	136	460	298	8	0	0	243630	683	0	correct_rejection	NA	0
30	Nonet	137	461	299	0	1	1	244346	684	1	hit	634	0
30	Nonet	138	462	300	9	0	0	245063	683	0	correct_rejection	NA	0
30	Nonet	139	463	301	7	0	0	245780	683	0	correct_rejection	NA	0
30	Nonet	140	464	302	8	0	0	246496	684	0	correct_rejection	NA	0
30	Nonet	141	465	303	9	0	0	247213	683	0	correct_rejection	NA	0
30	Nonet	142	466	304	0	1	3	247930	683	1	hit	447	0
30	Nonet	143	467	305	7	0	0	248646	684	0	correct_rejection	NA	0
30	Nonet	144	468	306	8	0	0	249363	683	0	correct_rejection	NA	0
30	Nonet	145	469	307	9	0	0	250079	684	0	correct_rejection	NA	0
30	Nonet	146	470	308	7	0	0	250796	683	0	correct_rejection	NA	0
30	Nonet	147	471	309	8	0	0	251513	683	0	correct_rejection	NA	0
30	Nonet	148	472	310	9	0	0	252229	684	0	correct_rejection	NA	0
30	Nonet	149	473	311	7	0	0	252946	683	0	correct_rejection	NA	0
30	Nonet	150	474	312	8	0	0	253663	683	0	correct_rejection	NA	0
30	Nonet	151	475	313	9	0	0	254379	684	0	correct_rejection	NA	0
30	Nonet	152	476	314	4	0	0	255096	683	0	correct_rejection	NA	0
30	Nonet	153	477	315	5	0	0	255813	683	0	correct_rejection	NA	0
30	Nonet	154	478	316	0	1	1	256529	684	1	hit	558	0
30	Nonet	155	479	317	6	0	0	257246	683	0	correct_rejection	NA	0
30	Nonet	156	480	318	4	0	0	257963	683	0	correct_rejection	NA	0
30	Nonet	157	481	319	0	1	1	258679	684	1	hit	588	0
30	Nonet	158	482	320	5	0	0	259396	683	0	correct_rejection	NA	0
30	Nonet	159	483	321	6	0	0	260113	683	0	correct_rejection	NA	0
30	Nonet	160	484	322	4	0	0	260829	684	0	correct_rejection	NA	0
30	Nonet	161	485	323	5	0	0	261546	683	0	correct_rejection	NA	0
30	Nonet	162	486	324	6	0	0	262263	683	0	correct_rejection	NA	0
30	Correct	1	487	325	4	0	0	272063	683	0	correct_rejection	NA	7716
30	Correct	2	488	326	5	0	0	272779	684	0	correct_rejection	NA	0
30	Correct	3	489	327	6	0	0	273496	683	0	correct_rejection	NA	0
30	Correct	4	490	328	4	0	0	274212	684	0	correct_rejection	NA	0
30	Correct	5	491	329	0	1	1	274929	683	1	hit	504	0
30	Correct	6	492	330	5	0	0	275646	683	0	correct_rejection	NA	0
30	Correct	7	493	331	6	0	0	276362	684	0	correct_rejection	NA	0
30	Correct	8	494	332	0	1	2	277079	683	1	hit	499	0
30	Correct	9	495	333	4	0	0	277796	683	0	correct_rejection	NA	0
30	Correct	10	496	334	5	0	0	278512	684	0	correct_rejection	NA	0
30	Correct	11	497	335	6	0	0	279229	683	0	correct_rejection	NA	0
30	Correct	12	498	336	6	0	0	279946	683	0	correct_rejection	NA	0
30	Correct	13	499	337	5	0	0	280662	684	0	correct_rejection	NA	0
30	Correct	14	500	338	4	0	0	281379	683	0	correct_rejection	NA	0
30	Correct	15	501	339	0	1	2	282096	683	1	hit	386	0
30	Correct	16	502	340	6	0	0	282812	684	0	correct_rejection	NA	0
30	Correct	17	503	341	5	0	0	283529	683	0	correct_rejection	NA	0
30	Correct	18	504	342	4	0	0	284246	683	0	correct_rejection	NA	0
30	Correct	19	505	343	6	0	0	284962	684	0	correct_rejection	NA	0
30	Correct	20	506	344	0	1	1	285679	683	1	hit	586	0
30	Correct	21	507	345	5	0	0	286396	683	0	correct_rejection	NA	0
30	Correct	22	508	346	4	0	0	287112	684	0	correct_rejection	NA	0
30	Correct	23	509	347	9	0	0	287829	683	0	correct_rejection	NA	0
30	Correct	24	510	348	8	0	0	288546	683	0	correct_rejection	NA	0
30	Correct	25	511	349	7	0	0	289262	684	0	correct_rejection	NA	0
30	Correct	26	512	350	9	0	0	289979	683	0	correct_rejection	NA	0
30	Correct	27	513	351	0	1	1	290696	683	0	miss	NA	0
30	Correct	28	514	352	8	0	0	291412	684	1	false_alarm	281	0
30	Correct	29	515	353	7	0	0	292129	683	0	correct_rejection	NA	0
30	Correct	30	516	354	9	0	0	292846	683	0	correct_rejection	NA	0
30	Correct	31	517	355	8	0	0	293562	684	0	correct_rejection	NA	0
30	Correct	32	518	356	0	1	1	294279	683	1	hit	436	0
30	Correct	33	519	357	7	0	0	294996	683	0	correct_rejection	NA	0
30	Correct	34	520	358	7	0	0	295712	684	0	correct_rejection	NA	0
30	Correct	35	521	359	8	0	0	296429	683	0	correct_rejection	NA	0
30	Correct	36	522	360	9	0	0	297146	683	0	correct_rejection	NA	0
30	Correct	37	523	361	7	0	0	297862	684	0	correct_rejection	NA	0
30	Correct	38	524	362	8	0	0	298579	683	0	correct_rejection	NA	0
30	Correct	39	525	363	9	0	0	299295	684	0	correct_rejection	NA	0
30	Correct	40	526	364	7	0	0	300012	684	0	correct_rejection	NA	0
30	Correct	41	527	365	8	0	0	300729	683	0	correct_rejection	NA	0
30	Correct	42	528	366	9	0	0	301445	684	0	correct_rejection	NA	0
30	Correct	43	529	367	4	0	0	302162	683	0	correct_rejection	NA	0
30	Correct	44	530	368	5	0	0	302879	683	0	correct_rejection	NA	0
30	Correct	45	531	369	6	0	0	303595	684	0	correct_rejection	NA	0
30	Correct	46	532	370	4	0	0	304312	683	0	correct_rejection	NA	0
30	Correct	47	533	371	5	0	0	305029	683	0	correct_rejection	NA	0
30	Correct	48	534	372	6	0	0	305745	684	0	correct_rejection	NA	0
30	Correct	49	535	373	4	0	0	306462	683	0	correct_rejection	NA	0
30	Correct	50	536	374	5	0	0	307179	683	0	correct_rejection	NA	0
30	Correct	51	537	375	0	1	1	307895	684	1	hit	630	0
30	Correct	52	538	376	6	0	0	308612	683	0	correct_rejection	NA	0
30	Correct	53	539	377	6	0	0	309329	683	0	correct_rejection	NA	0
30	Correct	54	540	378	5	0	0	310045	684	0	correct_rejection	NA	0
30	Correct	55	541	379	4	0	0	310762	683	0	correct_rejection	NA	0
30	Correct	56	542	380	6	0	0	311479	683	0	correct_rejection	NA	0
30	Correct	57	543	381	5	0	0	312195	684	0	correct_rejection	NA	0
30	Correct	58	544	382	4	0	0	312912	683	0	correct_rejection	NA	0
30	Correct	59	545	383	0	1	2	313629	683	0	miss	NA	0
30	Correct	60	546	384	6	0	0	314345	684	1	false_alarm	0	0
30	Correct	61	547	385	5	0	0	315062	683	0	correct_rejection	NA	0
30	Correct	62	548	386	0	1	1	315779	683	0	miss	NA	0
30	Correct	63	549	387	4	0	0	316495	684	0	correct_rejection	NA	0
30	Correct	64	550	388	9	0	0	317212	683	0	correct_rejection	NA	0
30	Correct	65	551	389	0	1	1	317929	683	1	hit	532	0
30	Correct	66	552	390	8	0	0	318645	684	0	correct_rejection	NA	0
30	Correct	67	553	391	7	0	0	319362	683	0	correct_rejection	NA	0
30	Correct	68	554	392	9	0	0	320079	683	0	correct_rejection	NA	0
30	Correct	69	555	393	8	0	0	320795	684	0	correct_rejection	NA	0
30	Correct	70	556	394	0	1	1	321512	683	1	hit	455	0
30	Correct	71	557	395	7	0	0	322229	683	0	correct_rejection	NA	0
30	Correct	72	558	396	9	0	0	322945	684	0	correct_rejection	NA	0
30	Correct	73	559	397	8	0	0	323662	683	0	correct_rejection	NA	0
30	Correct	74	560	398	7	0	0	324378	684	0	correct_rejection	NA	0
30	Correct	75	561	399	7	0	0	325095	684	0	correct_rejection	NA	0
30	Correct	76	562	400	8	0	0	325812	683	0	correct_rejection	NA	0
30	Correct	77	563	401	9	0	0	326528	684	0	correct_rejection	NA	0
30	Correct	78	564	402	7	0	0	327245	683	0	correct_rejection	NA	0
30	Correct	79	565	403	8	0	0	327962	683	0	correct_rejection	NA	0
30	Correct	80	566	404	9	0	0	328678	684	0	correct_rejection	NA	0
30	Correct	81	567	405	7	0	0	329395	683	0	correct_rejection	NA	0
30	Correct	82	568	406	8	0	0	330112	683	0	correct_rejection	NA	0
30	Correct	83	569	407	9	0	0	330828	684	0	correct_rejection	NA	0
30	Correct	84	570	408	4	0	0	331545	683	0	correct_rejection	NA	0
30	Correct	85	571	409	5	0	0	332262	683	0	correct_rejection	NA	0
30	Correct	86	572	410	6	0	0	332978	684	0	correct_rejection	NA	0
30	Correct	87	573	411	4	0	0	333695	683	0	correct_rejection	NA	0
30	Correct	88	574	412	5	0	0	334412	683	0	correct_rejection	NA	0
30	Correct	89	575	413	0	1	1	335128	684	1	hit	481	0
30	Correct	90	576	414	6	0	0	335845	683	0	correct_rejection	NA	0
30	Correct	91	577	415	4	0	0	336562	683	0	correct_rejection	NA	0
30	Correct	92	578	416	5	0	0	337278	684	0	correct_rejection	NA	0
30	Correct	93	579	417	6	0	0	337995	683	0	correct_rejection	NA	0
30	Correct	94	580	418	6	0	0	338712	683	0	correct_rejection	NA	0
30	Correct	95	581	419	0	1	1	339428	684	0	miss	NA	0
30	Correct	96	582	420	5	0	0	340145	683	1	false_alarm	289	0
30	Correct	97	583	421	4	0	0	340862	683	0	correct_rejection	NA	0
30	Correct	98	584	422	6	0	0	341578	684	0	correct_rejection	NA	0
30	Correct	99	585	423	5	0	0	342295	683	0	correct_rejection	NA	0
30	Correct	100	586	424	4	0	0	343012	683	0	correct_rejection	NA	0
30	Correct	101	587	425	6	0	0	343728	684	0	correct_rejection	NA	0
30	Correct	102	588	426	5	0	0	344445	683	0	correct_rejection	NA	0
30	Correct	103	589	427	4	0	0	345162	683	0	correct_rejection	NA	0
30	Correct	104	590	428	9	0	0	345878	684	0	correct_rejection	NA	0
30	Correct	105	591	429	8	0	0	346595	683	0	correct_rejection	NA	0
30	Correct	106	592	430	7	0	0	347312	683	0	correct_rejection	NA	0
30	Correct	107	593	431	9	0	0	348028	684	0	correct_rejection	NA	0
30	Correct	108	594	432	8	0	0	348745	683	0	correct_rejection	NA	0
30	Correct	109	595	433	7	0	0	349462	683	0	correct_rejection	NA	0
30	Correct	110	596	434	9	0	0	350178	683	0	correct_rejection	NA	0
30	Correct	111	597	435	8	0	0	350895	683	0	correct_rejection	NA	0
30	Correct	112	598	436	7	0	0	351611	684	0	correct_rejection	NA	0
30	Correct	113	599	437	7	0	0	352328	683	0	correct_rejection	NA	0
30	Correct	114	600	438	8	0	0	353045	683	0	correct_rejection	NA	0
30	Correct	115	601	439	0	1	1	353761	684	1	hit	558	0
30	Correct	116	602	440	9	0	0	354478	683	0	correct_rejection	NA	0
30	Correct	117	603	441	7	0	0	355195	683	0	correct_rejection	NA	0
30	Correct	118	604	442	8	0	0	355911	684	0	correct_rejection	NA	0
30	Correct	119	605	443	9	0	0	356628	683	0	correct_rejection	NA	0
30	Correct	120	606	444	7	0	0	357345	683	0	correct_rejection	NA	0
30	Correct	121	607	445	8	0	0	358061	684	0	correct_rejection	NA	0
30	Correct	122	608	446	9	0	0	358778	683	0	correct_rejection	NA	0
30	Correct	123	609	447	0	1	4	359495	683	1	hit	626	0
30	Correct	124	610	448	4	0	0	360211	684	0	correct_rejection	NA	0
30	Correct	125	611	449	5	0	0	360928	683	0	correct_rejection	NA	0
30	Correct	126	612	450	6	0	0	361645	683	0	correct_rejection	NA	0
30	Correct	127	613	451	4	0	0	362361	684	0	correct_rejection	NA	0
30	Correct	128	614	452	5	0	0	363078	683	0	correct_rejection	NA	0
30	Correct	129	615	453	6	0	0	363795	683	0	correct_rejection	NA	0
30	Correct	130	616	454	0	1	2	364511	684	0	miss	NA	0
30	Correct	131	617	455	4	0	0	365228	683	1	false_alarm	404	0
30	Correct	132	618	456	5	0	0	365945	683	0	correct_rejection	NA	0
30	Correct	133	619	457	6	0	0	366661	684	0	correct_rejection	NA	0
30	Correct	134	620	458	6	0	0	367378	683	0	correct_rejection	NA	0
30	Correct	135	621	459	5	0	0	368095	683	0	correct_rejection	NA	0
30	Correct	136	622	460	4	0	0	368811	684	0	correct_rejection	NA	0
30	Correct	137	623	461	6	0	0	369528	683	0	correct_rejection	NA	0
30	Correct	138	624	462	5	0	0	370245	683	0	correct_rejection	NA	0
30	Correct	139	625	463	0	1	1	370961	684	1	hit	495	0
30	Correct	140	626	464	4	0	0	371678	683	0	correct_rejection	NA	0
30	Correct	141	627	465	6	0	0	372395	683	0	correct_rejection	NA	0
30	Correct	142	628	466	5	0	0	373111	684	0	correct_rejection	NA	0
30	Correct	143	629	467	4	0	0	373828	683	0	correct_rejection	NA	0
30	Correct	144	630	468	0	1	3	374544	684	1	hit	612	0
30	Correct	145	631	469	9	0	0	375261	684	0	correct_rejection	NA	0
30	Correct	146	632	470	8	0	0	375978	683	0	correct_rejection	NA	0
30	Correct	147	633	471	7	0	0	376694	684	0	correct_rejection	NA	0
30	Correct	148	634	472	9	0	0	377411	683	0	correct_rejection	NA	0
30	Correct	149	635	473	8	0	0	378128	683	0	correct_rejection	NA	0
30	Correct	150	636	474	7	0	0	378844	684	0	correct_rejection	NA	0
30	Correct	151	637	475	9	0	0	379561	683	0	correct_rejection	NA	0
30	Correct	152	638	476	8	0	0	380278	683	0	correct_rejection	NA	0
30	Correct	153	639	477	7	0	0	380994	684	0	correct_rejection	NA	0
30	Correct	154	640	478	7	0	0	381711	683	0	correct_rejection	NA	0
30	Correct	155	641	479	8	0	0	382428	683	0	correct_rejection	NA	0
30	Correct	156	642	480	9	0	0	383144	684	0	correct_rejection	NA	0
30	Correct	157	643	481	7	0	0	383861	683	0	correct_rejection	NA	0
30	Correct	158	644	482	8	0	0	384578	683	0	correct_rejection	NA	0
30	Correct	159	645	483	9	0	0	385294	684	0	correct_rejection	NA	0
30	Correct	160	646	484	7	0	0	386011	683	0	correct_rejection	NA	0
30	Correct	161	647	485	8	0	0	386728	683	0	correct_rejection	NA	0
30	Correct	162	648	486	9	0	0	387444	684	0	correct_rejection	NA	0
30	Single	1	649	487	8	0	0	396678	683	0	correct_rejection	NA	7336
30	Single	2	650	488	9	0	0	397394	684	0	correct_rejection	NA	0
30	Single	3	651	489	8	0	0	398111	683	0	correct_rejection	NA	0
30	Single	4	652	490	5	0	0	398828	683	0	correct_rejection	NA	0
30	Single	5	653	491	4	0	0	399544	684	0	correct_rejection	NA	0
30	Single	6	654	492	4	0	0	400261	683	0	correct_rejection	NA	0
30	Single	7	655	493	9	0	0	400977	684	0	correct_rejection	NA	0
30	Single	8	656	494	9	0	0	401694	683	0	correct_rejection	NA	0
30	Single	9	657	495	4	0	0	402411	683	0	correct_rejection	NA	0
30	Single	10	658	496	7	0	0	403127	684	0	correct_rejection	NA	0
30	Single	11	659	497	4	0	0	403844	683	0	correct_rejection	NA	0
30	Single	12	660	498	5	0	0	404561	683	0	correct_rejection	NA	0
30	Single	13	661	499	7	0	0	405277	684	0	correct_rejection	NA	0
30	Single	14	662	500	6	0	0	405994	683	0	correct_rejection	NA	0
30	Single	15	663	501	8	0	0	406711	683	0	correct_rejection	NA	0
30	Single	16	664	502	7	0	0	407427	684	0	correct_rejection	NA	0
30	Single	17	665	503	5	0	0	408144	683	0	correct_rejection	NA	0
30	Single	18	666	504	5	0	0	408861	683	0	correct_rejection	NA	0
30	Single	19	667	505	9	0	0	409577	684	0	correct_rejection	NA	0
30	Single	20	668	506	5	0	0	410294	683	0	correct_rejection	NA	0
30	Single	21	669	507	0	1	1	411011	683	1	hit	483	0
30	Single	22	670	508	8	0	0	411727	684	0	correct_rejection	NA	0
30	Single	23	671	509	6	0	0	412444	683	0	correct_rejection	NA	0
30	Single	24	672	510	5	0	0	413161	683	0	correct_rejection	NA	0
30	Single	25	673	511	6	0	0	413877	684	0	correct_rejection	NA	0
30	Single	26	674	512	6	0	0	414594	683	0	correct_rejection	NA	0
30	Single	27	675	513	7	0	0	415311	683	0	correct_rejection	NA	0
30	Single	28	676	514	9	0	0	416027	684	0	correct_rejection	NA	0
30	Single	29	677	515	6	0	0	416744	683	0	correct_rejection	NA	0
30	Single	30	678	516	9	0	0	417461	683	0	correct_rejection	NA	0
30	Single	31	679	517	7	0	0	418177	684	0	correct_rejection	NA	0
30	Single	32	680	518	7	0	0	418894	683	0	correct_rejection	NA	0
30	Single	33	681	519	0	1	1	419611	683	1	hit	616	0
30	Single	34	682	520	8	0	0	420327	684	0	correct_rejection	NA	0
30	Single	35	683	521	8	0	0	421044	683	0	correct_rejection	NA	0
30	Single	36	684	522	4	0	0	421761	683	0	correct_rejection	NA	0
30	Single	37	685	523	6	0	0	422477	684	0	correct_rejection	NA	0
30	Single	38	686	524	4	0	0	423194	683	0	correct_rejection	NA	0
30	Single	39	687	525	7	0	0	423911	683	0	correct_rejection	NA	0
30	Single	40	688	526	9	0	0	424627	684	0	correct_rejection	NA	0
30	Single	41	689	527	5	0	0	425344	683	0	correct_rejection	NA	0
30	Single	42	690	528	9	0	0	426060	684	0	correct_rejection	NA	0
30	Single	43	691	529	4	0	0	426777	683	0	correct_rejection	NA	0
30	Single	44	692	530	8	0	0	427494	683	0	correct_rejection	NA	0
30	Single	45	693	531	4	0	0	428210	684	0	correct_rejection	NA	0
30	Single	46	694	532	9	0	0	428927	683	0	correct_rejection	NA	0
30	Single	47	695	533	7	0	0	429644	683	0	correct_rejection	NA	0
30	Single	48	696	534	8	0	0	430360	684	0	correct_rejection	NA	0
30	Single	49	697	535	9	0	0	431077	683	0	correct_rejection	NA	0
30	Single	50	698	536	6	0	0	431794	683	0	correct_rejection	NA	0
30	Single	51	699	537	8	0	0	432510	684	0	correct_rejection	NA	0
30	Single	52	700	538	8	0	0	433227	683	0	correct_rejection	NA	0
30	Single	53	701	539	5	0	0	433944	683	0	correct_rejection	NA	0
30	Single	54	702	540	8	0	0	434660	684	0	correct_rejection	NA	0
30	Single	55	703	541	7	0	0	435377	683	0	correct_rejection	NA	0
30	Single	56	704	542	7	0	0	436094	683	0	correct_rejection	NA	0
30	Single	57	705	543	4	0	0	436810	684	0	correct_rejection	NA	0
30	Single	58	706	544	0	1	1	437527	683	1	hit	498	0
30	Single	59	707	545	4	0	0	438244	683	0	correct_rejection	NA	0
30	Single	60	708	546	6	0	0	438960	684	0	correct_rejection	NA	0
30	Single	61	709	547	5	0	0	439677	683	0	correct_rejection	NA	0
30	Single	62	710	548	4	0	0	440394	683	0	correct_rejection	NA	0
30	Single	63	711	549	7	0	0	441110	684	0	correct_rejection	NA	0
30	Single	64	712	550	6	0	0	441827	683	0	correct_rejection	NA	0
30	Single	65	713	551	6	0	0	442544	683	0	correct_rejection	NA	0
30	Single	66	714	552	9	0	0	443260	684	0	correct_rejection	NA	0
30	Single	67	715	553	0	1	1	443977	683	0	miss	NA	0
30	Single	68	716	554	9	0	0	444694	683	1	false_alarm	228	0
30	Single	69	717	555	8	0	0	445410	684	0	correct_rejection	NA	0
30	Single	70	718	556	0	1	1	446127	683	1	hit	610	0
30	Single	71	719	557	6	0	0	446844	683	0	correct_rejection	NA	0
30	Single	72	720	558	4	0	0	447560	684	0	correct_rejection	NA	0
30	Single	73	721	559	5	0	0	448277	683	0	correct_rejection	NA	0
30	Single	74	722	560	5	0	0	448993	684	0	correct_rejection	NA	0
30	Single	75	723	561	0	1	1	449710	684	1	hit	512	0
30	Single	76	724	562	6	0	0	450427	683	0	correct_rejection	NA	0
30	Single	77	725	563	7	0	0	451143	684	0	correct_rejection	NA	0
30	Single	78	726	564	0	1	1	451860	683	1	hit	466	0
30	Single	79	727	565	5	0	0	452577	683	0	correct_rejection	NA	0
30	Single	80	728	566	5	0	0	453293	684	0	correct_rejection	NA	0
30	Single	81	729	567	4	0	0	454010	683	0	correct_rejection	NA	0
30	Single	82	730	568	0	1	1	454727	683	1	hit	666	0
30	Single	83	731	569	9	0	0	455443	684	0	correct_rejection	NA	0
30	Single	84	732	570	5	0	0	456160	683	0	correct_rejection	NA	0
30	Single	85	733	571	6	0	0	456877	683	0	correct_rejection	NA	0
30	Single	86	734	572	4	0	0	457593	684	0	correct_rejection	NA	0
30	Single	87	735	573	0	1	1	458310	683	1	hit	407	0
30	Single	88	736	574	7	0	0	459027	683	0	correct_rejection	NA	0
30	Single	89	737	575	9	0	0	459743	684	0	correct_rejection	NA	0
30	Single	90	738	576	8	0	0	460460	683	0	correct_rejection	NA	0
30	Single	91	739	577	8	0	0	461177	683	0	correct_rejection	NA	0
30	Single	92	740	578	7	0	0	461893	684	0	correct_rejection	NA	0
30	Single	93	741	579	8	0	0	462610	683	0	correct_rejection	NA	0
30	Single	94	742	580	0	1	1	463327	683	1	hit	431	0
30	Single	95	743	581	4	0	0	464043	684	0	correct_rejection	NA	0
30	Single	96	744	582	8	0	0	464760	683	0	correct_rejection	NA	0
30	Single	97	745	583	5	0	0	465477	683	0	correct_rejection	NA	0
30	Single	98	746	584	5	0	0	466193	684	0	correct_rejection	NA	0
30	Single	99	747	585	8	0	0	466910	683	0	correct_rejection	NA	0
30	Single	100	748	586	9	0	0	467627	683	0	correct_rejection	NA	0
30	Single	101	749	587	4	0	0	468343	684	0	correct_rejection	NA	0
30	Single	102	750	588	4	0	0	469060	683	0	correct_rejection	NA	0
30	Single	103	751	589	0	1	1	469777	683	1	hit	399	0
30	Single	104	752	590	5	0	0	470493	684	0	correct_rejection	NA	0
30	Single	105	753	591	9	0	0	471210	683	0	correct_rejection	NA	0
30	Single	106	754	592	9	0	0	471927	683	0	correct_rejection	NA	0
30	Single	107	755	593	7	0	0	472643	684	0	correct_rejection	NA	0
30	Single	108	756	594	6	0	0	473360	683	0	correct_rejection	NA	0
30	Single	109	757	595	7	0	0	474076	684	0	correct_rejection	NA	0
30	Single	110	758	596	7	0	0	474793	684	0	correct_rejection	NA	0
30	Single	111	759	597	5	0	0	475510	683	0	correct_rejection	NA	0
30	Single	112	760	598	0	1	1	476226	684	0	miss	NA	0
30	Single	113	761	599	7	0	0	476943	683	1	false_alarm	27	0
30	Single	114	762	600	4	0	0	477660	683	0	correct_rejection	NA	0
30	Single	115	763	601	6	0	0	478376	684	0	correct_rejection	NA	0
30	Single	116	764	602	9	0	0	479093	683	0	correct_rejection	NA	0
30	Single	117	765	603	6	0	0	479810	683	0	correct_rejection	NA	0
30	Single	118	766	604	6	0	0	480526	684	0	correct_rejection	NA	0
30	Single	119	767	605	8	0	0	481243	683	1	false_alarm	615	0
30	Single	120	768	606	6	0	0	481960	683	0	correct_rejection	NA	0
30	Single	121	769	607	0	1	1	482676	684	1	hit	427	0
30	Single	122	770	608	7	0	0	483393	683	0	correct_rejection	NA	0
30	Single	123	771	609	7	0	0	484110	683	0	correct_rejection	NA	0
30	Single	124	772	610	8	0	0	484826	684	0	correct_rejection	NA	0
30	Single	125	773	611	7	0	0	485543	683	0	correct_rejection	NA	0
30	Single	126	774	612	6	0	0	486260	683	0	correct_rejection	NA	0
30	Single	127	775	613	9	0	0	486976	684	0	correct_rejection	NA	0
30	Single	128	776	614	7	0	0	487693	683	0	correct_rejection	NA	0
30	Single	129	777	615	0	1	1	488410	683	1	hit	401	0
30	Single	130	778	616	4	0	0	489126	684	0	correct_rejection	NA	0
30	Single	131	779	617	9	0	0	489843	683	0	correct_rejection	NA	0
30	Single	132	780	618	6	0	0	490560	683	0	correct_rejection	NA	0
30	Single	133	781	619	5	0	0	491276	684	0	correct_rejection	NA	0
30	Single	134	782	620	6	0	0	491993	683	0	correct_rejection	NA	0
30	Single	135	783	621	0	1	1	492710	683	0	miss	NA	0
30	Single	136	784	622	6	0	0	493426	684	1	false_alarm	4	0
30	Single	137	785	623	7	0	0	494143	683	0	correct_rejection	NA	0
30	Single	138	786	624	9	0	0	494860	683	0	correct_rejection	NA	0
30	Single	139	787	625	9	0	0	495576	684	0	correct_rejection	NA	0
30	Single	140	788	626	4	0	0	496293	683	0	correct_rejection	NA	0
30	Single	141	789	627	5	0	0	497010	683	0	correct_rejection	NA	0
30	Single	142	790	628	8	0	0	497726	684	0	correct_rejection	NA	0
30	Single	143	791	629	6	0	0	498443	683	0	correct_rejection	NA	0
30	Single	144	792	630	8	0	0	499160	683	0	correct_rejection	NA	0
30	Single	145	793	631	9	0	0	499876	684	0	correct_rejection	NA	0
30	Single	146	794	632	5	0	0	500593	683	0	correct_rejection	NA	0
30	Single	147	795	633	7	0	0	501309	684	0	correct_rejection	NA	0
30	Single	148	796	634	5	0	0	502026	683	0	correct_rejection	NA	0
30	Single	149	797	635	5	0	0	502743	683	0	correct_rejection	NA	0
30	Single	150	798	636	9	0	0	503459	684	0	correct_rejection	NA	0
30	Single	151	799	637	8	0	0	504176	683	0	correct_rejection	NA	0
30	Single	152	800	638	0	1	1	504893	683	0	miss	NA	0
30	Single	153	801	639	5	0	0	505609	684	0	correct_rejection	NA	0
30	Single	154	802	640	4	0	0	506326	683	1	false_alarm	202	0
30	Single	155	803	641	6	0	0	507043	683	0	correct_rejection	NA	0
30	Single	156	804	642	0	1	1	507759	684	1	hit	444	0
30	Single	157	805	643	4	0	0	508476	683	0	correct_rejection	NA	0
30	Single	158	806	644	4	0	0	509193	683	0	correct_rejection	NA	0
30	Single	159	807	645	8	0	0	509909	684	0	correct_rejection	NA	0
30	Single	160	808	646	0	1	1	510626	683	1	hit	422	0
30	Single	161	809	647	8	0	0	511343	683	0	correct_rejection	NA	0
30	Single	162	810	648	4	0	0	512059	684	0	correct_rejection	NA	0
30	Correct	1	1	649	4	0	0	521443	683	0	correct_rejection	NA	7106
30	Correct	2	2	650	5	0	0	522159	684	0	correct_rejection	NA	0
30	Correct	3	3	651	6	0	0	522876	683	0	correct_rejection	NA	0
30	Correct	4	4	652	0	1	2	523593	683	0	miss	NA	0
30	Correct	5	5	653	4	0	0	524309	684	1	false_alarm	93	0
30	Correct	6	6	654	5	0	0	525026	683	0	correct_rejection	NA	0
30	Correct	7	7	655	6	0	0	525742	684	0	correct_rejection	NA	0
30	Correct	8	8	656	4	0	0	526459	683	0	correct_rejection	NA	0
30	Correct	9	9	657	5	0	0	527176	683	0	correct_rejection	NA	0
30	Correct	10	10	658	6	0	0	527892	684	0	correct_rejection	NA	0
30	Correct	11	11	659	0	1	3	528609	683	1	hit	451	0
30	Correct	12	12	660	6	0	0	529326	683	0	correct_rejection	NA	0
30	Correct	13	13	661	5	0	0	530042	684	0	correct_rejection	NA	0
30	Correct	14	14	662	4	0	0	530759	683	0	correct_rejection	NA	0
30	Correct	15	15	663	6	0	0	531476	683	0	correct_rejection	NA	0
30	Correct	16	16	664	0	1	1	532192	684	1	hit	418	0
30	Correct	17	17	665	5	0	0	532909	683	0	correct_rejection	NA	0
30	Correct	18	18	666	4	0	0	533626	683	0	correct_rejection	NA	0
30	Correct	19	19	667	6	0	0	534342	684	0	correct_rejection	NA	0
30	Correct	20	20	668	5	0	0	535059	683	0	correct_rejection	NA	0
30	Correct	21	21	669	4	0	0	535776	683	0	correct_rejection	NA	0
30	Correct	22	22	670	9	0	0	536492	684	0	correct_rejection	NA	0
30	Correct	23	23	671	8	0	0	537209	683	0	correct_rejection	NA	0
30	Correct	24	24	672	7	0	0	537926	683	0	correct_rejection	NA	0
30	Correct	25	25	673	9	0	0	538642	684	0	correct_rejection	NA	0
30	Correct	26	26	674	8	0	0	539359	683	0	correct_rejection	NA	0
30	Correct	27	27	675	7	0	0	540076	683	0	correct_rejection	NA	0
30	Correct	28	28	676	0	1	2	540792	684	1	hit	467	0
30	Correct	29	29	677	9	0	0	541509	683	0	correct_rejection	NA	0
30	Correct	30	30	678	8	0	0	542226	683	0	correct_rejection	NA	0
30	Correct	31	31	679	7	0	0	542942	684	0	correct_rejection	NA	0
30	Correct	32	32	680	7	0	0	543659	683	0	correct_rejection	NA	0
30	Correct	33	33	681	8	0	0	544376	683	0	correct_rejection	NA	0
30	Correct	34	34	682	9	0	0	545092	684	0	correct_rejection	NA	0
30	Correct	35	35	683	7	0	0	545809	683	0	correct_rejection	NA	0
30	Correct	36	36	684	8	0	0	546526	683	0	correct_rejection	NA	0
30	Correct	37	37	685	9	0	0	547242	684	0	correct_rejection	NA	0
30	Correct	38	38	686	7	0	0	547959	683	0	correct_rejection	NA	0
30	Correct	39	39	687	8	0	0	548675	684	0	correct_rejection	NA	0
30	Correct	40	40	688	9	0	0	549392	684	0	correct_rejection	NA	0
30	Correct	41	41	689	0	1	4	550109	683	0	miss	NA	0
30	Correct	42	42	690	4	0	0	550825	684	1	false_alarm	194	0
30	Correct	43	43	691	5	0	0	551542	683	0	correct_rejection	NA	0
30	Correct	44	44	692	0	1	1	552259	683	0	miss	NA	0
30	Correct	45	45	693	6	0	0	552975	684	0	correct_rejection	NA	0
30	Correct	46	46	694	4	0	0	553692	683	0	correct_rejection	NA	0
30	Correct	47	47	695	5	0	0	554409	683	0	correct_rejection	NA	0
30	Correct	48	48	696	6	0	0	555125	684	0	correct_rejection	NA	0
30	Correct	49	49	697	4	0	0	555842	683	0	correct_rejection	NA	0
30	Correct	50	50	698	5	0	0	556559	683	0	correct_rejection	NA	0
30	Correct	51	51	699	6	0	0	557275	684	0	correct_rejection	NA	0
30	Correct	52	52	700	6	0	0	557992	683	0	correct_rejection	NA	0
30	Correct	53	53	701	5	0	0	558709	683	0	correct_rejection	NA	0
30	Correct	54	54	702	4	0	0	559425	684	0	correct_rejection	NA	0
30	Correct	55	55	703	6	0	0	560142	683	0	correct_rejection	NA	0
30	Correct	56	56	704	5	0	0	560859	683	0	correct_rejection	NA	0
30	Correct	57	57	705	4	0	0	561575	684	0	correct_rejection	NA	0
30	Correct	58	58	706	6	0	0	562292	683	0	correct_rejection	NA	0
30	Correct	59	59	707	5	0	0	563009	683	0	correct_rejection	NA	0
30	Correct	60	60	708	4	0	0	563725	684	0	correct_rejection	NA	0
30	Correct	61	61	709	9	0	0	564442	683	0	correct_rejection	NA	0
30	Correct	62	62	710	8	0	0	565159	683	0	correct_rejection	NA	0
30	Correct	63	63	711	7	0	0	565875	684	0	correct_rejection	NA	0
30	Correct	64	64	712	9	0	0	566592	683	0	correct_rejection	NA	0
30	Correct	65	65	713	8	0	0	567309	683	0	correct_rejection	NA	0
30	Correct	66	66	714	7	0	0	568025	684	0	correct_rejection	NA	0
30	Correct	67	67	715	9	0	0	568742	683	0	correct_rejection	NA	0
30	Correct	68	68	716	8	0	0	569459	683	0	correct_rejection	NA	0
30	Correct	69	69	717	7	0	0	570175	684	0	correct_rejection	NA	0
30	Correct	70	70	718	7	0	0	570892	683	0	correct_rejection	NA	0
30	Correct	71	71	719	8	0	0	571609	683	0	correct_rejection	NA	0
30	Correct	72	72	720	9	0	0	572325	684	0	correct_rejection	NA	0
30	Correct	73	73	721	7	0	0	573042	683	0	correct_rejection	NA	0
30	Correct	74	74	722	8	0	0	573759	683	0	correct_rejection	NA	0
30	Correct	75	75	723	9	0	0	574475	684	0	correct_rejection	NA	0
30	Correct	76	76	724	7	0	0	575192	683	0	correct_rejection	NA	0
30	Correct	77	77	725	8	0	0	575908	684	0	correct_rejection	NA	0
30	Correct	78	78	726	9	0	0	576625	683	0	correct_rejection	NA	0
30	Correct	79	79	727	4	0	0	577342	683	0	correct_rejection	NA	0
30	Correct	80	80	728	0	1	1	578058	684	1	hit	502	0
30	Correct	81	81	729	5	0	0	578775	683	0	correct_rejection	NA	0
30	Correct	82	82	730	6	0	0	579492	683	0	correct_rejection	NA	0
30	Correct	83	83	731	4	0	0	580208	684	0	correct_rejection	NA	0
30	Correct	84	84	732	5	0	0	580925	683	0	correct_rejection	NA	0
30	Correct	85	85	733	6	0	0	581642	683	0	correct_rejection	NA	0
30	Correct	86	86	734	4	0	0	582358	684	0	correct_rejection	NA	0
30	Correct	87	87	735	0	1	1	583075	683	1	hit	528	0
30	Correct	88	88	736	5	0	0	583792	683	0	correct_rejection	NA	0
30	Correct	89	89	737	6	0	0	584508	684	0	correct_rejection	NA	0
30	Correct	90	90	738	6	0	0	585225	683	0	correct_rejection	NA	0
30	Correct	91	91	739	5	0	0	585942	683	0	correct_rejection	NA	0
30	Correct	92	92	740	0	1	1	586658	684	0	miss	NA	0
30	Correct	93	93	741	4	0	0	587375	683	0	correct_rejection	NA	0
30	Correct	94	94	742	6	0	0	588092	683	0	correct_rejection	NA	0
30	Correct	95	95	743	5	0	0	588808	684	0	correct_rejection	NA	0
30	Correct	96	96	744	0	1	1	589525	683	1	hit	386	0
30	Correct	97	97	745	4	0	0	590242	683	0	correct_rejection	NA	0
30	Correct	98	98	746	6	0	0	590958	684	0	correct_rejection	NA	0
30	Correct	99	99	747	5	0	0	591675	683	0	correct_rejection	NA	0
30	Correct	100	100	748	4	0	0	592392	683	0	correct_rejection	NA	0
30	Correct	101	101	749	9	0	0	593108	684	0	correct_rejection	NA	0
30	Correct	102	102	750	0	1	1	593825	683	1	hit	367	0
30	Correct	103	103	751	8	0	0	594542	683	0	correct_rejection	NA	0
30	Correct	104	104	752	7	0	0	595258	684	0	correct_rejection	NA	0
30	Correct	105	105	753	9	0	0	595975	683	0	correct_rejection	NA	0
30	Correct	106	106	754	8	0	0	596692	683	0	correct_rejection	NA	0
30	Correct	107	107	755	7	0	0	597408	684	0	correct_rejection	NA	0
30	Correct	108	108	756	9	0	0	598125	683	0	correct_rejection	NA	0
30	Correct	109	109	757	8	0	0	598841	684	0	correct_rejection	NA	0
30	Correct	110	110	758	0	1	1	599558	684	1	hit	410	0
30	Correct	111	111	759	7	0	0	600275	683	0	correct_rejection	NA	0
30	Correct	112	112	760	7	0	0	600991	684	0	correct_rejection	NA	0
30	Correct	113	113	761	8	0	0	601708	683	0	correct_rejection	NA	0
30	Correct	114	114	762	9	0	0	602425	683	0	correct_rejection	NA	0
30	Correct	115	115	763	7	0	0	603141	684	0	correct_rejection	NA	0
30	Correct	116	116	764	8	0	0	603858	683	0	correct_rejection	NA	0
30	Correct	117	117	765	9	0	0	604575	683	0	correct_rejection	NA	0
30	Correct	118	118	766	7	0	0	605291	684	0	correct_rejection	NA	0
30	Correct	119	119	767	8	0	0	606008	683	0	correct_rejection	NA	0
30	Correct	120	120	768	0	1	1	606725	683	1	hit	422	0
30	Correct	121	121	769	9	0	0	607441	684	0	correct_rejection	NA	0
30	Correct	122	122	770	4	0	0	608158	683	0	correct_rejection	NA	0
30	Correct	123	123	771	5	0	0	608875	683	0	correct_rejection	NA	0
30	Correct	124	124	772	6	0	0	609591	684	0	correct_rejection	NA	0
30	Correct	125	125	773	4	0	0	610308	683	0	correct_rejection	NA	0
30	Correct	126	126	774	5	0	0	611025	683	0	correct_rejection	NA	0
30	Correct	127	127	775	6	0	0	611741	684	0	correct_rejection	NA	0
30	Correct	128	128	776	4	0	0	612458	683	0	correct_rejection	NA	0
30	Correct	129	129	777	5	0	0	613175	683	0	correct_rejection	NA	0
30	Correct	130	130	778	0	1	1	613891	684	1	hit	520	0
30	Correct	131	131	779	6	0	0	614608	683	0	correct_rejection	NA	0
30	Correct	132	132	780	6	0	0	615325	683	0	correct_rejection	NA	0
30	Correct	133	133	781	0	1	1	616041	684	1	hit	417	0
30	Correct	134	134	782	5	0	0	616758	683	0	correct_rejection	NA	0
30	Correct	135	135	783	4	0	0	617475	683	0	correct_rejection	NA	0
30	Correct	136	136	784	6	0	0	618191	684	0	correct_rejection	NA	0
30	Correct	137	137	785	5	0	0	618908	683	0	correct_rejection	NA	0
30	Correct	138	138	786	4	0	0	619625	683	0	correct_rejection	NA	0
30	Correct	139	139	787	0	1	2	620341	684	1	hit	383	0
30	Correct	140	140	788	6	0	0	621058	683	0	correct_rejection	NA	0
30	Correct	141	141	789	5	0	0	621775	683	0	correct_rejection	NA	0
30	Correct	142	142	790	4	0	0	622491	684	0	correct_rejection	NA	0
30	Correct	143	143	791	9	0	0	623208	683	0	correct_rejection	NA	0
30	Correct	144	144	792	8	0	0	623925	683	0	correct_rejection	NA	0
30	Correct	145	145	793	7	0	0	624641	684	0	correct_rejection	NA	0
30	Correct	146	146	794	9	0	0	625358	683	0	correct_rejection	NA	0
30	Correct	147	147	795	8	0	0	626074	684	0	correct_rejection	NA	0
30	Correct	148	148	796	7	0	0	626791	683	0	correct_rejection	NA	0
30	Correct	149	149	797	9	0	0	627508	683	0	correct_rejection	NA	0
30	Correct	150	150	798	0	1	1	628224	684	1	hit	401	0
30	Correct	151	151	799	8	0	0	628941	683	0	correct_rejection	NA	0
30	Correct	152	152	800	7	0	0	629658	683	0	correct_rejection	NA	0
30	Correct	153	153	801	7	0	0	630374	684	0	correct_rejection	NA	0
30	Correct	154	154	802	8	0	0	631091	683	0	correct_rejection	NA	0
30	Correct	155	155	803	9	0	0	631808	683	0	correct_rejection	NA	0
30	Correct	156	156	804	0	1	2	632524	684	1	hit	440	0
30	Correct	157	157	805	7	0	0	633241	683	0	correct_rejection	NA	0
30	Correct	158	158	806	8	0	0	633958	683	0	correct_rejection	NA	0
30	Correct	159	159	807	9	0	0	634674	684	0	correct_rejection	NA	0
30	Correct	160	160	808	7	0	0	635391	683	0	correct_rejection	NA	0
30	Correct	161	161	809	8	0	0	636108	683	0	correct_rejection	NA	0
30	Correct	162	162	810	9	0	0	636824	684	0	correct_rejection	NA	0
trigger nr 629 at 639260
trigger nr 635 at 722920
30	Triplet	1	1	811	9	0	0	730823	683	0	correct_rejection	NA	7837
30	Triplet	2	2	812	8	0	0	731540	683	0	correct_rejection	NA	0
30	Triplet	3	3	813	7	0	0	732256	684	0	correct_rejection	NA	0
30	Triplet	4	4	814	6	0	0	732973	683	0	correct_rejection	NA	0
30	Triplet	5	5	815	5	0	0	733690	683	0	correct_rejection	NA	0
30	Triplet	6	6	816	4	0	0	734406	684	0	correct_rejection	NA	0
30	Triplet	7	7	817	7	0	0	735123	683	0	correct_rejection	NA	0
30	Triplet	8	8	818	8	0	0	735840	683	0	correct_rejection	NA	0
30	Triplet	9	9	819	9	0	0	736556	684	0	correct_rejection	NA	0
30	Triplet	10	10	820	7	0	0	737273	683	0	correct_rejection	NA	0
30	Triplet	11	11	821	8	0	0	737990	683	0	correct_rejection	NA	0
30	Triplet	12	12	822	9	0	0	738706	684	0	correct_rejection	NA	0
30	Triplet	13	13	823	0	1	2	739423	683	1	hit	391	0
30	Triplet	14	14	824	4	0	0	740140	683	0	correct_rejection	NA	0
30	Triplet	15	15	825	5	0	0	740856	684	0	correct_rejection	NA	0
30	Triplet	16	16	826	0	1	1	741573	683	1	hit	367	0
30	Triplet	17	17	827	6	0	0	742290	683	0	correct_rejection	NA	0
30	Triplet	18	18	828	6	0	0	743006	684	0	correct_rejection	NA	0
30	Triplet	19	19	829	0	1	1	743723	683	1	hit	381	0
30	Triplet	20	20	830	5	0	0	744440	683	0	correct_rejection	NA	0
30	Triplet	21	21	831	4	0	0	745156	684	0	correct_rejection	NA	0
30	Triplet	22	22	832	4	0	0	745873	683	0	correct_rejection	NA	0
30	Triplet	23	23	833	5	0	0	746590	683	0	correct_rejection	NA	0
30	Triplet	24	24	834	6	0	0	747306	684	0	correct_rejection	NA	0
30	Triplet	25	25	835	0	1	2	748023	683	1	hit	430	0
30	Triplet	26	26	836	7	0	0	748740	683	0	correct_rejection	NA	0
30	Triplet	27	27	837	8	0	0	749456	684	0	correct_rejection	NA	0
30	Triplet	28	28	838	9	0	0	750173	683	0	correct_rejection	NA	0
30	Triplet	29	29	839	9	0	0	750889	684	0	correct_rejection	NA	0
30	Triplet	30	30	840	8	0	0	751606	683	0	correct_rejection	NA	0
30	Triplet	31	31	841	7	0	0	752323	683	0	correct_rejection	NA	0
30	Triplet	32	32	842	7	0	0	753039	684	0	correct_rejection	NA	0
30	Triplet	33	33	843	8	0	0	753756	683	0	correct_rejection	NA	0
30	Triplet	34	34	844	9	0	0	754473	683	0	correct_rejection	NA	0
30	Triplet	35	35	845	6	0	0	755189	684	1	false_alarm	589	0
30	Triplet	36	36	846	5	0	0	755906	683	0	correct_rejection	NA	0
30	Triplet	37	37	847	4	0	0	756623	683	0	correct_rejection	NA	0
30	Triplet	38	38	848	6	0	0	757339	684	0	correct_rejection	NA	0
30	Triplet	39	39	849	5	0	0	758056	683	0	correct_rejection	NA	0
30	Triplet	40	40	850	4	0	0	758773	683	0	correct_rejection	NA	0
30	Triplet	41	41	851	9	0	0	759489	684	0	correct_rejection	NA	0
30	Triplet	42	42	852	8	0	0	760206	683	0	correct_rejection	NA	0
30	Triplet	43	43	853	7	0	0	760923	683	0	correct_rejection	NA	0
30	Triplet	44	44	854	9	0	0	761639	684	0	correct_rejection	NA	0
30	Triplet	45	45	855	8	0	0	762356	683	0	correct_rejection	NA	0
30	Triplet	46	46	856	7	0	0	763073	683	0	correct_rejection	NA	0
30	Triplet	47	47	857	0	1	2	763789	684	1	hit	396	0
30	Triplet	48	48	858	4	0	0	764506	683	0	correct_rejection	NA	0
30	Triplet	49	49	859	5	0	0	765223	683	0	correct_rejection	NA	0
30	Triplet	50	50	860	0	1	1	765939	684	1	hit	424	0
30	Triplet	51	51	861	6	0	0	766656	683	0	correct_rejection	NA	0
30	Triplet	52	52	862	4	0	0	767373	683	0	correct_rejection	NA	0
30	Triplet	53	53	863	5	0	0	768089	684	0	correct_rejection	NA	0
30	Triplet	54	54	864	6	0	0	768806	683	0	correct_rejection	NA	0
30	Triplet	55	55	865	9	0	0	769523	683	0	correct_rejection	NA	0
30	Triplet	56	56	866	8	0	0	770239	684	0	correct_rejection	NA	0
30	Triplet	57	57	867	7	0	0	770956	683	0	correct_rejection	NA	0
30	Triplet	58	58	868	4	0	0	771673	683	0	correct_rejection	NA	0
30	Triplet	59	59	869	5	0	0	772389	684	0	correct_rejection	NA	0
30	Triplet	60	60	870	6	0	0	773106	683	0	correct_rejection	NA	0
30	Triplet	61	61	871	0	1	2	773822	684	0	miss	NA	0
30	Triplet	62	62	872	6	0	0	774539	684	1	false_alarm	79	0
30	Triplet	63	63	873	5	0	0	775256	683	0	correct_rejection	NA	0
30	Triplet	64	64	874	0	1	1	775972	684	1	hit	392	0
30	Triplet	65	65	875	4	0	0	776689	683	0	correct_rejection	NA	0
30	Triplet	66	66	876	6	0	0	777406	683	0	correct_rejection	NA	0
30	Triplet	67	67	877	5	0	0	778122	684	0	correct_rejection	NA	0
30	Triplet	68	68	878	4	0	0	778839	683	0	correct_rejection	NA	0
30	Triplet	69	69	879	0	1	2	779556	683	1	hit	426	0
30	Triplet	70	70	880	7	0	0	780272	684	0	correct_rejection	NA	0
30	Triplet	71	71	881	8	0	0	780989	683	0	correct_rejection	NA	0
30	Triplet	72	72	882	0	1	1	781706	683	1	hit	456	0
30	Triplet	73	73	883	9	0	0	782422	684	0	correct_rejection	NA	0
30	Triplet	74	74	884	4	0	0	783139	683	0	correct_rejection	NA	0
30	Triplet	75	75	885	0	1	1	783856	683	1	hit	382	0
30	Triplet	76	76	886	5	0	0	784572	684	0	correct_rejection	NA	0
30	Triplet	77	77	887	6	0	0	785289	683	0	correct_rejection	NA	0
30	Triplet	78	78	888	9	0	0	786006	683	0	correct_rejection	NA	0
30	Triplet	79	79	889	8	0	0	786722	684	0	correct_rejection	NA	0
30	Triplet	80	80	890	7	0	0	787439	683	0	correct_rejection	NA	0
30	Triplet	81	81	891	7	0	0	788156	683	0	correct_rejection	NA	0
30	Triplet	82	82	892	8	0	0	788872	684	0	correct_rejection	NA	0
30	Triplet	83	83	893	9	0	0	789589	683	0	correct_rejection	NA	0
30	Triplet	84	84	894	0	1	2	790306	683	1	hit	473	0
30	Triplet	85	85	895	9	0	0	791022	684	0	correct_rejection	NA	0
30	Triplet	86	86	896	8	0	0	791739	683	0	correct_rejection	NA	0
30	Triplet	87	87	897	7	0	0	792456	683	0	correct_rejection	NA	0
30	Triplet	88	88	898	6	0	0	793172	684	0	correct_rejection	NA	0
30	Triplet	89	89	899	5	0	0	793889	683	0	correct_rejection	NA	0
30	Triplet	90	90	900	4	0	0	794606	683	0	correct_rejection	NA	0
30	Triplet	91	91	901	4	0	0	795322	684	0	correct_rejection	NA	0
30	Triplet	92	92	902	5	0	0	796039	683	0	correct_rejection	NA	0
30	Triplet	93	93	903	6	0	0	796756	683	0	correct_rejection	NA	0
30	Triplet	94	94	904	4	0	0	797472	684	0	correct_rejection	NA	0
30	Triplet	95	95	905	0	1	1	798189	683	0	miss	NA	0
30	Triplet	96	96	906	5	0	0	798905	684	0	correct_rejection	NA	0
30	Triplet	97	97	907	6	0	0	799622	684	0	correct_rejection	NA	0
30	Triplet	98	98	908	7	0	0	800339	683	0	correct_rejection	NA	0
30	Triplet	99	99	909	8	0	0	801055	684	0	correct_rejection	NA	0
30	Triplet	100	100	910	9	0	0	801772	684	0	correct_rejection	NA	0
30	Triplet	101	101	911	7	0	0	802489	683	0	correct_rejection	NA	0
30	Triplet	102	102	912	8	0	0	803205	684	0	correct_rejection	NA	0
30	Triplet	103	103	913	9	0	0	803922	683	0	correct_rejection	NA	0
30	Triplet	104	104	914	6	0	0	804639	683	0	correct_rejection	NA	0
30	Triplet	105	105	915	5	0	0	805355	684	0	correct_rejection	NA	0
30	Triplet	106	106	916	4	0	0	806072	683	0	correct_rejection	NA	0
30	Triplet	107	107	917	9	0	0	806789	683	0	correct_rejection	NA	0
30	Triplet	108	108	918	8	0	0	807505	684	0	correct_rejection	NA	0
30	Triplet	109	109	919	0	1	1	808222	683	1	hit	475	0
30	Triplet	110	110	920	7	0	0	808939	683	0	correct_rejection	NA	0
30	Triplet	111	111	921	7	0	0	809655	684	0	correct_rejection	NA	0
30	Triplet	112	112	922	8	0	0	810372	683	0	correct_rejection	NA	0
30	Triplet	113	113	923	9	0	0	811089	683	0	correct_rejection	NA	0
30	Triplet	114	114	924	4	0	0	811805	684	0	correct_rejection	NA	0
30	Triplet	115	115	925	5	0	0	812522	683	0	correct_rejection	NA	0
30	Triplet	116	116	926	6	0	0	813239	683	0	correct_rejection	NA	0
30	Triplet	117	117	927	4	0	0	813955	684	0	correct_rejection	NA	0
30	Triplet	118	118	928	5	0	0	814672	683	0	correct_rejection	NA	0
30	Triplet	119	119	929	6	0	0	815389	683	0	correct_rejection	NA	0
30	Triplet	120	120	930	0	1	2	816105	684	1	hit	409	0
30	Triplet	121	121	931	9	0	0	816822	683	0	correct_rejection	NA	0
30	Triplet	122	122	932	8	0	0	817539	683	0	correct_rejection	NA	0
30	Triplet	123	123	933	7	0	0	818255	684	0	correct_rejection	NA	0
30	Triplet	124	124	934	4	0	0	818972	683	0	correct_rejection	NA	0
30	Triplet	125	125	935	5	0	0	819689	683	0	correct_rejection	NA	0
30	Triplet	126	126	936	6	0	0	820405	684	0	correct_rejection	NA	0
30	Triplet	127	127	937	7	0	0	821122	683	0	correct_rejection	NA	0
30	Triplet	128	128	938	8	0	0	821839	683	0	correct_rejection	NA	0
30	Triplet	129	129	939	0	1	1	822555	684	1	hit	387	0
30	Triplet	130	130	940	9	0	0	823272	683	0	correct_rejection	NA	0
30	Triplet	131	131	941	6	0	0	823988	684	0	correct_rejection	NA	0
30	Triplet	132	132	942	5	0	0	824705	684	0	correct_rejection	NA	0
30	Triplet	133	133	943	4	0	0	825422	683	0	correct_rejection	NA	0
30	Triplet	134	134	944	0	1	2	826138	684	1	hit	517	0
30	Triplet	135	135	945	4	0	0	826855	683	0	correct_rejection	NA	0
30	Triplet	136	136	946	5	0	0	827572	683	0	correct_rejection	NA	0
30	Triplet	137	137	947	6	0	0	828288	684	0	correct_rejection	NA	0
30	Triplet	138	138	948	6	0	0	829005	683	0	correct_rejection	NA	0
30	Triplet	139	139	949	5	0	0	829722	683	0	correct_rejection	NA	0
30	Triplet	140	140	950	4	0	0	830438	684	0	correct_rejection	NA	0
30	Triplet	141	141	951	9	0	0	831155	683	0	correct_rejection	NA	0
30	Triplet	142	142	952	8	0	0	831872	683	0	correct_rejection	NA	0
30	Triplet	143	143	953	7	0	0	832588	684	0	correct_rejection	NA	0
30	Triplet	144	144	954	7	0	0	833305	683	0	correct_rejection	NA	0
30	Triplet	145	145	955	8	0	0	834022	683	0	correct_rejection	NA	0
30	Triplet	146	146	956	9	0	0	834738	684	0	correct_rejection	NA	0
30	Triplet	147	147	957	7	0	0	835455	683	0	correct_rejection	NA	0
30	Triplet	148	148	958	8	0	0	836172	683	0	correct_rejection	NA	0
30	Triplet	149	149	959	9	0	0	836888	684	0	correct_rejection	NA	0
30	Triplet	150	150	960	9	0	0	837605	683	0	correct_rejection	NA	0
30	Triplet	151	151	961	0	1	1	838322	683	1	hit	393	0
30	Triplet	152	152	962	8	0	0	839038	684	0	correct_rejection	NA	0
30	Triplet	153	153	963	7	0	0	839755	683	0	correct_rejection	NA	0
30	Triplet	154	154	964	9	0	0	840472	683	0	correct_rejection	NA	0
30	Triplet	155	155	965	8	0	0	841188	684	0	correct_rejection	NA	0
30	Triplet	156	156	966	7	0	0	841905	683	0	correct_rejection	NA	0
30	Triplet	157	157	967	6	0	0	842622	683	0	correct_rejection	NA	0
30	Triplet	158	158	968	5	0	0	843338	684	0	correct_rejection	NA	0
30	Triplet	159	159	969	4	0	0	844055	683	0	correct_rejection	NA	0
30	Triplet	160	160	970	6	0	0	844772	683	0	correct_rejection	NA	0
30	Triplet	161	161	971	5	0	0	845488	684	0	correct_rejection	NA	0
30	Triplet	162	162	972	4	0	0	846205	683	0	correct_rejection	NA	0
30	Single	1	487	973	7	0	0	855138	683	0	correct_rejection	NA	7157
30	Single	2	488	974	4	0	0	855855	683	0	correct_rejection	NA	0
30	Single	3	489	975	5	0	0	856571	684	0	correct_rejection	NA	0
30	Single	4	490	976	0	1	1	857288	683	1	hit	587	0
30	Single	5	491	977	5	0	0	858005	683	0	correct_rejection	NA	0
30	Single	6	492	978	7	0	0	858721	684	0	correct_rejection	NA	0
30	Single	7	493	979	6	0	0	859438	683	0	correct_rejection	NA	0
30	Single	8	494	980	4	0	0	860155	683	0	correct_rejection	NA	0
30	Single	9	495	981	9	0	0	860871	684	0	correct_rejection	NA	0
30	Single	10	496	982	0	1	1	861588	683	1	hit	582	0
30	Single	11	497	983	5	0	0	862305	683	0	correct_rejection	NA	0
30	Single	12	498	984	9	0	0	863021	684	0	correct_rejection	NA	0
30	Single	13	499	985	0	1	1	863738	683	1	hit	406	0
30	Single	14	500	986	4	0	0	864455	683	0	correct_rejection	NA	0
30	Single	15	501	987	8	0	0	865171	684	0	correct_rejection	NA	0
30	Single	16	502	988	5	0	0	865888	683	0	correct_rejection	NA	0
30	Single	17	503	989	8	0	0	866605	683	0	correct_rejection	NA	0
30	Single	18	504	990	4	0	0	867321	684	0	correct_rejection	NA	0
30	Single	19	505	991	7	0	0	868038	683	0	correct_rejection	NA	0
30	Single	20	506	992	8	0	0	868755	683	0	correct_rejection	NA	0
30	Single	21	507	993	6	0	0	869471	684	0	correct_rejection	NA	0
30	Single	22	508	994	8	0	0	870188	683	0	correct_rejection	NA	0
30	Single	23	509	995	9	0	0	870905	683	0	correct_rejection	NA	0
30	Single	24	510	996	7	0	0	871621	684	0	correct_rejection	NA	0
30	Single	25	511	997	0	1	1	872338	683	0	miss	NA	0
30	Single	26	512	998	5	0	0	873055	683	1	false_alarm	0	0
30	Single	27	513	999	6	0	0	873771	684	0	correct_rejection	NA	0
30	Single	28	514	1000	9	0	0	874488	683	0	correct_rejection	NA	0
30	Single	29	515	1001	6	0	0	875204	684	0	correct_rejection	NA	0
30	Single	30	516	1002	6	0	0	875921	683	0	correct_rejection	NA	0
30	Single	31	517	1003	5	0	0	876638	683	0	correct_rejection	NA	0
30	Single	32	518	1004	4	0	0	877354	684	0	correct_rejection	NA	0
30	Single	33	519	1005	4	0	0	878071	683	0	correct_rejection	NA	0
30	Single	34	520	1006	0	1	1	878788	683	1	hit	542	0
30	Single	35	521	1007	6	0	0	879504	684	0	correct_rejection	NA	0
30	Single	36	522	1008	7	0	0	880221	683	0	correct_rejection	NA	0
30	Single	37	523	1009	7	0	0	880938	683	0	correct_rejection	NA	0
30	Single	38	524	1010	9	0	0	881654	684	0	correct_rejection	NA	0
30	Single	39	525	1011	9	0	0	882371	683	0	correct_rejection	NA	0
30	Single	40	526	1012	8	0	0	883088	683	0	correct_rejection	NA	0
30	Single	41	527	1013	8	0	0	883804	684	0	correct_rejection	NA	0
30	Single	42	528	1014	5	0	0	884521	683	0	correct_rejection	NA	0
30	Single	43	529	1015	9	0	0	885238	683	0	correct_rejection	NA	0
30	Single	44	530	1016	9	0	0	885954	684	0	correct_rejection	NA	0
30	Single	45	531	1017	7	0	0	886671	683	0	correct_rejection	NA	0
30	Single	46	532	1018	0	1	1	887388	683	1	hit	473	0
30	Single	47	533	1019	9	0	0	888104	684	0	correct_rejection	NA	0
30	Single	48	534	1020	5	0	0	888821	683	0	correct_rejection	NA	0
30	Single	49	535	1021	5	0	0	889538	683	0	correct_rejection	NA	0
30	Single	50	536	1022	0	1	1	890254	684	1	hit	492	0
30	Single	51	537	1023	8	0	0	890971	683	0	correct_rejection	NA	0
30	Single	52	538	1024	7	0	0	891688	683	0	correct_rejection	NA	0
30	Single	53	539	1025	5	0	0	892404	684	0	correct_rejection	NA	0
30	Single	54	540	1026	4	0	0	893121	683	0	correct_rejection	NA	0
30	Single	55	541	1027	5	0	0	893838	683	0	correct_rejection	NA	0
30	Single	56	542	1028	7	0	0	894554	684	0	correct_rejection	NA	0
30	Single	57	543	1029	7	0	0	895271	683	0	correct_rejection	NA	0
30	Single	58	544	1030	4	0	0	895988	683	0	correct_rejection	NA	0
30	Single	59	545	1031	9	0	0	896704	684	0	correct_rejection	NA	0
30	Single	60	546	1032	6	0	0	897421	683	0	correct_rejection	NA	0
30	Single	61	547	1033	7	0	0	898138	683	0	correct_rejection	NA	0
30	Single	62	548	1034	8	0	0	898854	684	0	correct_rejection	NA	0
30	Single	63	549	1035	4	0	0	899571	683	0	correct_rejection	NA	0
30	Single	64	550	1036	6	0	0	900287	684	0	correct_rejection	NA	0
30	Single	65	551	1037	5	0	0	901004	683	0	correct_rejection	NA	0
30	Single	66	552	1038	6	0	0	901721	683	0	correct_rejection	NA	0
30	Single	67	553	1039	6	0	0	902437	684	0	correct_rejection	NA	0
30	Single	68	554	1040	9	0	0	903154	683	0	correct_rejection	NA	0
30	Single	69	555	1041	8	0	0	903871	683	0	correct_rejection	NA	0
30	Single	70	556	1042	9	0	0	904587	684	0	correct_rejection	NA	0
30	Single	71	557	1043	4	0	0	905304	683	0	correct_rejection	NA	0
30	Single	72	558	1044	4	0	0	906021	683	0	correct_rejection	NA	0
30	Single	73	559	1045	8	0	0	906737	684	0	correct_rejection	NA	0
30	Single	74	560	1046	6	0	0	907454	683	0	correct_rejection	NA	0
30	Single	75	561	1047	4	0	0	908171	683	0	correct_rejection	NA	0
30	Single	76	562	1048	7	0	0	908887	684	0	correct_rejection	NA	0
30	Single	77	563	1049	6	0	0	909604	683	0	correct_rejection	NA	0
30	Single	78	564	1050	8	0	0	910321	683	0	correct_rejection	NA	0
30	Single	79	565	1051	8	0	0	911037	684	0	correct_rejection	NA	0
30	Single	80	566	1052	4	0	0	911754	683	0	correct_rejection	NA	0
30	Single	81	567	1053	7	0	0	912471	683	0	correct_rejection	NA	0
30	Single	82	568	1054	5	0	0	913187	684	0	correct_rejection	NA	0
30	Single	83	569	1055	5	0	0	913904	683	0	correct_rejection	NA	0
30	Single	84	570	1056	4	0	0	914621	683	0	correct_rejection	NA	0
30	Single	85	571	1057	0	1	1	915337	684	1	hit	569	0
30	Single	86	572	1058	8	0	0	916054	683	0	correct_rejection	NA	0
30	Single	87	573	1059	9	0	0	916771	683	0	correct_rejection	NA	0
30	Single	88	574	1060	0	1	1	917487	684	1	hit	422	0
30	Single	89	575	1061	6	0	0	918204	683	0	correct_rejection	NA	0
30	Single	90	576	1062	9	0	0	918921	683	0	correct_rejection	NA	0
30	Single	91	577	1063	9	0	0	919637	684	0	correct_rejection	NA	0
30	Single	92	578	1064	5	0	0	920354	683	0	correct_rejection	NA	0
30	Single	93	579	1065	8	0	0	921071	683	0	correct_rejection	NA	0
30	Single	94	580	1066	5	0	0	921787	684	0	correct_rejection	NA	0
30	Single	95	581	1067	6	0	0	922504	683	0	correct_rejection	NA	0
30	Single	96	582	1068	7	0	0	923221	683	0	correct_rejection	NA	0
30	Single	97	583	1069	9	0	0	923937	684	0	correct_rejection	NA	0
30	Single	98	584	1070	4	0	0	924654	683	0	correct_rejection	NA	0
30	Single	99	585	1071	6	0	0	925370	684	0	correct_rejection	NA	0
30	Single	100	586	1072	8	0	0	926087	683	0	correct_rejection	NA	0
30	Single	101	587	1073	0	1	1	926804	683	0	miss	NA	0
30	Single	102	588	1074	4	0	0	927520	684	1	false_alarm	52	0
30	Single	103	589	1075	5	0	0	928237	683	0	correct_rejection	NA	0
30	Single	104	590	1076	9	0	0	928954	683	0	correct_rejection	NA	0
30	Single	105	591	1077	8	0	0	929670	684	0	correct_rejection	NA	0
30	Single	106	592	1078	7	0	0	930387	683	0	correct_rejection	NA	0
30	Single	107	593	1079	0	1	1	931104	683	1	hit	433	0
30	Single	108	594	1080	6	0	0	931820	684	0	correct_rejection	NA	0
30	Single	109	595	1081	6	0	0	932537	683	0	correct_rejection	NA	0
30	Single	110	596	1082	4	0	0	933254	683	0	correct_rejection	NA	0
30	Single	111	597	1083	0	1	1	933970	684	1	hit	412	0
30	Single	112	598	1084	4	0	0	934687	683	0	correct_rejection	NA	0
30	Single	113	599	1085	9	0	0	935404	683	0	correct_rejection	NA	0
30	Single	114	600	1086	7	0	0	936120	684	0	correct_rejection	NA	0
30	Single	115	601	1087	7	0	0	936837	683	0	correct_rejection	NA	0
30	Single	116	602	1088	0	1	1	937554	683	0	miss	NA	0
30	Single	117	603	1089	8	0	0	938270	684	0	correct_rejection	NA	0
30	Single	118	604	1090	8	0	0	938987	683	0	correct_rejection	NA	0
30	Single	119	605	1091	6	0	0	939704	683	0	correct_rejection	NA	0
30	Single	120	606	1092	5	0	0	940420	684	0	correct_rejection	NA	0
30	Single	121	607	1093	7	0	0	941137	683	0	correct_rejection	NA	0
30	Single	122	608	1094	0	1	1	941854	683	1	hit	443	0
30	Single	123	609	1095	7	0	0	942570	684	0	correct_rejection	NA	0
30	Single	124	610	1096	8	0	0	943287	683	0	correct_rejection	NA	0
30	Single	125	611	1097	5	0	0	944004	683	0	correct_rejection	NA	0
30	Single	126	612	1098	0	1	1	944720	684	1	hit	547	0
30	Single	127	613	1099	7	0	0	945437	683	0	correct_rejection	NA	0
30	Single	128	614	1100	6	0	0	946154	683	0	correct_rejection	NA	0
30	Single	129	615	1101	4	0	0	946870	684	0	correct_rejection	NA	0
30	Single	130	616	1102	5	0	0	947587	683	0	correct_rejection	NA	0
30	Single	131	617	1103	5	0	0	948304	683	0	correct_rejection	NA	0
30	Single	132	618	1104	6	0	0	949020	684	0	correct_rejection	NA	0
30	Single	133	619	1105	8	0	0	949737	683	0	correct_rejection	NA	0
30	Single	134	620	1106	0	1	1	950453	684	1	hit	507	0
30	Single	135	621	1107	6	0	0	951170	683	0	correct_rejection	NA	0
30	Single	136	622	1108	9	0	0	951887	683	0	correct_rejection	NA	0
30	Single	137	623	1109	4	0	0	952603	684	0	correct_rejection	NA	0
30	Single	138	624	1110	8	0	0	953320	683	0	correct_rejection	NA	0
30	Single	139	625	1111	7	0	0	954037	683	0	correct_rejection	NA	0
30	Single	140	626	1112	0	1	1	954753	684	1	hit	398	0
30	Single	141	627	1113	4	0	0	955470	683	0	correct_rejection	NA	0
30	Single	142	628	1114	6	0	0	956187	683	0	correct_rejection	NA	0
30	Single	143	629	1115	6	0	0	956903	684	0	correct_rejection	NA	0
30	Single	144	630	1116	7	0	0	957620	683	0	correct_rejection	NA	0
30	Single	145	631	1117	5	0	0	958337	683	0	correct_rejection	NA	0
30	Single	146	632	1118	8	0	0	959053	684	0	correct_rejection	NA	0
30	Single	147	633	1119	9	0	0	959770	683	0	correct_rejection	NA	0
30	Single	148	634	1120	8	0	0	960487	683	0	correct_rejection	NA	0
30	Single	149	635	1121	8	0	0	961203	684	0	correct_rejection	NA	0
30	Single	150	636	1122	4	0	0	961920	683	0	correct_rejection	NA	0
30	Single	151	637	1123	9	0	0	962637	683	0	correct_rejection	NA	0
30	Single	152	638	1124	5	0	0	963353	684	0	correct_rejection	NA	0
30	Single	153	639	1125	4	0	0	964070	683	0	correct_rejection	NA	0
30	Single	154	640	1126	4	0	0	964787	683	0	correct_rejection	NA	0
30	Single	155	641	1127	7	0	0	965503	684	0	correct_rejection	NA	0
30	Single	156	642	1128	9	0	0	966220	683	0	correct_rejection	NA	0
30	Single	157	643	1129	9	0	0	966937	683	0	correct_rejection	NA	0
30	Single	158	644	1130	6	0	0	967653	684	0	correct_rejection	NA	0
30	Single	159	645	1131	5	0	0	968370	683	0	correct_rejection	NA	0
30	Single	160	646	1132	0	1	1	969087	683	0	miss	NA	0
30	Single	161	647	1133	9	0	0	969803	684	0	correct_rejection	NA	0
30	Single	162	648	1134	7	0	0	970520	683	0	correct_rejection	NA	0
30	Nonet	1	1	1135	9	0	0	979420	683	0	correct_rejection	NA	6436
30	Nonet	2	2	1136	8	0	0	980136	684	0	correct_rejection	NA	0
30	Nonet	3	3	1137	7	0	0	980853	683	0	correct_rejection	NA	0
30	Nonet	4	4	1138	9	0	0	981570	683	0	correct_rejection	NA	0
30	Nonet	5	5	1139	8	0	0	982286	684	0	correct_rejection	NA	0
30	Nonet	6	6	1140	7	0	0	983003	683	0	correct_rejection	NA	0
30	Nonet	7	7	1141	9	0	0	983720	683	0	correct_rejection	NA	0
30	Nonet	8	8	1142	8	0	0	984436	684	0	correct_rejection	NA	0
30	Nonet	9	9	1143	7	0	0	985153	683	0	correct_rejection	NA	0
30	Nonet	10	10	1144	6	0	0	985870	683	0	correct_rejection	NA	0
30	Nonet	11	11	1145	5	0	0	986586	684	0	correct_rejection	NA	0
30	Nonet	12	12	1146	4	0	0	987303	683	0	correct_rejection	NA	0
30	Nonet	13	13	1147	6	0	0	988020	683	0	correct_rejection	NA	0
30	Nonet	14	14	1148	5	0	0	988736	684	0	correct_rejection	NA	0
30	Nonet	15	15	1149	4	0	0	989453	683	0	correct_rejection	NA	0
30	Nonet	16	16	1150	6	0	0	990170	683	0	correct_rejection	NA	0
30	Nonet	17	17	1151	0	1	1	990886	684	1	hit	406	0
30	Nonet	18	18	1152	5	0	0	991603	683	0	correct_rejection	NA	0
30	Nonet	19	19	1153	4	0	0	992320	683	0	correct_rejection	NA	0
30	Nonet	20	20	1154	6	0	0	993036	684	0	correct_rejection	NA	0
30	Nonet	21	21	1155	5	0	0	993753	683	0	correct_rejection	NA	0
30	Nonet	22	22	1156	0	1	1	994470	683	1	hit	433	0
30	Nonet	23	23	1157	4	0	0	995186	684	0	correct_rejection	NA	0
30	Nonet	24	24	1158	6	0	0	995903	683	0	correct_rejection	NA	0
30	Nonet	25	25	1159	5	0	0	996620	683	0	correct_rejection	NA	0
30	Nonet	26	26	1160	4	0	0	997336	684	0	correct_rejection	NA	0
30	Nonet	27	27	1161	6	0	0	998053	683	0	correct_rejection	NA	0
30	Nonet	28	28	1162	5	0	0	998769	684	0	correct_rejection	NA	0
30	Nonet	29	29	1163	4	0	0	999486	684	0	correct_rejection	NA	0
30	Nonet	30	30	1164	9	0	0	1000203	683	0	correct_rejection	NA	0
30	Nonet	31	31	1165	8	0	0	1000919	684	0	correct_rejection	NA	0
30	Nonet	32	32	1166	0	1	1	1001636	683	1	hit	468	0
30	Nonet	33	33	1167	7	0	0	1002353	683	0	correct_rejection	NA	0
30	Nonet	34	34	1168	9	0	0	1003069	684	0	correct_rejection	NA	0
30	Nonet	35	35	1169	8	0	0	1003786	683	0	correct_rejection	NA	0
30	Nonet	36	36	1170	7	0	0	1004503	683	0	correct_rejection	NA	0
30	Nonet	37	37	1171	9	0	0	1005219	684	0	correct_rejection	NA	0
30	Nonet	38	38	1172	8	0	0	1005936	683	0	correct_rejection	NA	0
30	Nonet	39	39	1173	7	0	0	1006653	683	0	correct_rejection	NA	0
30	Nonet	40	40	1174	4	0	0	1007369	684	0	correct_rejection	NA	0
30	Nonet	41	41	1175	5	0	0	1008086	683	0	correct_rejection	NA	0
30	Nonet	42	42	1176	6	0	0	1008803	683	0	correct_rejection	NA	0
30	Nonet	43	43	1177	0	1	2	1009519	684	1	hit	418	0
30	Nonet	44	44	1178	4	0	0	1010236	683	0	correct_rejection	NA	0
30	Nonet	45	45	1179	5	0	0	1010953	683	0	correct_rejection	NA	0
30	Nonet	46	46	1180	6	0	0	1011669	684	0	correct_rejection	NA	0
30	Nonet	47	47	1181	0	1	2	1012386	683	1	hit	515	0
30	Nonet	48	48	1182	4	0	0	1013103	683	0	correct_rejection	NA	0
30	Nonet	49	49	1183	5	0	0	1013819	684	0	correct_rejection	NA	0
30	Nonet	50	50	1184	6	0	0	1014536	683	0	correct_rejection	NA	0
30	Nonet	51	51	1185	4	0	0	1015253	683	0	correct_rejection	NA	0
30	Nonet	52	52	1186	5	0	0	1015969	684	0	correct_rejection	NA	0
30	Nonet	53	53	1187	0	1	1	1016686	683	1	hit	390	0
30	Nonet	54	54	1188	6	0	0	1017403	683	0	correct_rejection	NA	0
30	Nonet	55	55	1189	4	0	0	1018119	684	0	correct_rejection	NA	0
30	Nonet	56	56	1190	5	0	0	1018836	683	0	correct_rejection	NA	0
30	Nonet	57	57	1191	6	0	0	1019553	683	0	correct_rejection	NA	0
30	Nonet	58	58	1192	4	0	0	1020269	684	0	correct_rejection	NA	0
30	Nonet	59	59	1193	5	0	0	1020986	683	0	correct_rejection	NA	0
30	Nonet	60	60	1194	6	0	0	1021703	683	0	correct_rejection	NA	0
30	Nonet	61	61	1195	7	0	0	1022419	684	0	correct_rejection	NA	0
30	Nonet	62	62	1196	8	0	0	1023136	683	0	correct_rejection	NA	0
30	Nonet	63	63	1197	9	0	0	1023852	684	0	correct_rejection	NA	0
30	Nonet	64	64	1198	7	0	0	1024569	684	0	correct_rejection	NA	0
30	Nonet	65	65	1199	8	0	0	1025286	683	0	correct_rejection	NA	0
30	Nonet	66	66	1200	0	1	1	1026002	684	1	hit	525	0
30	Nonet	67	67	1201	9	0	0	1026719	683	0	correct_rejection	NA	0
30	Nonet	68	68	1202	7	0	0	1027436	683	0	correct_rejection	NA	0
30	Nonet	69	69	1203	8	0	0	1028152	684	0	correct_rejection	NA	0
30	Nonet	70	70	1204	9	0	0	1028869	683	0	correct_rejection	NA	0
30	Nonet	71	71	1205	4	0	0	1029586	683	0	correct_rejection	NA	0
30	Nonet	72	72	1206	5	0	0	1030302	684	0	correct_rejection	NA	0
30	Nonet	73	73	1207	6	0	0	1031019	683	0	correct_rejection	NA	0
30	Nonet	74	74	1208	4	0	0	1031736	683	0	correct_rejection	NA	0
30	Nonet	75	75	1209	5	0	0	1032452	684	0	correct_rejection	NA	0
30	Nonet	76	76	1210	6	0	0	1033169	683	0	correct_rejection	NA	0
30	Nonet	77	77	1211	4	0	0	1033886	683	0	correct_rejection	NA	0
30	Nonet	78	78	1212	5	0	0	1034602	684	0	correct_rejection	NA	0
30	Nonet	79	79	1213	6	0	0	1035319	683	0	correct_rejection	NA	0
30	Nonet	80	80	1214	9	0	0	1036036	683	0	correct_rejection	NA	0
30	Nonet	81	81	1215	8	0	0	1036752	684	0	correct_rejection	NA	0
30	Nonet	82	82	1216	0	1	1	1037469	683	1	hit	584	0
30	Nonet	83	83	1217	7	0	0	1038186	683	0	correct_rejection	NA	0
30	Nonet	84	84	1218	9	0	0	1038902	684	0	correct_rejection	NA	0
30	Nonet	85	85	1219	8	0	0	1039619	683	0	correct_rejection	NA	0
30	Nonet	86	86	1220	0	1	1	1040336	683	1	hit	629	0
30	Nonet	87	87	1221	7	0	0	1041052	684	0	correct_rejection	NA	0
30	Nonet	88	88	1222	9	0	0	1041769	683	0	correct_rejection	NA	0
30	Nonet	89	89	1223	8	0	0	1042486	683	0	correct_rejection	NA	0
30	Nonet	90	90	1224	7	0	0	1043202	684	0	correct_rejection	NA	0
30	Nonet	91	91	1225	0	1	3	1043919	683	1	hit	412	0
30	Nonet	92	92	1226	9	0	0	1044636	683	0	correct_rejection	NA	0
30	Nonet	93	93	1227	8	0	0	1045352	684	0	correct_rejection	NA	0
30	Nonet	94	94	1228	7	0	0	1046069	683	0	correct_rejection	NA	0
30	Nonet	95	95	1229	9	0	0	1046786	683	0	correct_rejection	NA	0
30	Nonet	96	96	1230	8	0	0	1047502	684	0	correct_rejection	NA	0
30	Nonet	97	97	1231	7	0	0	1048219	683	0	correct_rejection	NA	0
30	Nonet	98	98	1232	9	0	0	1048935	684	0	correct_rejection	NA	0
30	Nonet	99	99	1233	8	0	0	1049652	684	0	correct_rejection	NA	0
30	Nonet	100	100	1234	7	0	0	1050369	683	0	correct_rejection	NA	0
30	Nonet	101	101	1235	7	0	0	1051085	684	0	correct_rejection	NA	0
30	Nonet	102	102	1236	0	1	1	1051802	683	1	hit	530	0
30	Nonet	103	103	1237	8	0	0	1052519	683	0	correct_rejection	NA	0
30	Nonet	104	104	1238	9	0	0	1053235	684	0	correct_rejection	NA	0
30	Nonet	105	105	1239	7	0	0	1053952	683	0	correct_rejection	NA	0
30	Nonet	106	106	1240	8	0	0	1054669	683	0	correct_rejection	NA	0
30	Nonet	107	107	1241	9	0	0	1055385	684	0	correct_rejection	NA	0
30	Nonet	108	108	1242	7	0	0	1056102	683	0	correct_rejection	NA	0
30	Nonet	109	109	1243	8	0	0	1056819	683	0	correct_rejection	NA	0
30	Nonet	110	110	1244	9	0	0	1057535	684	0	correct_rejection	NA	0
30	Nonet	111	111	1245	6	0	0	1058252	683	0	correct_rejection	NA	0
30	Nonet	112	112	1246	5	0	0	1058969	683	0	correct_rejection	NA	0
30	Nonet	113	113	1247	0	1	1	1059685	684	1	hit	463	0
30	Nonet	114	114	1248	4	0	0	1060402	683	0	correct_rejection	NA	0
30	Nonet	115	115	1249	6	0	0	1061119	683	0	correct_rejection	NA	0
30	Nonet	116	116	1250	5	0	0	1061835	684	0	correct_rejection	NA	0
30	Nonet	117	117	1251	4	0	0	1062552	683	0	correct_rejection	NA	0
30	Nonet	118	118	1252	0	1	2	1063269	683	1	hit	433	0
30	Nonet	119	119	1253	6	0	0	1063985	684	0	correct_rejection	NA	0
30	Nonet	120	120	1254	5	0	0	1064702	683	0	correct_rejection	NA	0
30	Nonet	121	121	1255	4	0	0	1065419	683	0	correct_rejection	NA	0
30	Nonet	122	122	1256	4	0	0	1066135	684	0	correct_rejection	NA	0
30	Nonet	123	123	1257	5	0	0	1066852	683	0	correct_rejection	NA	0
30	Nonet	124	124	1258	6	0	0	1067569	683	0	correct_rejection	NA	0
30	Nonet	125	125	1259	4	0	0	1068285	684	0	correct_rejection	NA	0
30	Nonet	126	126	1260	5	0	0	1069002	683	0	correct_rejection	NA	0
30	Nonet	127	127	1261	0	1	1	1069719	683	0	miss	NA	0
30	Nonet	128	128	1262	6	0	0	1070435	684	1	false_alarm	0	0
30	Nonet	129	129	1263	4	0	0	1071152	683	0	correct_rejection	NA	0
30	Nonet	130	130	1264	0	1	1	1071869	683	1	hit	403	0
30	Nonet	131	131	1265	5	0	0	1072585	684	0	correct_rejection	NA	0
30	Nonet	132	132	1266	6	0	0	1073302	683	0	correct_rejection	NA	0
30	Nonet	133	133	1267	6	0	0	1074019	683	0	correct_rejection	NA	0
30	Nonet	134	134	1268	5	0	0	1074735	684	0	correct_rejection	NA	0
30	Nonet	135	135	1269	4	0	0	1075452	683	0	correct_rejection	NA	0
30	Nonet	136	136	1270	6	0	0	1076168	684	0	correct_rejection	NA	0
30	Nonet	137	137	1271	5	0	0	1076885	683	0	correct_rejection	NA	0
30	Nonet	138	138	1272	4	0	0	1077602	683	0	correct_rejection	NA	0
30	Nonet	139	139	1273	6	0	0	1078318	684	0	correct_rejection	NA	0
30	Nonet	140	140	1274	5	0	0	1079035	683	0	correct_rejection	NA	0
30	Nonet	141	141	1275	4	0	0	1079752	683	0	correct_rejection	NA	0
30	Nonet	142	142	1276	7	0	0	1080468	684	0	correct_rejection	NA	0
30	Nonet	143	143	1277	8	0	0	1081185	683	0	correct_rejection	NA	0
30	Nonet	144	144	1278	0	1	1	1081902	683	1	hit	519	0
30	Nonet	145	145	1279	9	0	0	1082618	684	0	correct_rejection	NA	0
30	Nonet	146	146	1280	7	0	0	1083335	683	0	correct_rejection	NA	0
30	Nonet	147	147	1281	8	0	0	1084052	683	0	correct_rejection	NA	0
30	Nonet	148	148	1282	9	0	0	1084768	684	0	correct_rejection	NA	0
30	Nonet	149	149	1283	0	1	2	1085485	683	0	miss	NA	0
30	Nonet	150	150	1284	7	0	0	1086202	683	0	correct_rejection	NA	0
30	Nonet	151	151	1285	8	0	0	1086918	684	0	correct_rejection	NA	0
30	Nonet	152	152	1286	9	0	0	1087635	683	0	correct_rejection	NA	0
30	Nonet	153	153	1287	7	0	0	1088352	683	0	correct_rejection	NA	0
30	Nonet	154	154	1288	8	0	0	1089068	684	0	correct_rejection	NA	0
30	Nonet	155	155	1289	9	0	0	1089785	683	0	correct_rejection	NA	0
30	Nonet	156	156	1290	7	0	0	1090502	683	0	correct_rejection	NA	0
30	Nonet	157	157	1291	8	0	0	1091218	684	0	correct_rejection	NA	0
30	Nonet	158	158	1292	9	0	0	1091935	683	0	correct_rejection	NA	0
30	Nonet	159	159	1293	0	1	2	1092652	683	1	hit	554	0
30	Nonet	160	160	1294	7	0	0	1093368	684	0	correct_rejection	NA	0
30	Nonet	161	161	1295	8	0	0	1094085	683	0	correct_rejection	NA	0
30	Nonet	162	162	1296	9	0	0	1094802	683	0	correct_rejection	NA	0
30	Triplet	1	649	1297	4	0	0	1104701	684	0	correct_rejection	NA	7727
30	Triplet	2	650	1298	5	0	0	1105418	683	0	correct_rejection	NA	0
30	Triplet	3	651	1299	6	0	0	1106135	683	0	correct_rejection	NA	0
30	Triplet	4	652	1300	6	0	0	1106851	684	0	correct_rejection	NA	0
30	Triplet	5	653	1301	5	0	0	1107568	683	0	correct_rejection	NA	0
30	Triplet	6	654	1302	4	0	0	1108285	683	0	correct_rejection	NA	0
30	Triplet	7	655	1303	4	0	0	1109001	684	0	correct_rejection	NA	0
30	Triplet	8	656	1304	5	0	0	1109718	683	0	correct_rejection	NA	0
30	Triplet	9	657	1305	6	0	0	1110435	683	0	correct_rejection	NA	0
30	Triplet	10	658	1306	9	0	0	1111151	684	0	correct_rejection	NA	0
30	Triplet	11	659	1307	0	1	1	1111868	683	1	hit	432	0
30	Triplet	12	660	1308	8	0	0	1112585	683	0	correct_rejection	NA	0
30	Triplet	13	661	1309	7	0	0	1113301	684	0	correct_rejection	NA	0
30	Triplet	14	662	1310	6	0	0	1114018	683	0	correct_rejection	NA	0
30	Triplet	15	663	1311	0	1	1	1114735	683	1	hit	487	0
30	Triplet	16	664	1312	5	0	0	1115451	684	0	correct_rejection	NA	0
30	Triplet	17	665	1313	4	0	0	1116168	683	0	correct_rejection	NA	0
30	Triplet	18	666	1314	6	0	0	1116885	683	0	correct_rejection	NA	0
30	Triplet	19	667	1315	5	0	0	1117601	684	0	correct_rejection	NA	0
30	Triplet	20	668	1316	4	0	0	1118318	683	0	correct_rejection	NA	0
30	Triplet	21	669	1317	7	0	0	1119035	683	0	correct_rejection	NA	0
30	Triplet	22	670	1318	8	0	0	1119751	684	0	correct_rejection	NA	0
30	Triplet	23	671	1319	9	0	0	1120468	683	0	correct_rejection	NA	0
30	Triplet	24	672	1320	6	0	0	1121185	683	0	correct_rejection	NA	0
30	Triplet	25	673	1321	0	1	1	1121901	684	1	hit	448	0
30	Triplet	26	674	1322	5	0	0	1122618	683	0	correct_rejection	NA	0
30	Triplet	27	675	1323	4	0	0	1123335	683	0	correct_rejection	NA	0
30	Triplet	28	676	1324	9	0	0	1124051	684	0	correct_rejection	NA	0
30	Triplet	29	677	1325	8	0	0	1124768	683	0	correct_rejection	NA	0
30	Triplet	30	678	1326	7	0	0	1125484	684	0	correct_rejection	NA	0
30	Triplet	31	679	1327	7	0	0	1126201	683	0	correct_rejection	NA	0
30	Triplet	32	680	1328	8	0	0	1126918	683	0	correct_rejection	NA	0
30	Triplet	33	681	1329	9	0	0	1127634	684	0	correct_rejection	NA	0
30	Triplet	34	682	1330	4	0	0	1128351	683	0	correct_rejection	NA	0
30	Triplet	35	683	1331	5	0	0	1129068	683	0	correct_rejection	NA	0
30	Triplet	36	684	1332	6	0	0	1129784	684	0	correct_rejection	NA	0
30	Triplet	37	685	1333	4	0	0	1130501	683	0	correct_rejection	NA	0
30	Triplet	38	686	1334	5	0	0	1131218	683	0	correct_rejection	NA	0
30	Triplet	39	687	1335	0	1	1	1131934	684	1	hit	442	0
30	Triplet	40	688	1336	6	0	0	1132651	683	0	correct_rejection	NA	0
30	Triplet	41	689	1337	7	0	0	1133368	683	0	correct_rejection	NA	0
30	Triplet	42	690	1338	8	0	0	1134084	684	0	correct_rejection	NA	0
30	Triplet	43	691	1339	9	0	0	1134801	683	0	correct_rejection	NA	0
30	Triplet	44	692	1340	7	0	0	1135518	683	0	correct_rejection	NA	0
30	Triplet	45	693	1341	8	0	0	1136234	684	0	correct_rejection	NA	0
30	Triplet	46	694	1342	9	0	0	1136951	683	0	correct_rejection	NA	0
30	Triplet	47	695	1343	9	0	0	1137668	683	0	correct_rejection	NA	0
30	Triplet	48	696	1344	8	0	0	1138384	684	0	correct_rejection	NA	0
30	Triplet	49	697	1345	0	1	1	1139101	683	1	hit	676	0
30	Triplet	50	698	1346	7	0	0	1139818	683	0	correct_rejection	NA	0
30	Triplet	51	699	1347	9	0	0	1140534	684	0	correct_rejection	NA	0
30	Triplet	52	700	1348	8	0	0	1141251	683	0	correct_rejection	NA	0
30	Triplet	53	701	1349	7	0	0	1141968	683	0	correct_rejection	NA	0
30	Triplet	54	702	1350	7	0	0	1142684	684	0	correct_rejection	NA	0
30	Triplet	55	703	1351	0	1	1	1143401	683	0	miss	NA	0
30	Triplet	56	704	1352	8	0	0	1144118	683	1	false_alarm	2	0
30	Triplet	57	705	1353	9	0	0	1144834	684	0	correct_rejection	NA	0
30	Triplet	58	706	1354	7	0	0	1145551	683	0	correct_rejection	NA	0
30	Triplet	59	707	1355	8	0	0	1146268	683	0	correct_rejection	NA	0
30	Triplet	60	708	1356	0	1	1	1146984	684	0	miss	NA	0
30	Triplet	61	709	1357	9	0	0	1147701	683	0	correct_rejection	NA	0
30	Triplet	62	710	1358	6	0	0	1148418	683	0	correct_rejection	NA	0
30	Triplet	63	711	1359	5	0	0	1149134	684	0	correct_rejection	NA	0
30	Triplet	64	712	1360	4	0	0	1149851	683	0	correct_rejection	NA	0
30	Triplet	65	713	1361	6	0	0	1150567	684	0	correct_rejection	NA	0
30	Triplet	66	714	1362	5	0	0	1151284	683	0	correct_rejection	NA	0
30	Triplet	67	715	1363	4	0	0	1152001	683	0	correct_rejection	NA	0
30	Triplet	68	716	1364	0	1	2	1152717	684	0	miss	NA	0
30	Triplet	69	717	1365	4	0	0	1153434	683	1	false_alarm	290	0
30	Triplet	70	718	1366	5	0	0	1154151	683	0	correct_rejection	NA	0
30	Triplet	71	719	1367	6	0	0	1154867	684	0	correct_rejection	NA	0
30	Triplet	72	720	1368	4	0	0	1155584	683	0	correct_rejection	NA	0
30	Triplet	73	721	1369	5	0	0	1156301	683	0	correct_rejection	NA	0
30	Triplet	74	722	1370	6	0	0	1157017	684	0	correct_rejection	NA	0
30	Triplet	75	723	1371	6	0	0	1157734	683	0	correct_rejection	NA	0
30	Triplet	76	724	1372	5	0	0	1158451	683	0	correct_rejection	NA	0
30	Triplet	77	725	1373	0	1	1	1159167	684	1	hit	510	0
30	Triplet	78	726	1374	4	0	0	1159884	683	0	correct_rejection	NA	0
30	Triplet	79	727	1375	7	0	0	1160601	683	0	correct_rejection	NA	0
30	Triplet	80	728	1376	8	0	0	1161317	684	0	correct_rejection	NA	0
30	Triplet	81	729	1377	9	0	0	1162034	683	0	correct_rejection	NA	0
30	Triplet	82	730	1378	4	0	0	1162751	683	0	correct_rejection	NA	0
30	Triplet	83	731	1379	5	0	0	1163467	684	0	correct_rejection	NA	0
30	Triplet	84	732	1380	6	0	0	1164184	683	0	correct_rejection	NA	0
30	Triplet	85	733	1381	9	0	0	1164901	683	0	correct_rejection	NA	0
30	Triplet	86	734	1382	8	0	0	1165617	684	0	correct_rejection	NA	0
30	Triplet	87	735	1383	7	0	0	1166334	683	0	correct_rejection	NA	0
30	Triplet	88	736	1384	9	0	0	1167051	683	0	correct_rejection	NA	0
30	Triplet	89	737	1385	8	0	0	1167767	684	0	correct_rejection	NA	0
30	Triplet	90	738	1386	7	0	0	1168484	683	0	correct_rejection	NA	0
30	Triplet	91	739	1387	7	0	0	1169201	683	0	correct_rejection	NA	0
30	Triplet	92	740	1388	8	0	0	1169917	684	0	correct_rejection	NA	0
30	Triplet	93	741	1389	9	0	0	1170634	683	0	correct_rejection	NA	0
30	Triplet	94	742	1390	9	0	0	1171351	683	0	correct_rejection	NA	0
30	Triplet	95	743	1391	8	0	0	1172067	684	0	correct_rejection	NA	0
30	Triplet	96	744	1392	7	0	0	1172784	683	0	correct_rejection	NA	0
30	Triplet	97	745	1393	6	0	0	1173501	683	0	correct_rejection	NA	0
30	Triplet	98	746	1394	5	0	0	1174217	684	0	correct_rejection	NA	0
30	Triplet	99	747	1395	4	0	0	1174934	683	0	correct_rejection	NA	0
30	Triplet	100	748	1396	9	0	0	1175650	684	0	correct_rejection	NA	0
30	Triplet	101	749	1397	8	0	0	1176367	683	0	correct_rejection	NA	0
30	Triplet	102	750	1398	0	1	1	1177084	683	0	miss	NA	0
30	Triplet	103	751	1399	7	0	0	1177800	684	1	false_alarm	164	0
30	Triplet	104	752	1400	4	0	0	1178517	683	0	correct_rejection	NA	0
30	Triplet	105	753	1401	5	0	0	1179234	683	0	correct_rejection	NA	0
30	Triplet	106	754	1402	6	0	0	1179950	684	0	correct_rejection	NA	0
30	Triplet	107	755	1403	7	0	0	1180667	683	0	correct_rejection	NA	0
30	Triplet	108	756	1404	8	0	0	1181384	683	0	correct_rejection	NA	0
30	Triplet	109	757	1405	9	0	0	1182100	684	0	correct_rejection	NA	0
30	Triplet	110	758	1406	0	1	2	1182817	683	1	hit	398	0
30	Triplet	111	759	1407	9	0	0	1183534	683	0	correct_rejection	NA	0
30	Triplet	112	760	1408	8	0	0	1184250	684	0	correct_rejection	NA	0
30	Triplet	113	761	1409	7	0	0	1184967	683	0	correct_rejection	NA	0
30	Triplet	114	762	1410	4	0	0	1185684	683	0	correct_rejection	NA	0
30	Triplet	115	763	1411	5	0	0	1186400	684	0	correct_rejection	NA	0
30	Triplet	116	764	1412	6	0	0	1187117	683	0	correct_rejection	NA	0
30	Triplet	117	765	1413	0	1	2	1187834	683	1	hit	486	0
30	Triplet	118	766	1414	4	0	0	1188550	684	0	correct_rejection	NA	0
30	Triplet	119	767	1415	5	0	0	1189267	683	0	correct_rejection	NA	0
30	Triplet	120	768	1416	6	0	0	1189984	683	0	correct_rejection	NA	0
30	Triplet	121	769	1417	9	0	0	1190700	684	0	correct_rejection	NA	0
30	Triplet	122	770	1418	8	0	0	1191417	683	0	correct_rejection	NA	0
30	Triplet	123	771	1419	0	1	1	1192134	683	0	miss	NA	0
30	Triplet	124	772	1420	7	0	0	1192850	684	0	correct_rejection	NA	0
30	Triplet	125	773	1421	7	0	0	1193567	683	0	correct_rejection	NA	0
30	Triplet	126	774	1422	8	0	0	1194284	683	0	correct_rejection	NA	0
30	Triplet	127	775	1423	9	0	0	1195000	684	0	correct_rejection	NA	0
30	Triplet	128	776	1424	0	1	2	1195717	683	0	miss	NA	0
30	Triplet	129	777	1425	6	0	0	1196434	683	0	correct_rejection	NA	0
30	Triplet	130	778	1426	5	0	0	1197150	684	0	correct_rejection	NA	0
30	Triplet	131	779	1427	4	0	0	1197867	683	0	correct_rejection	NA	0
30	Triplet	132	780	1428	7	0	0	1198584	683	0	correct_rejection	NA	0
30	Triplet	133	781	1429	8	0	0	1199300	684	0	correct_rejection	NA	0
30	Triplet	134	782	1430	9	0	0	1200017	683	0	correct_rejection	NA	0
30	Triplet	135	783	1431	7	0	0	1200733	684	0	correct_rejection	NA	0
30	Triplet	136	784	1432	8	0	0	1201450	683	0	correct_rejection	NA	0
30	Triplet	137	785	1433	9	0	0	1202167	683	0	correct_rejection	NA	0
30	Triplet	138	786	1434	4	0	0	1202883	684	0	correct_rejection	NA	0
30	Triplet	139	787	1435	0	1	1	1203600	683	1	hit	677	0
30	Triplet	140	788	1436	5	0	0	1204317	683	0	correct_rejection	NA	0
30	Triplet	141	789	1437	6	0	0	1205033	684	0	correct_rejection	NA	0
30	Triplet	142	790	1438	0	1	2	1205750	683	1	hit	385	0
30	Triplet	143	791	1439	6	0	0	1206467	683	0	correct_rejection	NA	0
30	Triplet	144	792	1440	5	0	0	1207183	684	0	correct_rejection	NA	0
30	Triplet	145	793	1441	4	0	0	1207900	683	0	correct_rejection	NA	0
30	Triplet	146	794	1442	6	0	0	1208617	683	0	correct_rejection	NA	0
30	Triplet	147	795	1443	5	0	0	1209333	684	0	correct_rejection	NA	0
30	Triplet	148	796	1444	4	0	0	1210050	683	0	correct_rejection	NA	0
30	Triplet	149	797	1445	0	1	2	1210767	683	1	hit	396	0
30	Triplet	150	798	1446	9	0	0	1211483	684	0	correct_rejection	NA	0
30	Triplet	151	799	1447	8	0	0	1212200	683	0	correct_rejection	NA	0
30	Triplet	152	800	1448	7	0	0	1212917	683	0	correct_rejection	NA	0
30	Triplet	153	801	1449	0	1	2	1213633	684	1	hit	415	0
30	Triplet	154	802	1450	9	0	0	1214350	683	0	correct_rejection	NA	0
30	Triplet	155	803	1451	8	0	0	1215067	683	0	correct_rejection	NA	0
30	Triplet	156	804	1452	7	0	0	1215783	684	0	correct_rejection	NA	0
30	Triplet	157	805	1453	6	0	0	1216500	683	0	correct_rejection	NA	0
30	Triplet	158	806	1454	5	0	0	1217217	683	0	correct_rejection	NA	0
30	Triplet	159	807	1455	4	0	0	1217933	684	0	correct_rejection	NA	0
30	Triplet	160	808	1456	4	0	0	1218650	683	0	correct_rejection	NA	0
30	Triplet	161	809	1457	5	0	0	1219367	683	0	correct_rejection	NA	0
30	Triplet	162	810	1458	6	0	0	1220083	684	0	correct_rejection	NA	0
30	Correct	1	325	1459	4	0	0	1229783	683	0	correct_rejection	NA	7807
30	Correct	2	326	1460	5	0	0	1230500	683	0	correct_rejection	NA	0
30	Correct	3	327	1461	6	0	0	1231216	684	0	correct_rejection	NA	0
30	Correct	4	328	1462	4	0	0	1231933	683	0	correct_rejection	NA	0
30	Correct	5	329	1463	5	0	0	1232650	683	0	correct_rejection	NA	0
30	Correct	6	330	1464	6	0	0	1233366	684	0	correct_rejection	NA	0
30	Correct	7	331	1465	4	0	0	1234083	683	0	correct_rejection	NA	0
30	Correct	8	332	1466	5	0	0	1234800	683	0	correct_rejection	NA	0
30	Correct	9	333	1467	6	0	0	1235516	684	0	correct_rejection	NA	0
30	Correct	10	334	1468	0	1	3	1236233	683	0	miss	NA	0
30	Correct	11	335	1469	6	0	0	1236950	683	0	correct_rejection	NA	0
30	Correct	12	336	1470	5	0	0	1237666	684	0	correct_rejection	NA	0
30	Correct	13	337	1471	4	0	0	1238383	683	0	correct_rejection	NA	0
30	Correct	14	338	1472	6	0	0	1239100	683	0	correct_rejection	NA	0
30	Correct	15	339	1473	5	0	0	1239816	684	0	correct_rejection	NA	0
30	Correct	16	340	1474	4	0	0	1240533	683	0	correct_rejection	NA	0
30	Correct	17	341	1475	6	0	0	1241250	683	0	correct_rejection	NA	0
30	Correct	18	342	1476	0	1	1	1241966	684	1	hit	467	0
30	Correct	19	343	1477	5	0	0	1242683	683	0	correct_rejection	NA	0
30	Correct	20	344	1478	4	0	0	1243400	683	0	correct_rejection	NA	0
30	Correct	21	345	1479	9	0	0	1244116	684	0	correct_rejection	NA	0
30	Correct	22	346	1480	8	0	0	1244833	683	0	correct_rejection	NA	0
30	Correct	23	347	1481	7	0	0	1245550	683	0	correct_rejection	NA	0
30	Correct	24	348	1482	0	1	2	1246266	684	1	hit	675	0
30	Correct	25	349	1483	9	0	0	1246983	683	0	correct_rejection	NA	0
30	Correct	26	350	1484	8	0	0	1247699	684	0	correct_rejection	NA	0
30	Correct	27	351	1485	7	0	0	1248416	684	0	correct_rejection	NA	0
30	Correct	28	352	1486	9	0	0	1249133	683	0	correct_rejection	NA	0
30	Correct	29	353	1487	8	0	0	1249849	684	0	correct_rejection	NA	0
30	Correct	30	354	1488	7	0	0	1250566	683	0	correct_rejection	NA	0
30	Correct	31	355	1489	7	0	0	1251283	683	0	correct_rejection	NA	0
30	Correct	32	356	1490	8	0	0	1251999	684	0	correct_rejection	NA	0
30	Correct	33	357	1491	9	0	0	1252716	683	0	correct_rejection	NA	0
30	Correct	34	358	1492	7	0	0	1253433	683	0	correct_rejection	NA	0
30	Correct	35	359	1493	8	0	0	1254149	684	0	correct_rejection	NA	0
30	Correct	36	360	1494	9	0	0	1254866	683	0	correct_rejection	NA	0
30	Correct	37	361	1495	7	0	0	1255583	683	0	correct_rejection	NA	0
30	Correct	38	362	1496	0	1	1	1256299	684	0	miss	NA	0
30	Correct	39	363	1497	8	0	0	1257016	683	0	correct_rejection	NA	0
30	Correct	40	364	1498	9	0	0	1257733	683	0	correct_rejection	NA	0
30	Correct	41	365	1499	4	0	0	1258449	684	0	correct_rejection	NA	0
30	Correct	42	366	1500	5	0	0	1259166	683	0	correct_rejection	NA	0
30	Correct	43	367	1501	6	0	0	1259883	683	0	correct_rejection	NA	0
30	Correct	44	368	1502	4	0	0	1260599	684	0	correct_rejection	NA	0
30	Correct	45	369	1503	5	0	0	1261316	683	0	correct_rejection	NA	0
30	Correct	46	370	1504	6	0	0	1262033	683	0	correct_rejection	NA	0
30	Correct	47	371	1505	4	0	0	1262749	684	0	correct_rejection	NA	0
30	Correct	48	372	1506	0	1	1	1263466	683	1	hit	371	0
30	Correct	49	373	1507	5	0	0	1264183	683	0	correct_rejection	NA	0
30	Correct	50	374	1508	6	0	0	1264899	684	0	correct_rejection	NA	0
30	Correct	51	375	1509	6	0	0	1265616	683	0	correct_rejection	NA	0
30	Correct	52	376	1510	5	0	0	1266333	683	0	correct_rejection	NA	0
30	Correct	53	377	1511	4	0	0	1267049	684	0	correct_rejection	NA	0
30	Correct	54	378	1512	6	0	0	1267766	683	0	correct_rejection	NA	0
30	Correct	55	379	1513	5	0	0	1268483	683	0	correct_rejection	NA	0
30	Correct	56	380	1514	4	0	0	1269199	684	0	correct_rejection	NA	0
30	Correct	57	381	1515	6	0	0	1269916	683	0	correct_rejection	NA	0
30	Correct	58	382	1516	5	0	0	1270633	683	0	correct_rejection	NA	0
30	Correct	59	383	1517	4	0	0	1271349	684	0	correct_rejection	NA	0
30	Correct	60	384	1518	9	0	0	1272066	683	0	correct_rejection	NA	0
30	Correct	61	385	1519	8	0	0	1272782	684	0	correct_rejection	NA	0
30	Correct	62	386	1520	7	0	0	1273499	684	0	correct_rejection	NA	0
30	Correct	63	387	1521	9	0	0	1274216	683	0	correct_rejection	NA	0
30	Correct	64	388	1522	8	0	0	1274932	684	0	correct_rejection	NA	0
30	Correct	65	389	1523	0	1	1	1275649	683	1	hit	500	0
30	Correct	66	390	1524	7	0	0	1276366	683	0	correct_rejection	NA	0
30	Correct	67	391	1525	9	0	0	1277082	684	0	correct_rejection	NA	0
30	Correct	68	392	1526	8	0	0	1277799	683	0	correct_rejection	NA	0
30	Correct	69	393	1527	7	0	0	1278516	683	0	correct_rejection	NA	0
30	Correct	70	394	1528	7	0	0	1279232	684	0	correct_rejection	NA	0
30	Correct	71	395	1529	8	0	0	1279949	683	0	correct_rejection	NA	0
30	Correct	72	396	1530	9	0	0	1280666	683	0	correct_rejection	NA	0
30	Correct	73	397	1531	0	1	2	1281382	684	1	hit	442	0
30	Correct	74	398	1532	7	0	0	1282099	683	0	correct_rejection	NA	0
30	Correct	75	399	1533	8	0	0	1282816	683	0	correct_rejection	NA	0
30	Correct	76	400	1534	0	1	1	1283532	684	1	hit	377	0
30	Correct	77	401	1535	9	0	0	1284249	683	0	correct_rejection	NA	0
30	Correct	78	402	1536	7	0	0	1284966	683	0	correct_rejection	NA	0
30	Correct	79	403	1537	8	0	0	1285682	684	0	correct_rejection	NA	0
30	Correct	80	404	1538	0	1	1	1286399	683	1	hit	407	0
30	Correct	81	405	1539	9	0	0	1287116	683	0	correct_rejection	NA	0
30	Correct	82	406	1540	4	0	0	1287832	684	0	correct_rejection	NA	0
30	Correct	83	407	1541	5	0	0	1288549	683	0	correct_rejection	NA	0
30	Correct	84	408	1542	0	1	1	1289266	683	1	hit	396	0
30	Correct	85	409	1543	6	0	0	1289982	684	0	correct_rejection	NA	0
30	Correct	86	410	1544	4	0	0	1290699	683	0	correct_rejection	NA	0
30	Correct	87	411	1545	5	0	0	1291416	683	0	correct_rejection	NA	0
30	Correct	88	412	1546	6	0	0	1292132	684	0	correct_rejection	NA	0
30	Correct	89	413	1547	4	0	0	1292849	683	0	correct_rejection	NA	0
30	Correct	90	414	1548	5	0	0	1293566	683	0	correct_rejection	NA	0
30	Correct	91	415	1549	6	0	0	1294282	684	0	correct_rejection	NA	0
30	Correct	92	416	1550	6	0	0	1294999	683	0	correct_rejection	NA	0
30	Correct	93	417	1551	5	0	0	1295716	683	0	correct_rejection	NA	0
30	Correct	94	418	1552	4	0	0	1296432	684	0	correct_rejection	NA	0
30	Correct	95	419	1553	6	0	0	1297149	683	0	correct_rejection	NA	0
30	Correct	96	420	1554	5	0	0	1297865	684	0	correct_rejection	NA	0
30	Correct	97	421	1555	4	0	0	1298582	684	0	correct_rejection	NA	0
30	Correct	98	422	1556	6	0	0	1299299	683	0	correct_rejection	NA	0
30	Correct	99	423	1557	5	0	0	1300015	684	1	false_alarm	557	0
30	Correct	100	424	1558	4	0	0	1300732	683	0	correct_rejection	NA	0
30	Correct	101	425	1559	9	0	0	1301449	683	0	correct_rejection	NA	0
30	Correct	102	426	1560	8	0	0	1302165	684	0	correct_rejection	NA	0
30	Correct	103	427	1561	7	0	0	1302882	683	0	correct_rejection	NA	0
30	Correct	104	428	1562	0	1	2	1303599	683	1	hit	396	0
30	Correct	105	429	1563	9	0	0	1304315	684	0	correct_rejection	NA	0
30	Correct	106	430	1564	8	0	0	1305032	683	0	correct_rejection	NA	0
30	Correct	107	431	1565	7	0	0	1305749	683	0	correct_rejection	NA	0
30	Correct	108	432	1566	9	0	0	1306465	684	0	correct_rejection	NA	0
30	Correct	109	433	1567	8	0	0	1307182	683	0	correct_rejection	NA	0
30	Correct	110	434	1568	7	0	0	1307899	683	0	correct_rejection	NA	0
30	Correct	111	435	1569	0	1	3	1308615	684	0	miss	NA	0
30	Correct	112	436	1570	7	0	0	1309332	683	0	correct_rejection	NA	0
30	Correct	113	437	1571	8	0	0	1310049	683	0	correct_rejection	NA	0
30	Correct	114	438	1572	9	0	0	1310765	684	0	correct_rejection	NA	0
30	Correct	115	439	1573	7	0	0	1311482	683	0	correct_rejection	NA	0
30	Correct	116	440	1574	0	1	1	1312199	683	1	hit	402	0
30	Correct	117	441	1575	8	0	0	1312915	684	0	correct_rejection	NA	0
30	Correct	118	442	1576	9	0	0	1313632	683	0	correct_rejection	NA	0
30	Correct	119	443	1577	7	0	0	1314349	683	0	correct_rejection	NA	0
30	Correct	120	444	1578	0	1	1	1315065	684	1	hit	367	0
30	Correct	121	445	1579	8	0	0	1315782	683	0	correct_rejection	NA	0
30	Correct	122	446	1580	9	0	0	1316499	683	0	correct_rejection	NA	0
30	Correct	123	447	1581	4	0	0	1317215	684	0	correct_rejection	NA	0
30	Correct	124	448	1582	5	0	0	1317932	683	0	correct_rejection	NA	0
30	Correct	125	449	1583	6	0	0	1318649	683	0	correct_rejection	NA	0
30	Correct	126	450	1584	4	0	0	1319365	684	0	correct_rejection	NA	0
30	Correct	127	451	1585	0	1	1	1320082	683	1	hit	358	0
30	Correct	128	452	1586	5	0	0	1320799	683	0	correct_rejection	NA	0
30	Correct	129	453	1587	6	0	0	1321515	684	0	correct_rejection	NA	0
30	Correct	130	454	1588	4	0	0	1322232	683	0	correct_rejection	NA	0
30	Correct	131	455	1589	5	0	0	1322948	684	0	correct_rejection	NA	0
30	Correct	132	456	1590	6	0	0	1323665	683	0	correct_rejection	NA	0
30	Correct	133	457	1591	6	0	0	1324382	683	0	correct_rejection	NA	0
30	Correct	134	458	1592	5	0	0	1325098	684	0	correct_rejection	NA	0
30	Correct	135	459	1593	0	1	1	1325815	683	1	hit	403	0
30	Correct	136	460	1594	4	0	0	1326532	683	0	correct_rejection	NA	0
30	Correct	137	461	1595	6	0	0	1327248	684	0	correct_rejection	NA	0
