ID	block	trial_block	trial_cat	trial_total	number	violation	level_violation	onset	duration	Response	Hit_Miss	RT	pre_trial_fixcross_ISI
first_trigger_at: 11213
trigger nr 3 at 13213
31	Nonet	1	649	1	6	0	0	21116	683	0	correct_rejection	NA	7816
31	Nonet	2	650	2	5	0	0	21832	684	0	correct_rejection	NA	0
31	Nonet	3	651	3	4	0	0	22549	683	0	correct_rejection	NA	0
31	Nonet	4	652	4	6	0	0	23266	683	0	correct_rejection	NA	0
31	Nonet	5	653	5	5	0	0	23982	684	0	correct_rejection	NA	0
31	Nonet	6	654	6	4	0	0	24699	683	0	correct_rejection	NA	0
31	Nonet	7	655	7	6	0	0	25416	683	0	correct_rejection	NA	0
31	Nonet	8	656	8	5	0	0	26132	684	0	correct_rejection	NA	0
31	Nonet	9	657	9	4	0	0	26849	683	0	correct_rejection	NA	0
31	Nonet	10	658	10	9	0	0	27566	683	0	correct_rejection	NA	0
31	Nonet	11	659	11	8	0	0	28282	684	0	correct_rejection	NA	0
31	Nonet	12	660	12	7	0	0	28999	683	0	correct_rejection	NA	0
31	Nonet	13	661	13	9	0	0	29716	683	0	correct_rejection	NA	0
31	Nonet	14	662	14	8	0	0	30432	684	0	correct_rejection	NA	0
31	Nonet	15	663	15	7	0	0	31149	683	0	correct_rejection	NA	0
31	Nonet	16	664	16	0	1	2	31866	683	1	hit	398	0
31	Nonet	17	665	17	9	0	0	32582	684	0	correct_rejection	NA	0
31	Nonet	18	666	18	8	0	0	33299	683	0	correct_rejection	NA	0
31	Nonet	19	667	19	7	0	0	34016	683	0	correct_rejection	NA	0
31	Nonet	20	668	20	0	1	3	34732	684	1	hit	417	0
31	Nonet	21	669	21	4	0	0	35449	683	0	correct_rejection	NA	0
31	Nonet	22	670	22	5	0	0	36166	683	0	correct_rejection	NA	0
31	Nonet	23	671	23	0	1	1	36882	684	1	hit	412	0
31	Nonet	24	672	24	6	0	0	37599	683	0	correct_rejection	NA	0
31	Nonet	25	673	25	4	0	0	38315	684	0	correct_rejection	NA	0
31	Nonet	26	674	26	5	0	0	39032	683	0	correct_rejection	NA	0
31	Nonet	27	675	27	6	0	0	39749	683	0	correct_rejection	NA	0
31	Nonet	28	676	28	4	0	0	40465	684	0	correct_rejection	NA	0
31	Nonet	29	677	29	5	0	0	41182	683	0	correct_rejection	NA	0
31	Nonet	30	678	30	0	1	1	41899	683	1	hit	358	0
31	Nonet	31	679	31	6	0	0	42615	684	0	correct_rejection	NA	0
31	Nonet	32	680	32	4	0	0	43332	683	0	correct_rejection	NA	0
31	Nonet	33	681	33	5	0	0	44049	683	0	correct_rejection	NA	0
31	Nonet	34	682	34	6	0	0	44765	684	0	correct_rejection	NA	0
31	Nonet	35	683	35	4	0	0	45482	683	0	correct_rejection	NA	0
31	Nonet	36	684	36	5	0	0	46199	683	0	correct_rejection	NA	0
31	Nonet	37	685	37	6	0	0	46915	684	0	correct_rejection	NA	0
31	Nonet	38	686	38	4	0	0	47632	683	0	correct_rejection	NA	0
31	Nonet	39	687	39	5	0	0	48349	683	0	correct_rejection	NA	0
31	Nonet	40	688	40	6	0	0	49065	684	0	correct_rejection	NA	0
31	Nonet	41	689	41	6	0	0	49782	683	0	correct_rejection	NA	0
31	Nonet	42	690	42	5	0	0	50499	683	0	correct_rejection	NA	0
31	Nonet	43	691	43	4	0	0	51215	684	0	correct_rejection	NA	0
31	Nonet	44	692	44	6	0	0	51932	683	0	correct_rejection	NA	0
31	Nonet	45	693	45	5	0	0	52649	683	0	correct_rejection	NA	0
31	Nonet	46	694	46	4	0	0	53365	684	0	correct_rejection	NA	0
31	Nonet	47	695	47	6	0	0	54082	683	0	correct_rejection	NA	0
31	Nonet	48	696	48	5	0	0	54799	683	0	correct_rejection	NA	0
31	Nonet	49	697	49	0	1	1	55515	684	1	hit	400	0
31	Nonet	50	698	50	4	0	0	56232	683	0	correct_rejection	NA	0
31	Nonet	51	699	51	6	0	0	56949	683	0	correct_rejection	NA	0
31	Nonet	52	700	52	5	0	0	57665	684	0	correct_rejection	NA	0
31	Nonet	53	701	53	4	0	0	58382	683	0	correct_rejection	NA	0
31	Nonet	54	702	54	6	0	0	59098	684	0	correct_rejection	NA	0
31	Nonet	55	703	55	0	1	1	59815	683	1	hit	396	0
31	Nonet	56	704	56	5	0	0	60532	683	0	correct_rejection	NA	0
31	Nonet	57	705	57	4	0	0	61248	684	0	correct_rejection	NA	0
31	Nonet	58	706	58	0	1	2	61965	683	1	hit	439	0
31	Nonet	59	707	59	6	0	0	62682	683	0	correct_rejection	NA	0
31	Nonet	60	708	60	5	0	0	63398	684	0	correct_rejection	NA	0
31	Nonet	61	709	61	4	0	0	64115	683	0	correct_rejection	NA	0
31	Nonet	62	710	62	4	0	0	64832	683	0	correct_rejection	NA	0
31	Nonet	63	711	63	5	0	0	65548	684	0	correct_rejection	NA	0
31	Nonet	64	712	64	6	0	0	66265	683	0	correct_rejection	NA	0
31	Nonet	65	713	65	4	0	0	66982	683	0	correct_rejection	NA	0
31	Nonet	66	714	66	5	0	0	67698	684	0	correct_rejection	NA	0
31	Nonet	67	715	67	6	0	0	68415	683	0	correct_rejection	NA	0
31	Nonet	68	716	68	4	0	0	69132	683	0	correct_rejection	NA	0
31	Nonet	69	717	69	5	0	0	69848	684	0	correct_rejection	NA	0
31	Nonet	70	718	70	6	0	0	70565	683	0	correct_rejection	NA	0
31	Nonet	71	719	71	7	0	0	71282	683	0	correct_rejection	NA	0
31	Nonet	72	720	72	8	0	0	71998	684	0	correct_rejection	NA	0
31	Nonet	73	721	73	9	0	0	72715	683	0	correct_rejection	NA	0
31	Nonet	74	722	74	0	1	2	73432	683	1	hit	331	0
31	Nonet	75	723	75	7	0	0	74148	684	0	correct_rejection	NA	0
31	Nonet	76	724	76	8	0	0	74865	683	0	correct_rejection	NA	0
31	Nonet	77	725	77	0	1	1	75582	683	1	hit	430	0
31	Nonet	78	726	78	9	0	0	76298	684	0	correct_rejection	NA	0
31	Nonet	79	727	79	7	0	0	77015	683	0	correct_rejection	NA	0
31	Nonet	80	728	80	8	0	0	77732	683	0	correct_rejection	NA	0
31	Nonet	81	729	81	9	0	0	78448	684	0	correct_rejection	NA	0
31	Nonet	82	730	82	6	0	0	79165	683	0	correct_rejection	NA	0
31	Nonet	83	731	83	5	0	0	79881	684	0	correct_rejection	NA	0
31	Nonet	84	732	84	4	0	0	80598	683	0	correct_rejection	NA	0
31	Nonet	85	733	85	6	0	0	81315	683	0	correct_rejection	NA	0
31	Nonet	86	734	86	5	0	0	82031	684	0	correct_rejection	NA	0
31	Nonet	87	735	87	4	0	0	82748	683	0	correct_rejection	NA	0
31	Nonet	88	736	88	0	1	2	83465	683	1	hit	364	0
31	Nonet	89	737	89	6	0	0	84181	684	0	correct_rejection	NA	0
31	Nonet	90	738	90	5	0	0	84898	683	0	correct_rejection	NA	0
31	Nonet	91	739	91	4	0	0	85615	683	0	correct_rejection	NA	0
31	Nonet	92	740	92	7	0	0	86331	684	0	correct_rejection	NA	0
31	Nonet	93	741	93	8	0	0	87048	683	0	correct_rejection	NA	0
31	Nonet	94	742	94	9	0	0	87765	683	0	correct_rejection	NA	0
31	Nonet	95	743	95	7	0	0	88481	684	0	correct_rejection	NA	0
31	Nonet	96	744	96	8	0	0	89198	683	0	correct_rejection	NA	0
31	Nonet	97	745	97	9	0	0	89915	683	0	correct_rejection	NA	0
31	Nonet	98	746	98	7	0	0	90631	684	0	correct_rejection	NA	0
31	Nonet	99	747	99	0	1	1	91348	683	1	hit	404	0
31	Nonet	100	748	100	8	0	0	92065	683	0	correct_rejection	NA	0
31	Nonet	101	749	101	9	0	0	92781	684	0	correct_rejection	NA	0
31	Nonet	102	750	102	4	0	0	93498	683	0	correct_rejection	NA	0
31	Nonet	103	751	103	0	1	1	94215	683	1	hit	453	0
31	Nonet	104	752	104	5	0	0	94931	684	0	correct_rejection	NA	0
31	Nonet	105	753	105	6	0	0	95648	683	0	correct_rejection	NA	0
31	Nonet	106	754	106	0	1	2	96365	683	1	hit	364	0
31	Nonet	107	755	107	4	0	0	97081	684	0	correct_rejection	NA	0
31	Nonet	108	756	108	5	0	0	97798	683	0	correct_rejection	NA	0
31	Nonet	109	757	109	6	0	0	98515	683	0	correct_rejection	NA	0
31	Nonet	110	758	110	4	0	0	99231	684	0	correct_rejection	NA	0
31	Nonet	111	759	111	5	0	0	99948	683	0	correct_rejection	NA	0
31	Nonet	112	760	112	6	0	0	100665	683	0	correct_rejection	NA	0
31	Nonet	113	761	113	9	0	0	101381	684	0	correct_rejection	NA	0
31	Nonet	114	762	114	8	0	0	102098	683	0	correct_rejection	NA	0
31	Nonet	115	763	115	7	0	0	102814	684	0	correct_rejection	NA	0
31	Nonet	116	764	116	9	0	0	103531	683	0	correct_rejection	NA	0
31	Nonet	117	765	117	0	1	1	104248	683	1	hit	339	0
31	Nonet	118	766	118	8	0	0	104964	684	0	correct_rejection	NA	0
31	Nonet	119	767	119	7	0	0	105681	683	0	correct_rejection	NA	0
31	Nonet	120	768	120	9	0	0	106398	683	0	correct_rejection	NA	0
31	Nonet	121	769	121	8	0	0	107114	684	0	correct_rejection	NA	0
31	Nonet	122	770	122	0	1	1	107831	683	1	hit	401	0
31	Nonet	123	771	123	7	0	0	108548	683	0	correct_rejection	NA	0
31	Nonet	124	772	124	9	0	0	109264	684	0	correct_rejection	NA	0
31	Nonet	125	773	125	8	0	0	109981	683	0	correct_rejection	NA	0
31	Nonet	126	774	126	7	0	0	110698	683	0	correct_rejection	NA	0
31	Nonet	127	775	127	0	1	2	111414	684	1	hit	340	0
31	Nonet	128	776	128	9	0	0	112131	683	0	correct_rejection	NA	0
31	Nonet	129	777	129	8	0	0	112848	683	0	correct_rejection	NA	0
31	Nonet	130	778	130	0	1	1	113564	684	1	hit	463	0
31	Nonet	131	779	131	7	0	0	114281	683	0	correct_rejection	NA	0
31	Nonet	132	780	132	9	0	0	114998	683	0	correct_rejection	NA	0
31	Nonet	133	781	133	8	0	0	115714	684	0	correct_rejection	NA	0
31	Nonet	134	782	134	7	0	0	116431	683	0	correct_rejection	NA	0
31	Nonet	135	783	135	7	0	0	117148	683	0	correct_rejection	NA	0
31	Nonet	136	784	136	8	0	0	117864	684	0	correct_rejection	NA	0
31	Nonet	137	785	137	9	0	0	118581	683	0	correct_rejection	NA	0
31	Nonet	138	786	138	7	0	0	119298	683	0	correct_rejection	NA	0
31	Nonet	139	787	139	8	0	0	120014	684	0	correct_rejection	NA	0
31	Nonet	140	788	140	9	0	0	120731	683	0	correct_rejection	NA	0
31	Nonet	141	789	141	7	0	0	121447	684	0	correct_rejection	NA	0
31	Nonet	142	790	142	8	0	0	122164	684	0	correct_rejection	NA	0
31	Nonet	143	791	143	9	0	0	122881	683	0	correct_rejection	NA	0
31	Nonet	144	792	144	0	1	3	123597	684	1	hit	358	0
31	Nonet	145	793	145	7	0	0	124314	683	0	correct_rejection	NA	0
31	Nonet	146	794	146	8	0	0	125031	683	0	correct_rejection	NA	0
31	Nonet	147	795	147	9	0	0	125747	684	0	correct_rejection	NA	0
31	Nonet	148	796	148	7	0	0	126464	683	0	correct_rejection	NA	0
31	Nonet	149	797	149	8	0	0	127181	683	0	correct_rejection	NA	0
31	Nonet	150	798	150	9	0	0	127897	684	0	correct_rejection	NA	0
31	Nonet	151	799	151	7	0	0	128614	683	0	correct_rejection	NA	0
31	Nonet	152	800	152	8	0	0	129331	683	0	correct_rejection	NA	0
31	Nonet	153	801	153	9	0	0	130047	684	0	correct_rejection	NA	0
31	Nonet	154	802	154	9	0	0	130764	683	0	correct_rejection	NA	0
31	Nonet	155	803	155	8	0	0	131481	683	0	correct_rejection	NA	0
31	Nonet	156	804	156	7	0	0	132197	684	0	correct_rejection	NA	0
31	Nonet	157	805	157	9	0	0	132914	683	0	correct_rejection	NA	0
31	Nonet	158	806	158	8	0	0	133631	683	0	correct_rejection	NA	0
31	Nonet	159	807	159	7	0	0	134347	684	0	correct_rejection	NA	0
31	Nonet	160	808	160	9	0	0	135064	683	0	correct_rejection	NA	0
31	Nonet	161	809	161	8	0	0	135781	683	0	correct_rejection	NA	0
31	Nonet	162	810	162	7	0	0	136497	684	0	correct_rejection	NA	0
31	Correct	1	325	163	4	0	0	146080	684	0	correct_rejection	NA	7807
31	Correct	2	326	164	5	0	0	146797	683	0	correct_rejection	NA	0
31	Correct	3	327	165	6	0	0	147514	683	0	correct_rejection	NA	0
31	Correct	4	328	166	4	0	0	148230	684	0	correct_rejection	NA	0
31	Correct	5	329	167	5	0	0	148947	683	0	correct_rejection	NA	0
31	Correct	6	330	168	6	0	0	149664	683	0	correct_rejection	NA	0
31	Correct	7	331	169	4	0	0	150380	684	0	correct_rejection	NA	0
31	Correct	8	332	170	5	0	0	151097	683	0	correct_rejection	NA	0
31	Correct	9	333	171	6	0	0	151814	683	0	correct_rejection	NA	0
31	Correct	10	334	172	0	1	3	152530	684	1	hit	388	0
31	Correct	11	335	173	6	0	0	153247	683	0	correct_rejection	NA	0
31	Correct	12	336	174	5	0	0	153964	683	0	correct_rejection	NA	0
31	Correct	13	337	175	4	0	0	154680	684	0	correct_rejection	NA	0
31	Correct	14	338	176	6	0	0	155397	683	0	correct_rejection	NA	0
31	Correct	15	339	177	5	0	0	156114	683	0	correct_rejection	NA	0
31	Correct	16	340	178	4	0	0	156830	684	0	correct_rejection	NA	0
31	Correct	17	341	179	6	0	0	157547	683	0	correct_rejection	NA	0
31	Correct	18	342	180	0	1	1	158264	683	1	hit	381	0
31	Correct	19	343	181	5	0	0	158980	684	0	correct_rejection	NA	0
31	Correct	20	344	182	4	0	0	159697	683	0	correct_rejection	NA	0
31	Correct	21	345	183	9	0	0	160414	683	0	correct_rejection	NA	0
31	Correct	22	346	184	8	0	0	161130	684	0	correct_rejection	NA	0
31	Correct	23	347	185	7	0	0	161847	683	0	correct_rejection	NA	0
31	Correct	24	348	186	0	1	2	162564	683	1	hit	395	0
31	Correct	25	349	187	9	0	0	163280	684	0	correct_rejection	NA	0
31	Correct	26	350	188	8	0	0	163997	683	0	correct_rejection	NA	0
31	Correct	27	351	189	7	0	0	164713	684	0	correct_rejection	NA	0
31	Correct	28	352	190	9	0	0	165430	683	0	correct_rejection	NA	0
31	Correct	29	353	191	8	0	0	166147	683	0	correct_rejection	NA	0
31	Correct	30	354	192	7	0	0	166863	684	0	correct_rejection	NA	0
31	Correct	31	355	193	7	0	0	167580	683	0	correct_rejection	NA	0
31	Correct	32	356	194	8	0	0	168297	683	0	correct_rejection	NA	0
31	Correct	33	357	195	9	0	0	169013	684	0	correct_rejection	NA	0
31	Correct	34	358	196	7	0	0	169730	683	0	correct_rejection	NA	0
31	Correct	35	359	197	8	0	0	170447	683	0	correct_rejection	NA	0
31	Correct	36	360	198	9	0	0	171163	684	0	correct_rejection	NA	0
31	Correct	37	361	199	7	0	0	171880	683	0	correct_rejection	NA	0
31	Correct	38	362	200	0	1	1	172597	683	1	hit	426	0
31	Correct	39	363	201	8	0	0	173313	684	0	correct_rejection	NA	0
31	Correct	40	364	202	9	0	0	174030	683	0	correct_rejection	NA	0
31	Correct	41	365	203	4	0	0	174747	683	0	correct_rejection	NA	0
31	Correct	42	366	204	5	0	0	175463	684	0	correct_rejection	NA	0
31	Correct	43	367	205	6	0	0	176180	683	0	correct_rejection	NA	0
31	Correct	44	368	206	4	0	0	176897	683	0	correct_rejection	NA	0
31	Correct	45	369	207	5	0	0	177613	684	0	correct_rejection	NA	0
31	Correct	46	370	208	6	0	0	178330	683	0	correct_rejection	NA	0
31	Correct	47	371	209	4	0	0	179047	683	0	correct_rejection	NA	0
31	Correct	48	372	210	0	1	1	179763	684	1	hit	375	0
31	Correct	49	373	211	5	0	0	180480	683	0	correct_rejection	NA	0
31	Correct	50	374	212	6	0	0	181197	683	0	correct_rejection	NA	0
31	Correct	51	375	213	6	0	0	181913	684	0	correct_rejection	NA	0
31	Correct	52	376	214	5	0	0	182630	683	0	correct_rejection	NA	0
31	Correct	53	377	215	4	0	0	183347	683	0	correct_rejection	NA	0
31	Correct	54	378	216	6	0	0	184063	684	0	correct_rejection	NA	0
31	Correct	55	379	217	5	0	0	184780	683	0	correct_rejection	NA	0
31	Correct	56	380	218	4	0	0	185496	684	0	correct_rejection	NA	0
31	Correct	57	381	219	6	0	0	186213	684	0	correct_rejection	NA	0
31	Correct	58	382	220	5	0	0	186930	683	0	correct_rejection	NA	0
31	Correct	59	383	221	4	0	0	187646	684	0	correct_rejection	NA	0
31	Correct	60	384	222	9	0	0	188363	683	0	correct_rejection	NA	0
31	Correct	61	385	223	8	0	0	189080	683	0	correct_rejection	NA	0
31	Correct	62	386	224	7	0	0	189796	684	0	correct_rejection	NA	0
31	Correct	63	387	225	9	0	0	190513	683	0	correct_rejection	NA	0
31	Correct	64	388	226	8	0	0	191230	683	0	correct_rejection	NA	0
31	Correct	65	389	227	0	1	1	191946	684	1	hit	461	0
31	Correct	66	390	228	7	0	0	192663	683	0	correct_rejection	NA	0
31	Correct	67	391	229	9	0	0	193380	683	0	correct_rejection	NA	0
31	Correct	68	392	230	8	0	0	194096	684	0	correct_rejection	NA	0
31	Correct	69	393	231	7	0	0	194813	683	0	correct_rejection	NA	0
31	Correct	70	394	232	7	0	0	195530	683	0	correct_rejection	NA	0
31	Correct	71	395	233	8	0	0	196246	684	0	correct_rejection	NA	0
31	Correct	72	396	234	9	0	0	196963	683	0	correct_rejection	NA	0
31	Correct	73	397	235	0	1	2	197680	683	1	hit	362	0
31	Correct	74	398	236	7	0	0	198396	684	0	correct_rejection	NA	0
31	Correct	75	399	237	8	0	0	199113	683	0	correct_rejection	NA	0
31	Correct	76	400	238	0	1	1	199830	683	1	hit	416	0
31	Correct	77	401	239	9	0	0	200546	684	0	correct_rejection	NA	0
31	Correct	78	402	240	7	0	0	201263	683	0	correct_rejection	NA	0
31	Correct	79	403	241	8	0	0	201980	683	0	correct_rejection	NA	0
31	Correct	80	404	242	0	1	1	202696	684	1	hit	385	0
31	Correct	81	405	243	9	0	0	203413	683	0	correct_rejection	NA	0
31	Correct	82	406	244	4	0	0	204130	683	0	correct_rejection	NA	0
31	Correct	83	407	245	5	0	0	204846	684	0	correct_rejection	NA	0
31	Correct	84	408	246	0	1	1	205563	683	1	hit	358	0
31	Correct	85	409	247	6	0	0	206280	683	0	correct_rejection	NA	0
31	Correct	86	410	248	4	0	0	206996	684	0	correct_rejection	NA	0
31	Correct	87	411	249	5	0	0	207713	683	0	correct_rejection	NA	0
31	Correct	88	412	250	6	0	0	208429	684	0	correct_rejection	NA	0
31	Correct	89	413	251	4	0	0	209146	683	0	correct_rejection	NA	0
31	Correct	90	414	252	5	0	0	209863	683	0	correct_rejection	NA	0
31	Correct	91	415	253	6	0	0	210579	684	0	correct_rejection	NA	0
31	Correct	92	416	254	6	0	0	211296	683	0	correct_rejection	NA	0
31	Correct	93	417	255	5	0	0	212013	683	0	correct_rejection	NA	0
31	Correct	94	418	256	4	0	0	212729	684	0	correct_rejection	NA	0
31	Correct	95	419	257	6	0	0	213446	683	0	correct_rejection	NA	0
31	Correct	96	420	258	5	0	0	214163	683	0	correct_rejection	NA	0
31	Correct	97	421	259	4	0	0	214879	684	0	correct_rejection	NA	0
31	Correct	98	422	260	6	0	0	215596	683	0	correct_rejection	NA	0
31	Correct	99	423	261	5	0	0	216313	683	0	correct_rejection	NA	0
31	Correct	100	424	262	4	0	0	217029	684	0	correct_rejection	NA	0
31	Correct	101	425	263	9	0	0	217746	683	0	correct_rejection	NA	0
31	Correct	102	426	264	8	0	0	218463	683	0	correct_rejection	NA	0
31	Correct	103	427	265	7	0	0	219179	684	0	correct_rejection	NA	0
31	Correct	104	428	266	0	1	2	219896	683	1	hit	447	0
31	Correct	105	429	267	9	0	0	220613	683	0	correct_rejection	NA	0
31	Correct	106	430	268	8	0	0	221329	684	0	correct_rejection	NA	0
31	Correct	107	431	269	7	0	0	222046	683	0	correct_rejection	NA	0
31	Correct	108	432	270	9	0	0	222763	683	0	correct_rejection	NA	0
31	Correct	109	433	271	8	0	0	223479	684	0	correct_rejection	NA	0
31	Correct	110	434	272	7	0	0	224196	683	0	correct_rejection	NA	0
31	Correct	111	435	273	0	1	3	224913	683	0	miss	NA	0
31	Correct	112	436	274	7	0	0	225629	684	0	correct_rejection	NA	0
31	Correct	113	437	275	8	0	0	226346	683	0	correct_rejection	NA	0
31	Correct	114	438	276	9	0	0	227063	683	0	correct_rejection	NA	0
31	Correct	115	439	277	7	0	0	227779	684	0	correct_rejection	NA	0
31	Correct	116	440	278	0	1	1	228496	683	1	hit	398	0
31	Correct	117	441	279	8	0	0	229212	684	0	correct_rejection	NA	0
31	Correct	118	442	280	9	0	0	229929	683	0	correct_rejection	NA	0
31	Correct	119	443	281	7	0	0	230646	683	0	correct_rejection	NA	0
31	Correct	120	444	282	0	1	1	231362	684	1	hit	397	0
31	Correct	121	445	283	8	0	0	232079	683	0	correct_rejection	NA	0
31	Correct	122	446	284	9	0	0	232796	683	0	correct_rejection	NA	0
31	Correct	123	447	285	4	0	0	233512	684	0	correct_rejection	NA	0
31	Correct	124	448	286	5	0	0	234229	683	0	correct_rejection	NA	0
31	Correct	125	449	287	6	0	0	234946	683	0	correct_rejection	NA	0
31	Correct	126	450	288	4	0	0	235662	684	0	correct_rejection	NA	0
31	Correct	127	451	289	0	1	1	236379	683	1	hit	358	0
31	Correct	128	452	290	5	0	0	237096	683	0	correct_rejection	NA	0
31	Correct	129	453	291	6	0	0	237812	684	0	correct_rejection	NA	0
31	Correct	130	454	292	4	0	0	238529	683	0	correct_rejection	NA	0
31	Correct	131	455	293	5	0	0	239246	683	0	correct_rejection	NA	0
31	Correct	132	456	294	6	0	0	239962	684	0	correct_rejection	NA	0
31	Correct	133	457	295	6	0	0	240679	683	0	correct_rejection	NA	0
31	Correct	134	458	296	5	0	0	241396	683	0	correct_rejection	NA	0
31	Correct	135	459	297	0	1	1	242112	684	1	hit	446	0
31	Correct	136	460	298	4	0	0	242829	683	0	correct_rejection	NA	0
31	Correct	137	461	299	6	0	0	243546	683	0	correct_rejection	NA	0
31	Correct	138	462	300	5	0	0	244262	684	0	correct_rejection	NA	0
31	Correct	139	463	301	4	0	0	244979	683	0	correct_rejection	NA	0
31	Correct	140	464	302	6	0	0	245696	683	0	correct_rejection	NA	0
31	Correct	141	465	303	5	0	0	246412	684	0	correct_rejection	NA	0
31	Correct	142	466	304	4	0	0	247129	683	0	correct_rejection	NA	0
31	Correct	143	467	305	9	0	0	247846	683	0	correct_rejection	NA	0
31	Correct	144	468	306	8	0	0	248562	684	0	correct_rejection	NA	0
31	Correct	145	469	307	7	0	0	249279	683	0	correct_rejection	NA	0
31	Correct	146	470	308	9	0	0	249995	684	0	correct_rejection	NA	0
31	Correct	147	471	309	0	1	1	250712	683	1	hit	376	0
31	Correct	148	472	310	8	0	0	251429	683	0	correct_rejection	NA	0
31	Correct	149	473	311	7	0	0	252145	684	0	correct_rejection	NA	0
31	Correct	150	474	312	9	0	0	252862	683	0	correct_rejection	NA	0
31	Correct	151	475	313	8	0	0	253579	683	0	correct_rejection	NA	0
31	Correct	152	476	314	7	0	0	254295	684	0	correct_rejection	NA	0
31	Correct	153	477	315	7	0	0	255012	683	0	correct_rejection	NA	0
31	Correct	154	478	316	8	0	0	255729	683	0	correct_rejection	NA	0
31	Correct	155	479	317	9	0	0	256445	684	0	correct_rejection	NA	0
31	Correct	156	480	318	0	1	2	257162	683	1	hit	366	0
31	Correct	157	481	319	7	0	0	257879	683	0	correct_rejection	NA	0
31	Correct	158	482	320	8	0	0	258595	684	0	correct_rejection	NA	0
31	Correct	159	483	321	9	0	0	259312	683	0	correct_rejection	NA	0
31	Correct	160	484	322	7	0	0	260029	683	0	correct_rejection	NA	0
31	Correct	161	485	323	8	0	0	260745	684	0	correct_rejection	NA	0
31	Correct	162	486	324	9	0	0	261462	683	0	correct_rejection	NA	0
31	Nonet	1	487	325	7	0	0	270895	684	0	correct_rejection	NA	7627
31	Nonet	2	488	326	8	0	0	271612	683	0	correct_rejection	NA	0
31	Nonet	3	489	327	9	0	0	272328	684	0	correct_rejection	NA	0
31	Nonet	4	490	328	0	1	2	273045	683	1	hit	349	0
31	Nonet	5	491	329	7	0	0	273762	683	0	correct_rejection	NA	0
31	Nonet	6	492	330	8	0	0	274478	684	0	correct_rejection	NA	0
31	Nonet	7	493	331	9	0	0	275195	683	0	correct_rejection	NA	0
31	Nonet	8	494	332	7	0	0	275912	683	0	correct_rejection	NA	0
31	Nonet	9	495	333	8	0	0	276628	684	0	correct_rejection	NA	0
31	Nonet	10	496	334	9	0	0	277345	683	0	correct_rejection	NA	0
31	Nonet	11	497	335	7	0	0	278062	683	0	correct_rejection	NA	0
31	Nonet	12	498	336	8	0	0	278778	684	0	correct_rejection	NA	0
31	Nonet	13	499	337	0	1	1	279495	683	1	hit	394	0
31	Nonet	14	500	338	9	0	0	280212	683	0	correct_rejection	NA	0
31	Nonet	15	501	339	7	0	0	280928	684	0	correct_rejection	NA	0
31	Nonet	16	502	340	0	1	1	281645	683	1	hit	464	0
31	Nonet	17	503	341	8	0	0	282362	683	0	correct_rejection	NA	0
31	Nonet	18	504	342	9	0	0	283078	684	0	correct_rejection	NA	0
31	Nonet	19	505	343	7	0	0	283795	683	0	correct_rejection	NA	0
31	Nonet	20	506	344	8	0	0	284512	683	0	correct_rejection	NA	0
31	Nonet	21	507	345	9	0	0	285228	684	0	correct_rejection	NA	0
31	Nonet	22	508	346	9	0	0	285945	683	0	correct_rejection	NA	0
31	Nonet	23	509	347	8	0	0	286662	683	0	correct_rejection	NA	0
31	Nonet	24	510	348	7	0	0	287378	684	0	correct_rejection	NA	0
31	Nonet	25	511	349	9	0	0	288095	683	0	correct_rejection	NA	0
31	Nonet	26	512	350	8	0	0	288812	683	0	correct_rejection	NA	0
31	Nonet	27	513	351	7	0	0	289528	684	0	correct_rejection	NA	0
31	Nonet	28	514	352	9	0	0	290245	683	0	correct_rejection	NA	0
31	Nonet	29	515	353	0	1	1	290962	683	1	hit	389	0
31	Nonet	30	516	354	8	0	0	291678	684	0	correct_rejection	NA	0
31	Nonet	31	517	355	7	0	0	292395	683	0	correct_rejection	NA	0
31	Nonet	32	518	356	9	0	0	293111	684	0	correct_rejection	NA	0
31	Nonet	33	519	357	8	0	0	293828	683	0	correct_rejection	NA	0
31	Nonet	34	520	358	7	0	0	294545	683	0	correct_rejection	NA	0
31	Nonet	35	521	359	9	0	0	295261	684	0	correct_rejection	NA	0
31	Nonet	36	522	360	0	1	1	295978	683	1	hit	406	0
31	Nonet	37	523	361	8	0	0	296695	683	0	correct_rejection	NA	0
31	Nonet	38	524	362	7	0	0	297411	684	0	correct_rejection	NA	0
31	Nonet	39	525	363	9	0	0	298128	683	0	correct_rejection	NA	0
31	Nonet	40	526	364	8	0	0	298845	683	0	correct_rejection	NA	0
31	Nonet	41	527	365	7	0	0	299561	684	0	correct_rejection	NA	0
31	Nonet	42	528	366	4	0	0	300278	683	0	correct_rejection	NA	0
31	Nonet	43	529	367	5	0	0	300995	683	0	correct_rejection	NA	0
31	Nonet	44	530	368	6	0	0	301711	684	0	correct_rejection	NA	0
31	Nonet	45	531	369	4	0	0	302428	683	0	correct_rejection	NA	0
31	Nonet	46	532	370	5	0	0	303145	683	0	correct_rejection	NA	0
31	Nonet	47	533	371	0	1	1	303861	684	1	hit	425	0
31	Nonet	48	534	372	6	0	0	304578	683	0	correct_rejection	NA	0
31	Nonet	49	535	373	4	0	0	305295	683	0	correct_rejection	NA	0
31	Nonet	50	536	374	5	0	0	306011	684	0	correct_rejection	NA	0
31	Nonet	51	537	375	6	0	0	306728	683	0	correct_rejection	NA	0
31	Nonet	52	538	376	6	0	0	307445	683	0	correct_rejection	NA	0
31	Nonet	53	539	377	5	0	0	308161	684	0	correct_rejection	NA	0
31	Nonet	54	540	378	4	0	0	308878	683	0	correct_rejection	NA	0
31	Nonet	55	541	379	6	0	0	309595	683	0	correct_rejection	NA	0
31	Nonet	56	542	380	5	0	0	310311	684	0	correct_rejection	NA	0
31	Nonet	57	543	381	4	0	0	311028	683	0	correct_rejection	NA	0
31	Nonet	58	544	382	6	0	0	311745	683	0	correct_rejection	NA	0
31	Nonet	59	545	383	5	0	0	312461	684	0	correct_rejection	NA	0
31	Nonet	60	546	384	4	0	0	313178	683	0	correct_rejection	NA	0
31	Nonet	61	547	385	4	0	0	313894	684	0	correct_rejection	NA	0
31	Nonet	62	548	386	5	0	0	314611	683	0	correct_rejection	NA	0
31	Nonet	63	549	387	6	0	0	315328	683	0	correct_rejection	NA	0
31	Nonet	64	550	388	4	0	0	316044	684	0	correct_rejection	NA	0
31	Nonet	65	551	389	5	0	0	316761	683	0	correct_rejection	NA	0
31	Nonet	66	552	390	6	0	0	317478	683	0	correct_rejection	NA	0
31	Nonet	67	553	391	0	1	2	318194	684	1	hit	439	0
31	Nonet	68	554	392	4	0	0	318911	683	0	correct_rejection	NA	0
31	Nonet	69	555	393	5	0	0	319628	683	0	correct_rejection	NA	0
31	Nonet	70	556	394	6	0	0	320344	684	0	correct_rejection	NA	0
31	Nonet	71	557	395	7	0	0	321061	683	0	correct_rejection	NA	0
31	Nonet	72	558	396	8	0	0	321778	683	0	correct_rejection	NA	0
31	Nonet	73	559	397	9	0	0	322494	684	0	correct_rejection	NA	0
31	Nonet	74	560	398	7	0	0	323211	683	0	correct_rejection	NA	0
31	Nonet	75	561	399	8	0	0	323928	683	0	correct_rejection	NA	0
31	Nonet	76	562	400	9	0	0	324644	684	0	correct_rejection	NA	0
31	Nonet	77	563	401	7	0	0	325361	683	0	correct_rejection	NA	0
31	Nonet	78	564	402	8	0	0	326078	683	0	correct_rejection	NA	0
31	Nonet	79	565	403	9	0	0	326794	684	0	correct_rejection	NA	0
31	Nonet	80	566	404	6	0	0	327511	683	0	correct_rejection	NA	0
31	Nonet	81	567	405	5	0	0	328228	683	0	correct_rejection	NA	0
31	Nonet	82	568	406	0	1	1	328944	684	1	hit	402	0
31	Nonet	83	569	407	4	0	0	329661	683	0	correct_rejection	NA	0
31	Nonet	84	570	408	6	0	0	330378	683	0	correct_rejection	NA	0
31	Nonet	85	571	409	5	0	0	331094	684	0	correct_rejection	NA	0
31	Nonet	86	572	410	4	0	0	331811	683	0	correct_rejection	NA	0
31	Nonet	87	573	411	0	1	2	332528	683	1	hit	432	0
31	Nonet	88	574	412	6	0	0	333244	684	0	correct_rejection	NA	0
31	Nonet	89	575	413	5	0	0	333961	683	0	correct_rejection	NA	0
31	Nonet	90	576	414	4	0	0	334677	684	0	correct_rejection	NA	0
31	Nonet	91	577	415	9	0	0	335394	684	0	correct_rejection	NA	0
31	Nonet	92	578	416	8	0	0	336111	683	0	correct_rejection	NA	0
31	Nonet	93	579	417	7	0	0	336827	684	0	correct_rejection	NA	0
31	Nonet	94	580	418	9	0	0	337544	683	0	correct_rejection	NA	0
31	Nonet	95	581	419	8	0	0	338261	683	0	correct_rejection	NA	0
31	Nonet	96	582	420	7	0	0	338977	684	0	correct_rejection	NA	0
31	Nonet	97	583	421	0	1	2	339694	683	1	hit	381	0
31	Nonet	98	584	422	9	0	0	340411	683	0	correct_rejection	NA	0
31	Nonet	99	585	423	8	0	0	341127	684	0	correct_rejection	NA	0
31	Nonet	100	586	424	7	0	0	341844	683	0	correct_rejection	NA	0
31	Nonet	101	587	425	6	0	0	342561	683	0	correct_rejection	NA	0
31	Nonet	102	588	426	5	0	0	343277	684	0	correct_rejection	NA	0
31	Nonet	103	589	427	0	1	1	343994	683	1	hit	437	0
31	Nonet	104	590	428	4	0	0	344711	683	0	correct_rejection	NA	0
31	Nonet	105	591	429	6	0	0	345427	684	0	correct_rejection	NA	0
31	Nonet	106	592	430	5	0	0	346144	683	0	correct_rejection	NA	0
31	Nonet	107	593	431	4	0	0	346861	683	0	correct_rejection	NA	0
31	Nonet	108	594	432	6	0	0	347577	684	0	correct_rejection	NA	0
31	Nonet	109	595	433	5	0	0	348294	683	0	correct_rejection	NA	0
31	Nonet	110	596	434	4	0	0	349011	683	0	correct_rejection	NA	0
31	Nonet	111	597	435	6	0	0	349727	684	0	correct_rejection	NA	0
31	Nonet	112	598	436	5	0	0	350444	683	0	correct_rejection	NA	0
31	Nonet	113	599	437	4	0	0	351161	683	0	correct_rejection	NA	0
31	Nonet	114	600	438	6	0	0	351877	684	0	correct_rejection	NA	0
31	Nonet	115	601	439	5	0	0	352594	683	0	correct_rejection	NA	0
31	Nonet	116	602	440	4	0	0	353311	683	0	correct_rejection	NA	0
31	Nonet	117	603	441	6	0	0	354027	684	0	correct_rejection	NA	0
31	Nonet	118	604	442	0	1	1	354744	683	1	hit	386	0
31	Nonet	119	605	443	5	0	0	355460	684	0	correct_rejection	NA	0
31	Nonet	120	606	444	4	0	0	356177	683	0	correct_rejection	NA	0
31	Nonet	121	607	445	7	0	0	356894	683	0	correct_rejection	NA	0
31	Nonet	122	608	446	8	0	0	357610	684	0	correct_rejection	NA	0
31	Nonet	123	609	447	0	1	1	358327	683	1	hit	384	0
31	Nonet	124	610	448	9	0	0	359044	683	0	correct_rejection	NA	0
31	Nonet	125	611	449	7	0	0	359760	684	0	correct_rejection	NA	0
31	Nonet	126	612	450	0	1	1	360477	683	1	hit	442	0
31	Nonet	127	613	451	8	0	0	361194	683	0	correct_rejection	NA	0
31	Nonet	128	614	452	9	0	0	361910	684	0	correct_rejection	NA	0
31	Nonet	129	615	453	0	1	2	362627	683	1	hit	418	0
31	Nonet	130	616	454	7	0	0	363344	683	0	correct_rejection	NA	0
31	Nonet	131	617	455	8	0	0	364060	684	0	correct_rejection	NA	0
31	Nonet	132	618	456	9	0	0	364777	683	0	correct_rejection	NA	0
31	Nonet	133	619	457	4	0	0	365494	683	0	correct_rejection	NA	0
31	Nonet	134	620	458	5	0	0	366210	684	0	correct_rejection	NA	0
31	Nonet	135	621	459	6	0	0	366927	683	0	correct_rejection	NA	0
31	Nonet	136	622	460	4	0	0	367644	683	0	correct_rejection	NA	0
31	Nonet	137	623	461	5	0	0	368360	684	0	correct_rejection	NA	0
31	Nonet	138	624	462	6	0	0	369077	683	0	correct_rejection	NA	0
31	Nonet	139	625	463	4	0	0	369794	683	0	correct_rejection	NA	0
31	Nonet	140	626	464	5	0	0	370510	684	0	correct_rejection	NA	0
31	Nonet	141	627	465	6	0	0	371227	683	0	correct_rejection	NA	0
31	Nonet	142	628	466	4	0	0	371944	683	0	correct_rejection	NA	0
31	Nonet	143	629	467	5	0	0	372660	684	0	correct_rejection	NA	0
31	Nonet	144	630	468	6	0	0	373377	683	0	correct_rejection	NA	0
31	Nonet	145	631	469	4	0	0	374094	683	0	correct_rejection	NA	0
31	Nonet	146	632	470	0	1	1	374810	684	1	hit	471	0
31	Nonet	147	633	471	5	0	0	375527	683	0	correct_rejection	NA	0
31	Nonet	148	634	472	6	0	0	376244	683	0	correct_rejection	NA	0
31	Nonet	149	635	473	0	1	2	376960	684	1	hit	468	0
31	Nonet	150	636	474	4	0	0	377677	683	0	correct_rejection	NA	0
31	Nonet	151	637	475	5	0	0	378393	684	0	correct_rejection	NA	0
31	Nonet	152	638	476	6	0	0	379110	683	0	correct_rejection	NA	0
31	Nonet	153	639	477	9	0	0	379827	683	0	correct_rejection	NA	0
31	Nonet	154	640	478	8	0	0	380543	684	0	correct_rejection	NA	0
31	Nonet	155	641	479	7	0	0	381260	683	0	correct_rejection	NA	0
31	Nonet	156	642	480	9	0	0	381977	683	0	correct_rejection	NA	0
31	Nonet	157	643	481	8	0	0	382693	684	0	correct_rejection	NA	0
31	Nonet	158	644	482	7	0	0	383410	683	0	correct_rejection	NA	0
31	Nonet	159	645	483	9	0	0	384127	683	0	correct_rejection	NA	0
31	Nonet	160	646	484	8	0	0	384843	684	0	correct_rejection	NA	0
31	Nonet	161	647	485	0	1	1	385560	683	1	hit	402	0
31	Nonet	162	648	486	7	0	0	386277	683	0	correct_rejection	NA	0
31	Single	1	649	487	8	0	0	395610	683	0	correct_rejection	NA	7337
31	Single	2	650	488	9	0	0	396327	683	0	correct_rejection	NA	0
31	Single	3	651	489	8	0	0	397043	684	0	correct_rejection	NA	0
31	Single	4	652	490	5	0	0	397760	683	0	correct_rejection	NA	0
31	Single	5	653	491	4	0	0	398476	684	0	correct_rejection	NA	0
31	Single	6	654	492	4	0	0	399193	683	0	correct_rejection	NA	0
31	Single	7	655	493	9	0	0	399910	683	0	correct_rejection	NA	0
31	Single	8	656	494	9	0	0	400626	684	0	correct_rejection	NA	0
31	Single	9	657	495	4	0	0	401343	683	0	correct_rejection	NA	0
31	Single	10	658	496	7	0	0	402060	683	0	correct_rejection	NA	0
31	Single	11	659	497	4	0	0	402776	684	0	correct_rejection	NA	0
31	Single	12	660	498	5	0	0	403493	683	0	correct_rejection	NA	0
31	Single	13	661	499	7	0	0	404210	683	0	correct_rejection	NA	0
31	Single	14	662	500	6	0	0	404926	684	0	correct_rejection	NA	0
31	Single	15	663	501	8	0	0	405643	683	0	correct_rejection	NA	0
31	Single	16	664	502	7	0	0	406360	683	0	correct_rejection	NA	0
31	Single	17	665	503	5	0	0	407076	684	0	correct_rejection	NA	0
31	Single	18	666	504	5	0	0	407793	683	0	correct_rejection	NA	0
31	Single	19	667	505	9	0	0	408510	683	0	correct_rejection	NA	0
31	Single	20	668	506	5	0	0	409226	684	0	correct_rejection	NA	0
31	Single	21	669	507	0	1	1	409943	683	1	hit	373	0
31	Single	22	670	508	8	0	0	410660	683	0	correct_rejection	NA	0
31	Single	23	671	509	6	0	0	411376	684	0	correct_rejection	NA	0
31	Single	24	672	510	5	0	0	412093	683	0	correct_rejection	NA	0
31	Single	25	673	511	6	0	0	412810	683	0	correct_rejection	NA	0
31	Single	26	674	512	6	0	0	413526	684	0	correct_rejection	NA	0
31	Single	27	675	513	7	0	0	414243	683	0	correct_rejection	NA	0
31	Single	28	676	514	9	0	0	414960	683	0	correct_rejection	NA	0
31	Single	29	677	515	6	0	0	415676	684	0	correct_rejection	NA	0
31	Single	30	678	516	9	0	0	416393	683	0	correct_rejection	NA	0
31	Single	31	679	517	7	0	0	417110	683	0	correct_rejection	NA	0
31	Single	32	680	518	7	0	0	417826	684	0	correct_rejection	NA	0
31	Single	33	681	519	0	1	1	418543	683	1	hit	375	0
31	Single	34	682	520	8	0	0	419259	684	0	correct_rejection	NA	0
31	Single	35	683	521	8	0	0	419976	684	0	correct_rejection	NA	0
31	Single	36	684	522	4	0	0	420693	683	0	correct_rejection	NA	0
31	Single	37	685	523	6	0	0	421409	684	0	correct_rejection	NA	0
31	Single	38	686	524	4	0	0	422126	683	0	correct_rejection	NA	0
31	Single	39	687	525	7	0	0	422843	683	0	correct_rejection	NA	0
31	Single	40	688	526	9	0	0	423559	684	0	correct_rejection	NA	0
31	Single	41	689	527	5	0	0	424276	683	0	correct_rejection	NA	0
31	Single	42	690	528	9	0	0	424993	683	0	correct_rejection	NA	0
31	Single	43	691	529	4	0	0	425709	684	0	correct_rejection	NA	0
31	Single	44	692	530	8	0	0	426426	683	0	correct_rejection	NA	0
31	Single	45	693	531	4	0	0	427143	683	0	correct_rejection	NA	0
31	Single	46	694	532	9	0	0	427859	684	0	correct_rejection	NA	0
31	Single	47	695	533	7	0	0	428576	683	0	correct_rejection	NA	0
31	Single	48	696	534	8	0	0	429293	683	0	correct_rejection	NA	0
31	Single	49	697	535	9	0	0	430009	684	0	correct_rejection	NA	0
31	Single	50	698	536	6	0	0	430726	683	0	correct_rejection	NA	0
31	Single	51	699	537	8	0	0	431443	683	0	correct_rejection	NA	0
31	Single	52	700	538	8	0	0	432159	684	0	correct_rejection	NA	0
31	Single	53	701	539	5	0	0	432876	683	0	correct_rejection	NA	0
31	Single	54	702	540	8	0	0	433593	683	0	correct_rejection	NA	0
31	Single	55	703	541	7	0	0	434309	684	0	correct_rejection	NA	0
31	Single	56	704	542	7	0	0	435026	683	0	correct_rejection	NA	0
31	Single	57	705	543	4	0	0	435743	683	0	correct_rejection	NA	0
31	Single	58	706	544	0	1	1	436459	684	1	hit	401	0
31	Single	59	707	545	4	0	0	437176	683	0	correct_rejection	NA	0
31	Single	60	708	546	6	0	0	437893	683	0	correct_rejection	NA	0
31	Single	61	709	547	5	0	0	438609	684	0	correct_rejection	NA	0
31	Single	62	710	548	4	0	0	439326	683	0	correct_rejection	NA	0
31	Single	63	711	549	7	0	0	440043	683	0	correct_rejection	NA	0
31	Single	64	712	550	6	0	0	440759	684	0	correct_rejection	NA	0
31	Single	65	713	551	6	0	0	441476	683	0	correct_rejection	NA	0
31	Single	66	714	552	9	0	0	442192	684	0	correct_rejection	NA	0
31	Single	67	715	553	0	1	1	442909	683	1	hit	392	0
31	Single	68	716	554	9	0	0	443626	683	0	correct_rejection	NA	0
31	Single	69	717	555	8	0	0	444342	684	0	correct_rejection	NA	0
31	Single	70	718	556	0	1	1	445059	683	0	miss	NA	0
31	Single	71	719	557	6	0	0	445776	683	0	correct_rejection	NA	0
31	Single	72	720	558	4	0	0	446492	684	0	correct_rejection	NA	0
31	Single	73	721	559	5	0	0	447209	683	0	correct_rejection	NA	0
31	Single	74	722	560	5	0	0	447926	683	0	correct_rejection	NA	0
31	Single	75	723	561	0	1	1	448642	684	1	hit	362	0
31	Single	76	724	562	6	0	0	449359	683	0	correct_rejection	NA	0
31	Single	77	725	563	7	0	0	450076	683	0	correct_rejection	NA	0
31	Single	78	726	564	0	1	1	450792	684	1	hit	466	0
31	Single	79	727	565	5	0	0	451509	683	0	correct_rejection	NA	0
31	Single	80	728	566	5	0	0	452226	683	0	correct_rejection	NA	0
31	Single	81	729	567	4	0	0	452942	684	0	correct_rejection	NA	0
31	Single	82	730	568	0	1	1	453659	683	1	hit	382	0
31	Single	83	731	569	9	0	0	454376	683	0	correct_rejection	NA	0
31	Single	84	732	570	5	0	0	455092	684	0	correct_rejection	NA	0
31	Single	85	733	571	6	0	0	455809	683	0	correct_rejection	NA	0
31	Single	86	734	572	4	0	0	456526	683	0	correct_rejection	NA	0
31	Single	87	735	573	0	1	1	457242	684	1	hit	375	0
31	Single	88	736	574	7	0	0	457959	683	0	correct_rejection	NA	0
31	Single	89	737	575	9	0	0	458676	683	0	correct_rejection	NA	0
31	Single	90	738	576	8	0	0	459392	684	0	correct_rejection	NA	0
31	Single	91	739	577	8	0	0	460109	683	0	correct_rejection	NA	0
31	Single	92	740	578	7	0	0	460826	683	0	correct_rejection	NA	0
31	Single	93	741	579	8	0	0	461542	684	0	correct_rejection	NA	0
31	Single	94	742	580	0	1	1	462259	683	1	hit	426	0
31	Single	95	743	581	4	0	0	462975	684	0	correct_rejection	NA	0
31	Single	96	744	582	8	0	0	463692	683	0	correct_rejection	NA	0
31	Single	97	745	583	5	0	0	464409	683	0	correct_rejection	NA	0
31	Single	98	746	584	5	0	0	465125	684	0	correct_rejection	NA	0
31	Single	99	747	585	8	0	0	465842	683	0	correct_rejection	NA	0
31	Single	100	748	586	9	0	0	466559	683	0	correct_rejection	NA	0
31	Single	101	749	587	4	0	0	467275	684	0	correct_rejection	NA	0
31	Single	102	750	588	4	0	0	467992	683	0	correct_rejection	NA	0
31	Single	103	751	589	0	1	1	468709	683	1	hit	435	0
31	Single	104	752	590	5	0	0	469425	684	0	correct_rejection	NA	0
31	Single	105	753	591	9	0	0	470142	683	0	correct_rejection	NA	0
31	Single	106	754	592	9	0	0	470859	683	0	correct_rejection	NA	0
31	Single	107	755	593	7	0	0	471575	684	0	correct_rejection	NA	0
31	Single	108	756	594	6	0	0	472292	683	0	correct_rejection	NA	0
31	Single	109	757	595	7	0	0	473009	683	0	correct_rejection	NA	0
31	Single	110	758	596	7	0	0	473725	684	0	correct_rejection	NA	0
31	Single	111	759	597	5	0	0	474442	683	0	correct_rejection	NA	0
31	Single	112	760	598	0	1	1	475159	683	1	hit	393	0
31	Single	113	761	599	7	0	0	475875	684	0	correct_rejection	NA	0
31	Single	114	762	600	4	0	0	476592	683	0	correct_rejection	NA	0
31	Single	115	763	601	6	0	0	477309	683	0	correct_rejection	NA	0
31	Single	116	764	602	9	0	0	478025	684	0	correct_rejection	NA	0
31	Single	117	765	603	6	0	0	478742	683	0	correct_rejection	NA	0
31	Single	118	766	604	6	0	0	479459	683	0	correct_rejection	NA	0
31	Single	119	767	605	8	0	0	480175	684	0	correct_rejection	NA	0
31	Single	120	768	606	6	0	0	480892	683	0	correct_rejection	NA	0
31	Single	121	769	607	0	1	1	481609	683	1	hit	431	0
31	Single	122	770	608	7	0	0	482325	684	0	correct_rejection	NA	0
31	Single	123	771	609	7	0	0	483042	683	0	correct_rejection	NA	0
31	Single	124	772	610	8	0	0	483758	684	0	correct_rejection	NA	0
31	Single	125	773	611	7	0	0	484475	683	0	correct_rejection	NA	0
31	Single	126	774	612	6	0	0	485192	683	0	correct_rejection	NA	0
31	Single	127	775	613	9	0	0	485908	684	0	correct_rejection	NA	0
31	Single	128	776	614	7	0	0	486625	683	0	correct_rejection	NA	0
31	Single	129	777	615	0	1	1	487342	683	1	hit	386	0
31	Single	130	778	616	4	0	0	488058	684	0	correct_rejection	NA	0
31	Single	131	779	617	9	0	0	488775	683	0	correct_rejection	NA	0
31	Single	132	780	618	6	0	0	489492	683	0	correct_rejection	NA	0
31	Single	133	781	619	5	0	0	490208	684	0	correct_rejection	NA	0
31	Single	134	782	620	6	0	0	490925	683	0	correct_rejection	NA	0
31	Single	135	783	621	0	1	1	491642	683	1	hit	420	0
31	Single	136	784	622	6	0	0	492358	684	0	correct_rejection	NA	0
31	Single	137	785	623	7	0	0	493075	683	0	correct_rejection	NA	0
31	Single	138	786	624	9	0	0	493792	683	0	correct_rejection	NA	0
31	Single	139	787	625	9	0	0	494508	684	0	correct_rejection	NA	0
31	Single	140	788	626	4	0	0	495225	683	0	correct_rejection	NA	0
31	Single	141	789	627	5	0	0	495942	683	0	correct_rejection	NA	0
31	Single	142	790	628	8	0	0	496658	684	0	correct_rejection	NA	0
31	Single	143	791	629	6	0	0	497375	683	0	correct_rejection	NA	0
31	Single	144	792	630	8	0	0	498092	683	0	correct_rejection	NA	0
31	Single	145	793	631	9	0	0	498808	684	0	correct_rejection	NA	0
31	Single	146	794	632	5	0	0	499525	683	0	correct_rejection	NA	0
31	Single	147	795	633	7	0	0	500242	683	0	correct_rejection	NA	0
31	Single	148	796	634	5	0	0	500958	684	0	correct_rejection	NA	0
31	Single	149	797	635	5	0	0	501675	683	0	correct_rejection	NA	0
31	Single	150	798	636	9	0	0	502392	683	0	correct_rejection	NA	0
31	Single	151	799	637	8	0	0	503108	684	0	correct_rejection	NA	0
31	Single	152	800	638	0	1	1	503825	683	1	hit	382	0
31	Single	153	801	639	5	0	0	504541	684	0	correct_rejection	NA	0
31	Single	154	802	640	4	0	0	505258	683	0	correct_rejection	NA	0
31	Single	155	803	641	6	0	0	505975	683	0	correct_rejection	NA	0
31	Single	156	804	642	0	1	1	506691	684	1	hit	534	0
31	Single	157	805	643	4	0	0	507408	683	0	correct_rejection	NA	0
31	Single	158	806	644	4	0	0	508125	683	0	correct_rejection	NA	0
31	Single	159	807	645	8	0	0	508841	684	0	correct_rejection	NA	0
31	Single	160	808	646	0	1	1	509558	683	1	hit	394	0
31	Single	161	809	647	8	0	0	510275	683	0	correct_rejection	NA	0
31	Single	162	810	648	4	0	0	510991	684	0	correct_rejection	NA	0
31	Triplet	1	487	649	6	0	0	520491	684	0	correct_rejection	NA	7227
31	Triplet	2	488	650	5	0	0	521208	683	0	correct_rejection	NA	0
31	Triplet	3	489	651	4	0	0	521925	683	0	correct_rejection	NA	0
31	Triplet	4	490	652	4	0	0	522641	684	0	correct_rejection	NA	0
31	Triplet	5	491	653	5	0	0	523358	683	0	correct_rejection	NA	0
31	Triplet	6	492	654	6	0	0	524075	683	0	correct_rejection	NA	0
31	Triplet	7	493	655	9	0	0	524791	684	0	correct_rejection	NA	0
31	Triplet	8	494	656	8	0	0	525508	683	0	correct_rejection	NA	0
31	Triplet	9	495	657	7	0	0	526224	684	0	correct_rejection	NA	0
31	Triplet	10	496	658	0	1	2	526941	683	1	hit	382	0
31	Triplet	11	497	659	4	0	0	527658	683	0	correct_rejection	NA	0
31	Triplet	12	498	660	5	0	0	528374	684	0	correct_rejection	NA	0
31	Triplet	13	499	661	0	1	1	529091	683	1	hit	461	0
31	Triplet	14	500	662	6	0	0	529808	683	0	correct_rejection	NA	0
31	Triplet	15	501	663	6	0	0	530524	684	0	correct_rejection	NA	0
31	Triplet	16	502	664	5	0	0	531241	683	0	correct_rejection	NA	0
31	Triplet	17	503	665	0	1	1	531958	683	1	hit	454	0
31	Triplet	18	504	666	4	0	0	532674	684	0	correct_rejection	NA	0
31	Triplet	19	505	667	6	0	0	533391	683	0	correct_rejection	NA	0
31	Triplet	20	506	668	5	0	0	534108	683	0	correct_rejection	NA	0
31	Triplet	21	507	669	4	0	0	534824	684	0	correct_rejection	NA	0
31	Triplet	22	508	670	7	0	0	535541	683	0	correct_rejection	NA	0
31	Triplet	23	509	671	0	1	1	536258	683	1	hit	380	0
31	Triplet	24	510	672	8	0	0	536974	684	0	correct_rejection	NA	0
31	Triplet	25	511	673	9	0	0	537691	683	0	correct_rejection	NA	0
31	Triplet	26	512	674	6	0	0	538408	683	0	correct_rejection	NA	0
31	Triplet	27	513	675	0	1	1	539124	684	1	hit	397	0
31	Triplet	28	514	676	5	0	0	539841	683	0	correct_rejection	NA	0
31	Triplet	29	515	677	4	0	0	540558	683	0	correct_rejection	NA	0
31	Triplet	30	516	678	9	0	0	541274	684	0	correct_rejection	NA	0
31	Triplet	31	517	679	0	1	1	541991	683	1	hit	353	0
31	Triplet	32	518	680	8	0	0	542708	683	0	correct_rejection	NA	0
31	Triplet	33	519	681	7	0	0	543424	684	0	correct_rejection	NA	0
31	Triplet	34	520	682	9	0	0	544141	683	0	correct_rejection	NA	0
31	Triplet	35	521	683	8	0	0	544858	683	0	correct_rejection	NA	0
31	Triplet	36	522	684	0	1	1	545574	684	1	hit	405	0
31	Triplet	37	523	685	7	0	0	546291	683	0	correct_rejection	NA	0
31	Triplet	38	524	686	7	0	0	547007	684	0	correct_rejection	NA	0
31	Triplet	39	525	687	8	0	0	547724	683	0	correct_rejection	NA	0
31	Triplet	40	526	688	9	0	0	548441	683	0	correct_rejection	NA	0
31	Triplet	41	527	689	0	1	2	549157	684	1	hit	396	0
31	Triplet	42	528	690	4	0	0	549874	683	0	correct_rejection	NA	0
31	Triplet	43	529	691	5	0	0	550591	683	0	correct_rejection	NA	0
31	Triplet	44	530	692	6	0	0	551307	684	0	correct_rejection	NA	0
31	Triplet	45	531	693	4	0	0	552024	683	0	correct_rejection	NA	0
31	Triplet	46	532	694	5	0	0	552741	683	0	correct_rejection	NA	0
31	Triplet	47	533	695	6	0	0	553457	684	0	correct_rejection	NA	0
31	Triplet	48	534	696	7	0	0	554174	683	0	correct_rejection	NA	0
31	Triplet	49	535	697	8	0	0	554891	683	0	correct_rejection	NA	0
31	Triplet	50	536	698	9	0	0	555607	684	0	correct_rejection	NA	0
31	Triplet	51	537	699	7	0	0	556324	683	0	correct_rejection	NA	0
31	Triplet	52	538	700	8	0	0	557041	683	0	correct_rejection	NA	0
31	Triplet	53	539	701	0	1	1	557757	684	1	hit	396	0
31	Triplet	54	540	702	9	0	0	558474	683	0	correct_rejection	NA	0
31	Triplet	55	541	703	9	0	0	559191	683	0	correct_rejection	NA	0
31	Triplet	56	542	704	8	0	0	559907	684	0	correct_rejection	NA	0
31	Triplet	57	543	705	7	0	0	560624	683	0	correct_rejection	NA	0
31	Triplet	58	544	706	4	0	0	561341	683	0	correct_rejection	NA	0
31	Triplet	59	545	707	5	0	0	562057	684	0	correct_rejection	NA	0
31	Triplet	60	546	708	0	1	1	562774	683	1	hit	425	0
31	Triplet	61	547	709	6	0	0	563491	683	0	correct_rejection	NA	0
31	Triplet	62	548	710	7	0	0	564207	684	0	correct_rejection	NA	0
31	Triplet	63	549	711	8	0	0	564924	683	0	correct_rejection	NA	0
31	Triplet	64	550	712	9	0	0	565641	683	0	correct_rejection	NA	0
31	Triplet	65	551	713	6	0	0	566357	684	0	correct_rejection	NA	0
31	Triplet	66	552	714	0	1	1	567074	683	1	hit	385	0
31	Triplet	67	553	715	5	0	0	567790	684	0	correct_rejection	NA	0
31	Triplet	68	554	716	4	0	0	568507	683	0	correct_rejection	NA	0
31	Triplet	69	555	717	6	0	0	569224	683	0	correct_rejection	NA	0
31	Triplet	70	556	718	5	0	0	569940	684	0	correct_rejection	NA	0
31	Triplet	71	557	719	4	0	0	570657	683	0	correct_rejection	NA	0
31	Triplet	72	558	720	4	0	0	571374	683	0	correct_rejection	NA	0
31	Triplet	73	559	721	5	0	0	572090	684	0	correct_rejection	NA	0
31	Triplet	74	560	722	6	0	0	572807	683	0	correct_rejection	NA	0
31	Triplet	75	561	723	4	0	0	573524	683	0	correct_rejection	NA	0
31	Triplet	76	562	724	5	0	0	574240	684	0	correct_rejection	NA	0
31	Triplet	77	563	725	6	0	0	574957	683	0	correct_rejection	NA	0
31	Triplet	78	564	726	0	1	2	575674	683	1	hit	398	0
31	Triplet	79	565	727	6	0	0	576390	684	0	correct_rejection	NA	0
31	Triplet	80	566	728	5	0	0	577107	683	0	correct_rejection	NA	0
31	Triplet	81	567	729	4	0	0	577824	683	0	correct_rejection	NA	0
31	Triplet	82	568	730	7	0	0	578540	684	0	correct_rejection	NA	0
31	Triplet	83	569	731	0	1	1	579257	683	1	hit	396	0
31	Triplet	84	570	732	8	0	0	579974	683	0	correct_rejection	NA	0
31	Triplet	85	571	733	9	0	0	580690	684	0	correct_rejection	NA	0
31	Triplet	86	572	734	0	1	2	581407	683	1	hit	415	0
31	Triplet	87	573	735	9	0	0	582124	683	0	correct_rejection	NA	0
31	Triplet	88	574	736	8	0	0	582840	684	0	correct_rejection	NA	0
31	Triplet	89	575	737	0	1	1	583557	683	1	hit	407	0
31	Triplet	90	576	738	7	0	0	584274	683	0	correct_rejection	NA	0
31	Triplet	91	577	739	4	0	0	584990	684	0	correct_rejection	NA	0
31	Triplet	92	578	740	5	0	0	585707	683	0	correct_rejection	NA	0
31	Triplet	93	579	741	6	0	0	586424	683	0	correct_rejection	NA	0
31	Triplet	94	580	742	9	0	0	587140	684	0	correct_rejection	NA	0
31	Triplet	95	581	743	8	0	0	587857	683	0	correct_rejection	NA	0
31	Triplet	96	582	744	7	0	0	588573	684	0	correct_rejection	NA	0
31	Triplet	97	583	745	9	0	0	589290	684	0	correct_rejection	NA	0
31	Triplet	98	584	746	8	0	0	590007	683	0	correct_rejection	NA	0
31	Triplet	99	585	747	0	1	1	590723	684	1	hit	413	0
31	Triplet	100	586	748	7	0	0	591440	683	0	correct_rejection	NA	0
31	Triplet	101	587	749	6	0	0	592157	683	0	correct_rejection	NA	0
31	Triplet	102	588	750	5	0	0	592873	684	0	correct_rejection	NA	0
31	Triplet	103	589	751	4	0	0	593590	683	0	correct_rejection	NA	0
31	Triplet	104	590	752	9	0	0	594307	683	0	correct_rejection	NA	0
31	Triplet	105	591	753	8	0	0	595023	684	0	correct_rejection	NA	0
31	Triplet	106	592	754	7	0	0	595740	683	0	correct_rejection	NA	0
31	Triplet	107	593	755	7	0	0	596457	683	0	correct_rejection	NA	0
31	Triplet	108	594	756	8	0	0	597173	684	0	correct_rejection	NA	0
31	Triplet	109	595	757	9	0	0	597890	683	0	correct_rejection	NA	0
31	Triplet	110	596	758	7	0	0	598607	683	0	correct_rejection	NA	0
31	Triplet	111	597	759	8	0	0	599323	684	0	correct_rejection	NA	0
31	Triplet	112	598	760	9	0	0	600040	683	0	correct_rejection	NA	0
31	Triplet	113	599	761	6	0	0	600757	683	0	correct_rejection	NA	0
31	Triplet	114	600	762	5	0	0	601473	684	0	correct_rejection	NA	0
31	Triplet	115	601	763	4	0	0	602190	683	0	correct_rejection	NA	0
31	Triplet	116	602	764	0	1	2	602907	683	1	hit	517	0
31	Triplet	117	603	765	9	0	0	603623	684	0	correct_rejection	NA	0
31	Triplet	118	604	766	8	0	0	604340	683	0	correct_rejection	NA	0
31	Triplet	119	605	767	7	0	0	605057	683	0	correct_rejection	NA	0
31	Triplet	120	606	768	6	0	0	605773	684	0	correct_rejection	NA	0
31	Triplet	121	607	769	5	0	0	606490	683	0	correct_rejection	NA	0
31	Triplet	122	608	770	4	0	0	607207	683	0	correct_rejection	NA	0
31	Triplet	123	609	771	7	0	0	607923	684	0	correct_rejection	NA	0
31	Triplet	124	610	772	8	0	0	608640	683	0	correct_rejection	NA	0
31	Triplet	125	611	773	9	0	0	609356	684	0	correct_rejection	NA	0
31	Triplet	126	612	774	7	0	0	610073	683	0	correct_rejection	NA	0
31	Triplet	127	613	775	8	0	0	610790	683	0	correct_rejection	NA	0
31	Triplet	128	614	776	9	0	0	611506	684	0	correct_rejection	NA	0
31	Triplet	129	615	777	4	0	0	612223	683	0	correct_rejection	NA	0
31	Triplet	130	616	778	5	0	0	612940	683	0	correct_rejection	NA	0
31	Triplet	131	617	779	6	0	0	613656	684	0	correct_rejection	NA	0
31	Triplet	132	618	780	6	0	0	614373	683	0	correct_rejection	NA	0
31	Triplet	133	619	781	5	0	0	615090	683	0	correct_rejection	NA	0
31	Triplet	134	620	782	4	0	0	615806	684	0	correct_rejection	NA	0
31	Triplet	135	621	783	4	0	0	616523	683	0	correct_rejection	NA	0
31	Triplet	136	622	784	5	0	0	617240	683	0	correct_rejection	NA	0
31	Triplet	137	623	785	6	0	0	617956	684	0	correct_rejection	NA	0
31	Triplet	138	624	786	7	0	0	618673	683	0	correct_rejection	NA	0
31	Triplet	139	625	787	8	0	0	619390	683	0	correct_rejection	NA	0
31	Triplet	140	626	788	9	0	0	620106	684	0	correct_rejection	NA	0
31	Triplet	141	627	789	9	0	0	620823	683	0	correct_rejection	NA	0
31	Triplet	142	628	790	8	0	0	621540	683	0	correct_rejection	NA	0
31	Triplet	143	629	791	7	0	0	622256	684	0	correct_rejection	NA	0
31	Triplet	144	630	792	0	1	2	622973	683	1	hit	379	0
31	Triplet	145	631	793	9	0	0	623690	683	0	correct_rejection	NA	0
31	Triplet	146	632	794	8	0	0	624406	684	0	correct_rejection	NA	0
31	Triplet	147	633	795	7	0	0	625123	683	0	correct_rejection	NA	0
31	Triplet	148	634	796	4	0	0	625840	683	0	correct_rejection	NA	0
31	Triplet	149	635	797	5	0	0	626556	684	0	correct_rejection	NA	0
31	Triplet	150	636	798	6	0	0	627273	683	0	correct_rejection	NA	0
31	Triplet	151	637	799	4	0	0	627990	683	0	correct_rejection	NA	0
31	Triplet	152	638	800	5	0	0	628706	684	0	correct_rejection	NA	0
31	Triplet	153	639	801	6	0	0	629423	683	0	correct_rejection	NA	0
31	Triplet	154	640	802	9	0	0	630139	684	0	correct_rejection	NA	0
31	Triplet	155	641	803	8	0	0	630856	684	0	correct_rejection	NA	0
31	Triplet	156	642	804	7	0	0	631573	683	0	correct_rejection	NA	0
31	Triplet	157	643	805	7	0	0	632289	684	0	correct_rejection	NA	0
31	Triplet	158	644	806	8	0	0	633006	683	0	correct_rejection	NA	0
31	Triplet	159	645	807	9	0	0	633723	683	0	correct_rejection	NA	0
31	Triplet	160	646	808	6	0	0	634439	684	0	correct_rejection	NA	0
31	Triplet	161	647	809	5	0	0	635156	683	0	correct_rejection	NA	0
31	Triplet	162	648	810	4	0	0	635873	683	0	correct_rejection	NA	0
trigger nr 628 at 638197
trigger nr 631 at 711747
31	Single	1	1	811	9	0	0	719788	683	0	correct_rejection	NA	7967
31	Single	2	2	812	5	0	0	720505	683	0	correct_rejection	NA	0
31	Single	3	3	813	4	0	0	721221	684	0	correct_rejection	NA	0
31	Single	4	4	814	7	0	0	721938	683	0	correct_rejection	NA	0
31	Single	5	5	815	9	0	0	722655	683	0	correct_rejection	NA	0
31	Single	6	6	816	4	0	0	723371	684	0	correct_rejection	NA	0
31	Single	7	7	817	4	0	0	724088	683	0	correct_rejection	NA	0
31	Single	8	8	818	5	0	0	724805	683	0	correct_rejection	NA	0
31	Single	9	9	819	0	1	1	725521	684	1	hit	387	0
31	Single	10	10	820	8	0	0	726238	683	0	correct_rejection	NA	0
31	Single	11	11	821	7	0	0	726955	683	0	correct_rejection	NA	0
31	Single	12	12	822	5	0	0	727671	684	0	correct_rejection	NA	0
31	Single	13	13	823	7	0	0	728388	683	0	correct_rejection	NA	0
31	Single	14	14	824	0	1	1	729105	683	1	hit	378	0
31	Single	15	15	825	7	0	0	729821	684	0	correct_rejection	NA	0
31	Single	16	16	826	8	0	0	730538	683	0	correct_rejection	NA	0
31	Single	17	17	827	9	0	0	731255	683	0	correct_rejection	NA	0
31	Single	18	18	828	8	0	0	731971	684	0	correct_rejection	NA	0
31	Single	19	19	829	6	0	0	732688	683	0	correct_rejection	NA	0
31	Single	20	20	830	4	0	0	733405	683	0	correct_rejection	NA	0
31	Single	21	21	831	0	1	1	734121	684	1	hit	361	0
31	Single	22	22	832	9	0	0	734838	683	0	correct_rejection	NA	0
31	Single	23	23	833	9	0	0	735555	683	0	correct_rejection	NA	0
31	Single	24	24	834	7	0	0	736271	684	0	correct_rejection	NA	0
31	Single	25	25	835	0	1	1	736988	683	1	hit	368	0
31	Single	26	26	836	6	0	0	737704	684	0	correct_rejection	NA	0
31	Single	27	27	837	6	0	0	738421	683	0	correct_rejection	NA	0
31	Single	28	28	838	8	0	0	739138	683	0	correct_rejection	NA	0
31	Single	29	29	839	5	0	0	739854	684	0	correct_rejection	NA	0
31	Single	30	30	840	6	0	0	740571	683	0	correct_rejection	NA	0
31	Single	31	31	841	0	1	1	741288	683	1	hit	386	0
31	Single	32	32	842	7	0	0	742004	684	0	correct_rejection	NA	0
31	Single	33	33	843	4	0	0	742721	683	0	correct_rejection	NA	0
31	Single	34	34	844	8	0	0	743438	683	0	correct_rejection	NA	0
31	Single	35	35	845	8	0	0	744154	684	0	correct_rejection	NA	0
31	Single	36	36	846	4	0	0	744871	683	0	correct_rejection	NA	0
31	Single	37	37	847	6	0	0	745588	683	0	correct_rejection	NA	0
31	Single	38	38	848	5	0	0	746304	684	0	correct_rejection	NA	0
31	Single	39	39	849	5	0	0	747021	683	0	correct_rejection	NA	0
31	Single	40	40	850	9	0	0	747738	683	0	correct_rejection	NA	0
31	Single	41	41	851	6	0	0	748454	684	0	correct_rejection	NA	0
31	Single	42	42	852	4	0	0	749171	683	0	correct_rejection	NA	0
31	Single	43	43	853	9	0	0	749888	683	0	correct_rejection	NA	0
31	Single	44	44	854	8	0	0	750604	684	0	correct_rejection	NA	0
31	Single	45	45	855	8	0	0	751321	683	0	correct_rejection	NA	0
31	Single	46	46	856	6	0	0	752038	683	0	correct_rejection	NA	0
31	Single	47	47	857	9	0	0	752754	684	0	correct_rejection	NA	0
31	Single	48	48	858	6	0	0	753471	683	0	correct_rejection	NA	0
31	Single	49	49	859	6	0	0	754188	683	0	correct_rejection	NA	0
31	Single	50	50	860	7	0	0	754904	684	0	correct_rejection	NA	0
31	Single	51	51	861	5	0	0	755621	683	0	correct_rejection	NA	0
31	Single	52	52	862	6	0	0	756338	683	0	correct_rejection	NA	0
31	Single	53	53	863	5	0	0	757054	684	0	correct_rejection	NA	0
31	Single	54	54	864	8	0	0	757771	683	0	correct_rejection	NA	0
31	Single	55	55	865	4	0	0	758487	684	0	correct_rejection	NA	0
31	Single	56	56	866	5	0	0	759204	683	0	correct_rejection	NA	0
31	Single	57	57	867	4	0	0	759921	683	0	correct_rejection	NA	0
31	Single	58	58	868	8	0	0	760637	684	0	correct_rejection	NA	0
31	Single	59	59	869	7	0	0	761354	683	0	correct_rejection	NA	0
31	Single	60	60	870	7	0	0	762071	683	0	correct_rejection	NA	0
31	Single	61	61	871	6	0	0	762787	684	0	correct_rejection	NA	0
31	Single	62	62	872	8	0	0	763504	683	0	correct_rejection	NA	0
31	Single	63	63	873	9	0	0	764221	683	0	correct_rejection	NA	0
31	Single	64	64	874	7	0	0	764937	684	0	correct_rejection	NA	0
31	Single	65	65	875	9	0	0	765654	683	0	correct_rejection	NA	0
31	Single	66	66	876	5	0	0	766371	683	0	correct_rejection	NA	0
31	Single	67	67	877	5	0	0	767087	684	0	correct_rejection	NA	0
31	Single	68	68	878	7	0	0	767804	683	0	correct_rejection	NA	0
31	Single	69	69	879	4	0	0	768521	683	0	correct_rejection	NA	0
31	Single	70	70	880	6	0	0	769237	684	0	correct_rejection	NA	0
31	Single	71	71	881	4	0	0	769954	683	0	correct_rejection	NA	0
31	Single	72	72	882	0	1	1	770671	683	1	hit	391	0
31	Single	73	73	883	4	0	0	771387	684	0	correct_rejection	NA	0
31	Single	74	74	884	7	0	0	772104	683	0	correct_rejection	NA	0
31	Single	75	75	885	0	1	1	772821	683	1	hit	346	0
31	Single	76	76	886	8	0	0	773537	684	0	correct_rejection	NA	0
31	Single	77	77	887	5	0	0	774254	683	0	correct_rejection	NA	0
31	Single	78	78	888	9	0	0	774971	683	0	correct_rejection	NA	0
31	Single	79	79	889	9	0	0	775687	684	0	correct_rejection	NA	0
31	Single	80	80	890	4	0	0	776404	683	0	correct_rejection	NA	0
31	Single	81	81	891	9	0	0	777121	683	0	correct_rejection	NA	0
31	Single	82	82	892	0	1	1	777837	684	1	hit	357	0
31	Single	83	83	893	6	0	0	778554	683	0	correct_rejection	NA	0
31	Single	84	84	894	4	0	0	779270	684	0	correct_rejection	NA	0
31	Single	85	85	895	6	0	0	779987	684	0	correct_rejection	NA	0
31	Single	86	86	896	8	0	0	780704	683	0	correct_rejection	NA	0
31	Single	87	87	897	0	1	1	781420	684	1	hit	379	0
31	Single	88	88	898	8	0	0	782137	683	0	correct_rejection	NA	0
31	Single	89	89	899	5	0	0	782854	683	0	correct_rejection	NA	0
31	Single	90	90	900	7	0	0	783570	684	0	correct_rejection	NA	0
31	Single	91	91	901	8	0	0	784287	683	0	correct_rejection	NA	0
31	Single	92	92	902	6	0	0	785004	683	0	correct_rejection	NA	0
31	Single	93	93	903	7	0	0	785720	684	0	correct_rejection	NA	0
31	Single	94	94	904	9	0	0	786437	683	0	correct_rejection	NA	0
31	Single	95	95	905	8	0	0	787154	683	0	correct_rejection	NA	0
31	Single	96	96	906	7	0	0	787870	684	0	correct_rejection	NA	0
31	Single	97	97	907	6	0	0	788587	683	0	correct_rejection	NA	0
31	Single	98	98	908	9	0	0	789304	683	0	correct_rejection	NA	0
31	Single	99	99	909	0	1	1	790020	684	1	hit	406	0
31	Single	100	100	910	7	0	0	790737	683	0	correct_rejection	NA	0
31	Single	101	101	911	7	0	0	791454	683	0	correct_rejection	NA	0
31	Single	102	102	912	4	0	0	792170	684	0	correct_rejection	NA	0
31	Single	103	103	913	5	0	0	792887	683	0	correct_rejection	NA	0
31	Single	104	104	914	5	0	0	793604	683	0	correct_rejection	NA	0
31	Single	105	105	915	8	0	0	794320	684	0	correct_rejection	NA	0
31	Single	106	106	916	9	0	0	795037	683	0	correct_rejection	NA	0
31	Single	107	107	917	0	1	1	795754	683	1	hit	393	0
31	Single	108	108	918	9	0	0	796470	684	0	correct_rejection	NA	0
31	Single	109	109	919	4	0	0	797187	683	0	correct_rejection	NA	0
31	Single	110	110	920	0	1	1	797904	683	1	hit	420	0
31	Single	111	111	921	8	0	0	798620	684	0	correct_rejection	NA	0
31	Single	112	112	922	4	0	0	799337	683	0	correct_rejection	NA	0
31	Single	113	113	923	0	1	1	800053	684	1	hit	423	0
31	Single	114	114	924	7	0	0	800770	684	0	correct_rejection	NA	0
31	Single	115	115	925	5	0	0	801487	683	0	correct_rejection	NA	0
31	Single	116	116	926	9	0	0	802203	684	0	correct_rejection	NA	0
31	Single	117	117	927	5	0	0	802920	683	0	correct_rejection	NA	0
31	Single	118	118	928	6	0	0	803637	683	0	correct_rejection	NA	0
31	Single	119	119	929	6	0	0	804353	684	0	correct_rejection	NA	0
31	Single	120	120	930	5	0	0	805070	683	0	correct_rejection	NA	0
31	Single	121	121	931	0	1	1	805787	683	1	hit	409	0
31	Single	122	122	932	4	0	0	806503	684	0	correct_rejection	NA	0
31	Single	123	123	933	9	0	0	807220	683	0	correct_rejection	NA	0
31	Single	124	124	934	7	0	0	807937	683	0	correct_rejection	NA	0
31	Single	125	125	935	6	0	0	808653	684	0	correct_rejection	NA	0
31	Single	126	126	936	4	0	0	809370	683	0	correct_rejection	NA	0
31	Single	127	127	937	9	0	0	810087	683	0	correct_rejection	NA	0
31	Single	128	128	938	4	0	0	810803	684	0	correct_rejection	NA	0
31	Single	129	129	939	4	0	0	811520	683	0	correct_rejection	NA	0
31	Single	130	130	940	8	0	0	812237	683	0	correct_rejection	NA	0
31	Single	131	131	941	5	0	0	812953	684	0	correct_rejection	NA	0
31	Single	132	132	942	8	0	0	813670	683	0	correct_rejection	NA	0
31	Single	133	133	943	6	0	0	814387	683	0	correct_rejection	NA	0
31	Single	134	134	944	8	0	0	815103	684	0	correct_rejection	NA	0
31	Single	135	135	945	4	0	0	815820	683	0	correct_rejection	NA	0
31	Single	136	136	946	6	0	0	816537	683	0	correct_rejection	NA	0
31	Single	137	137	947	0	1	1	817253	684	1	hit	449	0
31	Single	138	138	948	6	0	0	817970	683	0	correct_rejection	NA	0
31	Single	139	139	949	9	0	0	818687	683	0	correct_rejection	NA	0
31	Single	140	140	950	5	0	0	819403	684	0	correct_rejection	NA	0
31	Single	141	141	951	4	0	0	820120	683	0	correct_rejection	NA	0
31	Single	142	142	952	5	0	0	820837	683	0	correct_rejection	NA	0
31	Single	143	143	953	0	1	1	821553	684	1	hit	448	0
31	Single	144	144	954	6	0	0	822270	683	0	correct_rejection	NA	0
31	Single	145	145	955	7	0	0	822986	684	0	correct_rejection	NA	0
31	Single	146	146	956	8	0	0	823703	683	0	correct_rejection	NA	0
31	Single	147	147	957	8	0	0	824420	683	0	correct_rejection	NA	0
31	Single	148	148	958	7	0	0	825136	684	0	correct_rejection	NA	0
31	Single	149	149	959	4	0	0	825853	683	0	correct_rejection	NA	0
31	Single	150	150	960	7	0	0	826570	683	0	correct_rejection	NA	0
31	Single	151	151	961	9	0	0	827286	684	0	correct_rejection	NA	0
31	Single	152	152	962	6	0	0	828003	683	0	correct_rejection	NA	0
31	Single	153	153	963	5	0	0	828720	683	0	correct_rejection	NA	0
31	Single	154	154	964	0	1	1	829436	684	1	hit	397	0
31	Single	155	155	965	7	0	0	830153	683	0	correct_rejection	NA	0
31	Single	156	156	966	7	0	0	830870	683	0	correct_rejection	NA	0
31	Single	157	157	967	0	1	1	831586	684	1	hit	398	0
31	Single	158	158	968	5	0	0	832303	683	0	correct_rejection	NA	0
31	Single	159	159	969	5	0	0	833020	683	0	correct_rejection	NA	0
31	Single	160	160	970	9	0	0	833736	684	0	correct_rejection	NA	0
31	Single	161	161	971	8	0	0	834453	683	0	correct_rejection	NA	0
31	Single	162	162	972	9	0	0	835170	683	0	correct_rejection	NA	0
31	Correct	1	649	973	4	0	0	845769	684	0	correct_rejection	NA	7957
31	Correct	2	650	974	5	0	0	846486	683	0	correct_rejection	NA	0
31	Correct	3	651	975	6	0	0	847203	683	0	correct_rejection	NA	0
31	Correct	4	652	976	4	0	0	847919	684	0	correct_rejection	NA	0
31	Correct	5	653	977	5	0	0	848636	683	0	correct_rejection	NA	0
31	Correct	6	654	978	6	0	0	849353	683	0	correct_rejection	NA	0
31	Correct	7	655	979	4	0	0	850069	684	0	correct_rejection	NA	0
31	Correct	8	656	980	5	0	0	850786	683	0	correct_rejection	NA	0
31	Correct	9	657	981	6	0	0	851503	683	0	correct_rejection	NA	0
31	Correct	10	658	982	6	0	0	852219	684	0	correct_rejection	NA	0
31	Correct	11	659	983	5	0	0	852936	683	0	correct_rejection	NA	0
31	Correct	12	660	984	4	0	0	853653	683	0	correct_rejection	NA	0
31	Correct	13	661	985	6	0	0	854369	684	0	correct_rejection	NA	0
31	Correct	14	662	986	5	0	0	855086	683	0	correct_rejection	NA	0
31	Correct	15	663	987	4	0	0	855803	683	0	correct_rejection	NA	0
31	Correct	16	664	988	6	0	0	856519	684	0	correct_rejection	NA	0
31	Correct	17	665	989	5	0	0	857236	683	0	correct_rejection	NA	0
31	Correct	18	666	990	4	0	0	857953	683	0	correct_rejection	NA	0
31	Correct	19	667	991	9	0	0	858669	684	0	correct_rejection	NA	0
31	Correct	20	668	992	8	0	0	859386	683	0	correct_rejection	NA	0
31	Correct	21	669	993	7	0	0	860103	683	0	correct_rejection	NA	0
31	Correct	22	670	994	0	1	2	860819	684	1	hit	430	0
31	Correct	23	671	995	9	0	0	861536	683	0	correct_rejection	NA	0
31	Correct	24	672	996	8	0	0	862253	683	0	correct_rejection	NA	0
31	Correct	25	673	997	7	0	0	862969	684	0	correct_rejection	NA	0
31	Correct	26	674	998	9	0	0	863686	683	0	correct_rejection	NA	0
31	Correct	27	675	999	8	0	0	864402	684	0	correct_rejection	NA	0
31	Correct	28	676	1000	7	0	0	865119	683	0	correct_rejection	NA	0
31	Correct	29	677	1001	7	0	0	865836	683	0	correct_rejection	NA	0
31	Correct	30	678	1002	8	0	0	866552	684	0	correct_rejection	NA	0
31	Correct	31	679	1003	9	0	0	867269	683	0	correct_rejection	NA	0
31	Correct	32	680	1004	7	0	0	867986	683	0	correct_rejection	NA	0
31	Correct	33	681	1005	8	0	0	868702	684	0	correct_rejection	NA	0
31	Correct	34	682	1006	9	0	0	869419	683	0	correct_rejection	NA	0
31	Correct	35	683	1007	0	1	2	870136	683	1	hit	455	0
31	Correct	36	684	1008	7	0	0	870852	684	0	correct_rejection	NA	0
31	Correct	37	685	1009	8	0	0	871569	683	0	correct_rejection	NA	0
31	Correct	38	686	1010	9	0	0	872286	683	0	correct_rejection	NA	0
31	Correct	39	687	1011	0	1	4	873002	684	1	hit	462	0
31	Correct	40	688	1012	4	0	0	873719	683	0	correct_rejection	NA	0
31	Correct	41	689	1013	5	0	0	874436	683	0	correct_rejection	NA	0
31	Correct	42	690	1014	6	0	0	875152	684	0	correct_rejection	NA	0
31	Correct	43	691	1015	4	0	0	875869	683	0	correct_rejection	NA	0
31	Correct	44	692	1016	0	1	1	876586	683	1	hit	362	0
31	Correct	45	693	1017	5	0	0	877302	684	0	correct_rejection	NA	0
31	Correct	46	694	1018	6	0	0	878019	683	0	correct_rejection	NA	0
31	Correct	47	695	1019	4	0	0	878736	683	0	correct_rejection	NA	0
31	Correct	48	696	1020	5	0	0	879452	684	0	correct_rejection	NA	0
31	Correct	49	697	1021	6	0	0	880169	683	0	correct_rejection	NA	0
31	Correct	50	698	1022	6	0	0	880886	683	0	correct_rejection	NA	0
31	Correct	51	699	1023	5	0	0	881602	684	0	correct_rejection	NA	0
31	Correct	52	700	1024	4	0	0	882319	683	0	correct_rejection	NA	0
31	Correct	53	701	1025	6	0	0	883036	683	0	correct_rejection	NA	0
31	Correct	54	702	1026	5	0	0	883752	684	0	correct_rejection	NA	0
31	Correct	55	703	1027	4	0	0	884469	683	0	correct_rejection	NA	0
31	Correct	56	704	1028	6	0	0	885185	684	0	correct_rejection	NA	0
31	Correct	57	705	1029	5	0	0	885902	683	0	correct_rejection	NA	0
31	Correct	58	706	1030	0	1	1	886619	683	1	hit	409	0
31	Correct	59	707	1031	4	0	0	887335	684	0	correct_rejection	NA	0
31	Correct	60	708	1032	9	0	0	888052	683	0	correct_rejection	NA	0
31	Correct	61	709	1033	8	0	0	888769	683	0	correct_rejection	NA	0
31	Correct	62	710	1034	7	0	0	889485	684	0	correct_rejection	NA	0
31	Correct	63	711	1035	9	0	0	890202	683	0	correct_rejection	NA	0
31	Correct	64	712	1036	0	1	1	890919	683	1	hit	367	0
31	Correct	65	713	1037	8	0	0	891635	684	0	correct_rejection	NA	0
31	Correct	66	714	1038	7	0	0	892352	683	0	correct_rejection	NA	0
31	Correct	67	715	1039	9	0	0	893069	683	0	correct_rejection	NA	0
31	Correct	68	716	1040	8	0	0	893785	684	0	correct_rejection	NA	0
31	Correct	69	717	1041	7	0	0	894502	683	0	correct_rejection	NA	0
31	Correct	70	718	1042	7	0	0	895219	683	0	correct_rejection	NA	0
31	Correct	71	719	1043	8	0	0	895935	684	0	correct_rejection	NA	0
31	Correct	72	720	1044	9	0	0	896652	683	0	correct_rejection	NA	0
31	Correct	73	721	1045	7	0	0	897369	683	0	correct_rejection	NA	0
31	Correct	74	722	1046	8	0	0	898085	684	0	correct_rejection	NA	0
31	Correct	75	723	1047	9	0	0	898802	683	0	correct_rejection	NA	0
31	Correct	76	724	1048	7	0	0	899519	683	0	correct_rejection	NA	0
31	Correct	77	725	1049	0	1	1	900235	684	1	hit	415	0
31	Correct	78	726	1050	8	0	0	900952	683	0	correct_rejection	NA	0
31	Correct	79	727	1051	9	0	0	901669	683	0	correct_rejection	NA	0
31	Correct	80	728	1052	4	0	0	902385	684	0	correct_rejection	NA	0
31	Correct	81	729	1053	5	0	0	903102	683	0	correct_rejection	NA	0
31	Correct	82	730	1054	6	0	0	903819	683	0	correct_rejection	NA	0
31	Correct	83	731	1055	4	0	0	904535	684	0	correct_rejection	NA	0
31	Correct	84	732	1056	5	0	0	905252	683	0	correct_rejection	NA	0
31	Correct	85	733	1057	6	0	0	905969	683	0	correct_rejection	NA	0
31	Correct	86	734	1058	4	0	0	906685	684	0	correct_rejection	NA	0
31	Correct	87	735	1059	5	0	0	907402	683	0	correct_rejection	NA	0
31	Correct	88	736	1060	6	0	0	908118	684	0	correct_rejection	NA	0
31	Correct	89	737	1061	6	0	0	908835	683	0	correct_rejection	NA	0
31	Correct	90	738	1062	5	0	0	909552	683	0	correct_rejection	NA	0
31	Correct	91	739	1063	4	0	0	910268	684	0	correct_rejection	NA	0
31	Correct	92	740	1064	6	0	0	910985	683	0	correct_rejection	NA	0
31	Correct	93	741	1065	0	1	1	911702	683	1	hit	395	0
31	Correct	94	742	1066	5	0	0	912418	684	0	correct_rejection	NA	0
31	Correct	95	743	1067	4	0	0	913135	683	0	correct_rejection	NA	0
31	Correct	96	744	1068	6	0	0	913852	683	0	correct_rejection	NA	0
31	Correct	97	745	1069	5	0	0	914568	684	0	correct_rejection	NA	0
31	Correct	98	746	1070	4	0	0	915285	683	0	correct_rejection	NA	0
31	Correct	99	747	1071	0	1	3	916002	683	1	hit	437	0
31	Correct	100	748	1072	9	0	0	916718	684	0	correct_rejection	NA	0
31	Correct	101	749	1073	8	0	0	917435	683	0	correct_rejection	NA	0
31	Correct	102	750	1074	7	0	0	918152	683	0	correct_rejection	NA	0
31	Correct	103	751	1075	9	0	0	918868	684	0	correct_rejection	NA	0
31	Correct	104	752	1076	8	0	0	919585	683	0	correct_rejection	NA	0
31	Correct	105	753	1077	7	0	0	920302	683	0	correct_rejection	NA	0
31	Correct	106	754	1078	9	0	0	921018	684	0	correct_rejection	NA	0
31	Correct	107	755	1079	8	0	0	921735	683	0	correct_rejection	NA	0
31	Correct	108	756	1080	7	0	0	922452	683	0	correct_rejection	NA	0
31	Correct	109	757	1081	0	1	3	923168	684	1	hit	385	0
31	Correct	110	758	1082	7	0	0	923885	683	0	correct_rejection	NA	0
31	Correct	111	759	1083	8	0	0	924602	683	0	correct_rejection	NA	0
31	Correct	112	760	1084	9	0	0	925318	684	0	correct_rejection	NA	0
31	Correct	113	761	1085	0	1	2	926035	683	1	hit	421	0
31	Correct	114	762	1086	7	0	0	926751	684	0	correct_rejection	NA	0
31	Correct	115	763	1087	8	0	0	927468	684	0	correct_rejection	NA	0
31	Correct	116	764	1088	9	0	0	928185	683	0	correct_rejection	NA	0
31	Correct	117	765	1089	7	0	0	928901	684	0	correct_rejection	NA	0
31	Correct	118	766	1090	8	0	0	929618	683	0	correct_rejection	NA	0
31	Correct	119	767	1091	9	0	0	930335	683	0	correct_rejection	NA	0
31	Correct	120	768	1092	4	0	0	931051	684	0	correct_rejection	NA	0
31	Correct	121	769	1093	0	1	1	931768	683	1	hit	383	0
31	Correct	122	770	1094	5	0	0	932485	683	0	correct_rejection	NA	0
31	Correct	123	771	1095	6	0	0	933201	684	0	correct_rejection	NA	0
31	Correct	124	772	1096	4	0	0	933918	683	0	correct_rejection	NA	0
31	Correct	125	773	1097	5	0	0	934635	683	0	correct_rejection	NA	0
31	Correct	126	774	1098	0	1	1	935351	684	1	hit	386	0
31	Correct	127	775	1099	6	0	0	936068	683	0	correct_rejection	NA	0
31	Correct	128	776	1100	4	0	0	936785	683	0	correct_rejection	NA	0
31	Correct	129	777	1101	5	0	0	937501	684	0	correct_rejection	NA	0
31	Correct	130	778	1102	6	0	0	938218	683	0	correct_rejection	NA	0
31	Correct	131	779	1103	6	0	0	938935	683	0	correct_rejection	NA	0
31	Correct	132	780	1104	5	0	0	939651	684	0	correct_rejection	NA	0
31	Correct	133	781	1105	0	1	1	940368	683	1	hit	375	0
31	Correct	134	782	1106	4	0	0	941085	683	0	correct_rejection	NA	0
31	Correct	135	783	1107	6	0	0	941801	684	0	correct_rejection	NA	0
31	Correct	136	784	1108	0	1	1	942518	683	1	hit	441	0
31	Correct	137	785	1109	5	0	0	943235	683	0	correct_rejection	NA	0
31	Correct	138	786	1110	4	0	0	943951	684	0	correct_rejection	NA	0
31	Correct	139	787	1111	6	0	0	944668	683	0	correct_rejection	NA	0
31	Correct	140	788	1112	5	0	0	945385	683	0	correct_rejection	NA	0
31	Correct	141	789	1113	4	0	0	946101	684	0	correct_rejection	NA	0
31	Correct	142	790	1114	9	0	0	946818	683	0	correct_rejection	NA	0
31	Correct	143	791	1115	8	0	0	947535	683	0	correct_rejection	NA	0
31	Correct	144	792	1116	0	1	1	948251	684	1	hit	383	0
31	Correct	145	793	1117	7	0	0	948968	683	0	correct_rejection	NA	0
31	Correct	146	794	1118	9	0	0	949684	684	0	correct_rejection	NA	0
31	Correct	147	795	1119	8	0	0	950401	683	0	correct_rejection	NA	0
31	Correct	148	796	1120	7	0	0	951118	683	0	correct_rejection	NA	0
31	Correct	149	797	1121	9	0	0	951834	684	0	correct_rejection	NA	0
31	Correct	150	798	1122	8	0	0	952551	683	0	correct_rejection	NA	0
31	Correct	151	799	1123	7	0	0	953268	683	0	correct_rejection	NA	0
31	Correct	152	800	1124	7	0	0	953984	684	0	correct_rejection	NA	0
31	Correct	153	801	1125	8	0	0	954701	683	0	correct_rejection	NA	0
31	Correct	154	802	1126	9	0	0	955418	683	0	correct_rejection	NA	0
31	Correct	155	803	1127	7	0	0	956134	684	0	correct_rejection	NA	0
31	Correct	156	804	1128	8	0	0	956851	683	0	correct_rejection	NA	0
31	Correct	157	805	1129	0	1	1	957568	683	1	hit	393	0
31	Correct	158	806	1130	9	0	0	958284	684	0	correct_rejection	NA	0
31	Correct	159	807	1131	7	0	0	959001	683	0	correct_rejection	NA	0
31	Correct	160	808	1132	8	0	0	959718	683	0	correct_rejection	NA	0
31	Correct	161	809	1133	0	1	1	960434	684	1	hit	451	0
31	Correct	162	810	1134	9	0	0	961151	683	0	correct_rejection	NA	0
31	Triplet	1	1	1135	9	0	0	971651	683	0	correct_rejection	NA	7836
31	Triplet	2	2	1136	8	0	0	972367	684	0	correct_rejection	NA	0
31	Triplet	3	3	1137	7	0	0	973084	683	0	correct_rejection	NA	0
31	Triplet	4	4	1138	6	0	0	973801	683	0	correct_rejection	NA	0
31	Triplet	5	5	1139	5	0	0	974517	684	0	correct_rejection	NA	0
31	Triplet	6	6	1140	4	0	0	975234	683	0	correct_rejection	NA	0
31	Triplet	7	7	1141	7	0	0	975951	683	0	correct_rejection	NA	0
31	Triplet	8	8	1142	8	0	0	976667	684	0	correct_rejection	NA	0
31	Triplet	9	9	1143	9	0	0	977384	683	0	correct_rejection	NA	0
31	Triplet	10	10	1144	7	0	0	978101	683	0	correct_rejection	NA	0
31	Triplet	11	11	1145	8	0	0	978817	684	0	correct_rejection	NA	0
31	Triplet	12	12	1146	9	0	0	979534	683	0	correct_rejection	NA	0
31	Triplet	13	13	1147	0	1	2	980251	683	1	hit	403	0
31	Triplet	14	14	1148	4	0	0	980967	684	0	correct_rejection	NA	0
31	Triplet	15	15	1149	5	0	0	981684	683	0	correct_rejection	NA	0
31	Triplet	16	16	1150	0	1	1	982401	683	1	hit	435	0
31	Triplet	17	17	1151	6	0	0	983117	684	0	correct_rejection	NA	0
31	Triplet	18	18	1152	6	0	0	983834	683	0	correct_rejection	NA	0
31	Triplet	19	19	1153	0	1	1	984551	683	1	hit	459	0
31	Triplet	20	20	1154	5	0	0	985267	684	0	correct_rejection	NA	0
31	Triplet	21	21	1155	4	0	0	985984	683	0	correct_rejection	NA	0
31	Triplet	22	22	1156	4	0	0	986701	683	0	correct_rejection	NA	0
31	Triplet	23	23	1157	5	0	0	987417	684	0	correct_rejection	NA	0
31	Triplet	24	24	1158	6	0	0	988134	683	0	correct_rejection	NA	0
31	Triplet	25	25	1159	0	1	2	988851	683	1	hit	398	0
31	Triplet	26	26	1160	7	0	0	989567	684	0	correct_rejection	NA	0
31	Triplet	27	27	1161	8	0	0	990284	683	0	correct_rejection	NA	0
31	Triplet	28	28	1162	9	0	0	991000	684	0	correct_rejection	NA	0
31	Triplet	29	29	1163	9	0	0	991717	684	0	correct_rejection	NA	0
31	Triplet	30	30	1164	8	0	0	992434	683	0	correct_rejection	NA	0
31	Triplet	31	31	1165	7	0	0	993150	684	0	correct_rejection	NA	0
31	Triplet	32	32	1166	7	0	0	993867	683	0	correct_rejection	NA	0
31	Triplet	33	33	1167	8	0	0	994584	683	0	correct_rejection	NA	0
31	Triplet	34	34	1168	9	0	0	995300	684	0	correct_rejection	NA	0
31	Triplet	35	35	1169	6	0	0	996017	683	0	correct_rejection	NA	0
31	Triplet	36	36	1170	5	0	0	996734	683	0	correct_rejection	NA	0
31	Triplet	37	37	1171	4	0	0	997450	684	0	correct_rejection	NA	0
31	Triplet	38	38	1172	6	0	0	998167	683	0	correct_rejection	NA	0
31	Triplet	39	39	1173	5	0	0	998884	683	0	correct_rejection	NA	0
31	Triplet	40	40	1174	4	0	0	999600	684	0	correct_rejection	NA	0
31	Triplet	41	41	1175	9	0	0	1000317	683	0	correct_rejection	NA	0
31	Triplet	42	42	1176	8	0	0	1001034	683	0	correct_rejection	NA	0
31	Triplet	43	43	1177	7	0	0	1001750	684	0	correct_rejection	NA	0
31	Triplet	44	44	1178	9	0	0	1002467	683	0	correct_rejection	NA	0
31	Triplet	45	45	1179	8	0	0	1003184	683	0	correct_rejection	NA	0
31	Triplet	46	46	1180	7	0	0	1003900	684	0	correct_rejection	NA	0
31	Triplet	47	47	1181	0	1	2	1004617	683	1	hit	429	0
31	Triplet	48	48	1182	4	0	0	1005334	683	0	correct_rejection	NA	0
31	Triplet	49	49	1183	5	0	0	1006050	684	0	correct_rejection	NA	0
31	Triplet	50	50	1184	0	1	1	1006767	683	1	hit	430	0
31	Triplet	51	51	1185	6	0	0	1007484	683	0	correct_rejection	NA	0
31	Triplet	52	52	1186	4	0	0	1008200	684	0	correct_rejection	NA	0
31	Triplet	53	53	1187	5	0	0	1008917	683	0	correct_rejection	NA	0
31	Triplet	54	54	1188	6	0	0	1009634	683	0	correct_rejection	NA	0
31	Triplet	55	55	1189	9	0	0	1010350	684	0	correct_rejection	NA	0
31	Triplet	56	56	1190	8	0	0	1011067	683	0	correct_rejection	NA	0
31	Triplet	57	57	1191	7	0	0	1011784	683	0	correct_rejection	NA	0
31	Triplet	58	58	1192	4	0	0	1012500	684	0	correct_rejection	NA	0
31	Triplet	59	59	1193	5	0	0	1013217	683	0	correct_rejection	NA	0
31	Triplet	60	60	1194	6	0	0	1013933	684	0	correct_rejection	NA	0
31	Triplet	61	61	1195	0	1	2	1014650	683	1	hit	426	0
31	Triplet	62	62	1196	6	0	0	1015367	683	0	correct_rejection	NA	0
31	Triplet	63	63	1197	5	0	0	1016083	684	0	correct_rejection	NA	0
31	Triplet	64	64	1198	0	1	1	1016800	683	1	hit	418	0
31	Triplet	65	65	1199	4	0	0	1017517	683	0	correct_rejection	NA	0
31	Triplet	66	66	1200	6	0	0	1018233	684	0	correct_rejection	NA	0
31	Triplet	67	67	1201	5	0	0	1018950	683	0	correct_rejection	NA	0
31	Triplet	68	68	1202	4	0	0	1019667	683	0	correct_rejection	NA	0
31	Triplet	69	69	1203	0	1	2	1020383	684	1	hit	455	0
31	Triplet	70	70	1204	7	0	0	1021100	683	0	correct_rejection	NA	0
31	Triplet	71	71	1205	8	0	0	1021817	683	0	correct_rejection	NA	0
31	Triplet	72	72	1206	0	1	1	1022533	684	1	hit	477	0
31	Triplet	73	73	1207	9	0	0	1023250	683	0	correct_rejection	NA	0
31	Triplet	74	74	1208	4	0	0	1023967	683	0	correct_rejection	NA	0
31	Triplet	75	75	1209	0	1	1	1024683	684	1	hit	347	0
31	Triplet	76	76	1210	5	0	0	1025400	683	0	correct_rejection	NA	0
31	Triplet	77	77	1211	6	0	0	1026117	683	0	correct_rejection	NA	0
31	Triplet	78	78	1212	9	0	0	1026833	684	0	correct_rejection	NA	0
31	Triplet	79	79	1213	8	0	0	1027550	683	0	correct_rejection	NA	0
31	Triplet	80	80	1214	7	0	0	1028267	683	0	correct_rejection	NA	0
31	Triplet	81	81	1215	7	0	0	1028983	684	0	correct_rejection	NA	0
31	Triplet	82	82	1216	8	0	0	1029700	683	0	correct_rejection	NA	0
31	Triplet	83	83	1217	9	0	0	1030417	683	0	correct_rejection	NA	0
31	Triplet	84	84	1218	0	1	2	1031133	684	1	hit	385	0
31	Triplet	85	85	1219	9	0	0	1031850	683	0	correct_rejection	NA	0
31	Triplet	86	86	1220	8	0	0	1032567	683	0	correct_rejection	NA	0
31	Triplet	87	87	1221	7	0	0	1033283	684	0	correct_rejection	NA	0
31	Triplet	88	88	1222	6	0	0	1034000	683	0	correct_rejection	NA	0
31	Triplet	89	89	1223	5	0	0	1034716	684	0	correct_rejection	NA	0
31	Triplet	90	90	1224	4	0	0	1035433	683	0	correct_rejection	NA	0
31	Triplet	91	91	1225	4	0	0	1036150	683	0	correct_rejection	NA	0
31	Triplet	92	92	1226	5	0	0	1036866	684	0	correct_rejection	NA	0
31	Triplet	93	93	1227	6	0	0	1037583	683	0	correct_rejection	NA	0
31	Triplet	94	94	1228	4	0	0	1038300	683	0	correct_rejection	NA	0
31	Triplet	95	95	1229	0	1	1	1039016	684	1	hit	420	0
31	Triplet	96	96	1230	5	0	0	1039733	683	0	correct_rejection	NA	0
31	Triplet	97	97	1231	6	0	0	1040450	683	0	correct_rejection	NA	0
31	Triplet	98	98	1232	7	0	0	1041166	684	0	correct_rejection	NA	0
31	Triplet	99	99	1233	8	0	0	1041883	683	0	correct_rejection	NA	0
31	Triplet	100	100	1234	9	0	0	1042600	683	0	correct_rejection	NA	0
31	Triplet	101	101	1235	7	0	0	1043316	684	0	correct_rejection	NA	0
31	Triplet	102	102	1236	8	0	0	1044033	683	0	correct_rejection	NA	0
31	Triplet	103	103	1237	9	0	0	1044750	683	0	correct_rejection	NA	0
31	Triplet	104	104	1238	6	0	0	1045466	684	0	correct_rejection	NA	0
31	Triplet	105	105	1239	5	0	0	1046183	683	0	correct_rejection	NA	0
31	Triplet	106	106	1240	4	0	0	1046900	683	0	correct_rejection	NA	0
31	Triplet	107	107	1241	9	0	0	1047616	684	0	correct_rejection	NA	0
31	Triplet	108	108	1242	8	0	0	1048333	683	0	correct_rejection	NA	0
31	Triplet	109	109	1243	0	1	1	1049050	683	1	hit	430	0
31	Triplet	110	110	1244	7	0	0	1049766	684	0	correct_rejection	NA	0
31	Triplet	111	111	1245	7	0	0	1050483	683	0	correct_rejection	NA	0
31	Triplet	112	112	1246	8	0	0	1051200	683	0	correct_rejection	NA	0
31	Triplet	113	113	1247	9	0	0	1051916	684	0	correct_rejection	NA	0
31	Triplet	114	114	1248	4	0	0	1052633	683	0	correct_rejection	NA	0
31	Triplet	115	115	1249	5	0	0	1053350	683	0	correct_rejection	NA	0
31	Triplet	116	116	1250	6	0	0	1054066	684	0	correct_rejection	NA	0
31	Triplet	117	117	1251	4	0	0	1054783	683	0	correct_rejection	NA	0
31	Triplet	118	118	1252	5	0	0	1055499	684	0	correct_rejection	NA	0
31	Triplet	119	119	1253	6	0	0	1056216	683	0	correct_rejection	NA	0
31	Triplet	120	120	1254	0	1	2	1056933	683	1	hit	407	0
31	Triplet	121	121	1255	9	0	0	1057649	684	0	correct_rejection	NA	0
31	Triplet	122	122	1256	8	0	0	1058366	683	0	correct_rejection	NA	0
31	Triplet	123	123	1257	7	0	0	1059083	683	0	correct_rejection	NA	0
31	Triplet	124	124	1258	4	0	0	1059799	684	0	correct_rejection	NA	0
31	Triplet	125	125	1259	5	0	0	1060516	683	0	correct_rejection	NA	0
31	Triplet	126	126	1260	6	0	0	1061233	683	0	correct_rejection	NA	0
31	Triplet	127	127	1261	7	0	0	1061949	684	0	correct_rejection	NA	0
31	Triplet	128	128	1262	8	0	0	1062666	683	0	correct_rejection	NA	0
31	Triplet	129	129	1263	0	1	1	1063383	683	1	hit	409	0
31	Triplet	130	130	1264	9	0	0	1064099	684	0	correct_rejection	NA	0
31	Triplet	131	131	1265	6	0	0	1064816	683	0	correct_rejection	NA	0
31	Triplet	132	132	1266	5	0	0	1065533	683	0	correct_rejection	NA	0
31	Triplet	133	133	1267	4	0	0	1066249	684	0	correct_rejection	NA	0
31	Triplet	134	134	1268	0	1	2	1066966	683	1	hit	389	0
31	Triplet	135	135	1269	4	0	0	1067683	683	0	correct_rejection	NA	0
31	Triplet	136	136	1270	5	0	0	1068399	684	0	correct_rejection	NA	0
31	Triplet	137	137	1271	6	0	0	1069116	683	0	correct_rejection	NA	0
31	Triplet	138	138	1272	6	0	0	1069833	683	0	correct_rejection	NA	0
31	Triplet	139	139	1273	5	0	0	1070549	684	0	correct_rejection	NA	0
31	Triplet	140	140	1274	4	0	0	1071266	683	0	correct_rejection	NA	0
31	Triplet	141	141	1275	9	0	0	1071983	683	0	correct_rejection	NA	0
31	Triplet	142	142	1276	8	0	0	1072699	684	0	correct_rejection	NA	0
31	Triplet	143	143	1277	7	0	0	1073416	683	0	correct_rejection	NA	0
31	Triplet	144	144	1278	7	0	0	1074133	683	0	correct_rejection	NA	0
31	Triplet	145	145	1279	8	0	0	1074849	684	0	correct_rejection	NA	0
31	Triplet	146	146	1280	9	0	0	1075566	683	0	correct_rejection	NA	0
31	Triplet	147	147	1281	7	0	0	1076282	684	0	correct_rejection	NA	0
31	Triplet	148	148	1282	8	0	0	1076999	683	0	correct_rejection	NA	0
31	Triplet	149	149	1283	9	0	0	1077716	683	0	correct_rejection	NA	0
31	Triplet	150	150	1284	9	0	0	1078432	684	0	correct_rejection	NA	0
31	Triplet	151	151	1285	0	1	1	1079149	683	1	hit	431	0
31	Triplet	152	152	1286	8	0	0	1079866	683	0	correct_rejection	NA	0
31	Triplet	153	153	1287	7	0	0	1080582	684	0	correct_rejection	NA	0
31	Triplet	154	154	1288	9	0	0	1081299	683	0	correct_rejection	NA	0
31	Triplet	155	155	1289	8	0	0	1082016	683	0	correct_rejection	NA	0
31	Triplet	156	156	1290	7	0	0	1082732	684	0	correct_rejection	NA	0
31	Triplet	157	157	1291	6	0	0	1083449	683	0	correct_rejection	NA	0
31	Triplet	158	158	1292	5	0	0	1084166	683	0	correct_rejection	NA	0
31	Triplet	159	159	1293	4	0	0	1084882	684	0	correct_rejection	NA	0
31	Triplet	160	160	1294	6	0	0	1085599	683	0	correct_rejection	NA	0
31	Triplet	161	161	1295	5	0	0	1086316	683	0	correct_rejection	NA	0
31	Triplet	162	162	1296	4	0	0	1087032	684	0	correct_rejection	NA	0
31	Nonet	1	325	1297	4	0	0	1096349	683	0	correct_rejection	NA	7537
31	Nonet	2	326	1298	5	0	0	1097065	684	0	correct_rejection	NA	0
31	Nonet	3	327	1299	6	0	0	1097782	684	0	correct_rejection	NA	0
31	Nonet	4	328	1300	4	0	0	1098499	683	0	correct_rejection	NA	0
31	Nonet	5	329	1301	5	0	0	1099215	684	0	correct_rejection	NA	0
31	Nonet	6	330	1302	6	0	0	1099932	683	0	correct_rejection	NA	0
31	Nonet	7	331	1303	0	1	2	1100649	683	1	hit	450	0
31	Nonet	8	332	1304	4	0	0	1101365	684	0	correct_rejection	NA	0
31	Nonet	9	333	1305	5	0	0	1102082	683	0	correct_rejection	NA	0
31	Nonet	10	334	1306	6	0	0	1102799	683	0	correct_rejection	NA	0
31	Nonet	11	335	1307	6	0	0	1103515	684	0	correct_rejection	NA	0
31	Nonet	12	336	1308	0	1	1	1104232	683	1	hit	394	0
31	Nonet	13	337	1309	5	0	0	1104949	683	0	correct_rejection	NA	0
31	Nonet	14	338	1310	4	0	0	1105665	684	0	correct_rejection	NA	0
31	Nonet	15	339	1311	6	0	0	1106382	683	0	correct_rejection	NA	0
31	Nonet	16	340	1312	5	0	0	1107099	683	0	correct_rejection	NA	0
31	Nonet	17	341	1313	4	0	0	1107815	684	0	correct_rejection	NA	0
31	Nonet	18	342	1314	6	0	0	1108532	683	0	correct_rejection	NA	0
31	Nonet	19	343	1315	5	0	0	1109249	683	0	correct_rejection	NA	0
31	Nonet	20	344	1316	4	0	0	1109965	684	0	correct_rejection	NA	0
31	Nonet	21	345	1317	4	0	0	1110682	683	0	correct_rejection	NA	0
31	Nonet	22	346	1318	5	0	0	1111399	683	0	correct_rejection	NA	0
31	Nonet	23	347	1319	6	0	0	1112115	684	0	correct_rejection	NA	0
31	Nonet	24	348	1320	4	0	0	1112832	683	0	correct_rejection	NA	0
31	Nonet	25	349	1321	0	1	1	1113549	683	1	hit	425	0
31	Nonet	26	350	1322	5	0	0	1114265	684	0	correct_rejection	NA	0
31	Nonet	27	351	1323	6	0	0	1114982	683	0	correct_rejection	NA	0
31	Nonet	28	352	1324	4	0	0	1115699	683	0	correct_rejection	NA	0
31	Nonet	29	353	1325	5	0	0	1116415	684	0	correct_rejection	NA	0
31	Nonet	30	354	1326	6	0	0	1117132	683	0	correct_rejection	NA	0
31	Nonet	31	355	1327	9	0	0	1117848	684	0	correct_rejection	NA	0
31	Nonet	32	356	1328	8	0	0	1118565	683	0	correct_rejection	NA	0
31	Nonet	33	357	1329	7	0	0	1119282	683	0	correct_rejection	NA	0
31	Nonet	34	358	1330	9	0	0	1119998	684	0	correct_rejection	NA	0
31	Nonet	35	359	1331	8	0	0	1120715	683	0	correct_rejection	NA	0
31	Nonet	36	360	1332	7	0	0	1121432	683	0	correct_rejection	NA	0
31	Nonet	37	361	1333	9	0	0	1122148	684	0	correct_rejection	NA	0
31	Nonet	38	362	1334	8	0	0	1122865	683	0	correct_rejection	NA	0
31	Nonet	39	363	1335	7	0	0	1123582	683	0	correct_rejection	NA	0
31	Nonet	40	364	1336	4	0	0	1124298	684	0	correct_rejection	NA	0
31	Nonet	41	365	1337	5	0	0	1125015	683	0	correct_rejection	NA	0
31	Nonet	42	366	1338	6	0	0	1125732	683	0	correct_rejection	NA	0
31	Nonet	43	367	1339	4	0	0	1126448	684	0	correct_rejection	NA	0
31	Nonet	44	368	1340	5	0	0	1127165	683	0	correct_rejection	NA	0
31	Nonet	45	369	1341	0	1	1	1127882	683	1	hit	380	0
31	Nonet	46	370	1342	6	0	0	1128598	684	0	correct_rejection	NA	0
31	Nonet	47	371	1343	4	0	0	1129315	683	0	correct_rejection	NA	0
31	Nonet	48	372	1344	5	0	0	1130032	683	0	correct_rejection	NA	0
31	Nonet	49	373	1345	6	0	0	1130748	684	0	correct_rejection	NA	0
31	Nonet	50	374	1346	7	0	0	1131465	683	0	correct_rejection	NA	0
31	Nonet	51	375	1347	0	1	1	1132182	683	1	hit	421	0
31	Nonet	52	376	1348	8	0	0	1132898	684	0	correct_rejection	NA	0
31	Nonet	53	377	1349	9	0	0	1133615	683	0	correct_rejection	NA	0
31	Nonet	54	378	1350	7	0	0	1134332	683	0	correct_rejection	NA	0
31	Nonet	55	379	1351	8	0	0	1135048	684	0	correct_rejection	NA	0
31	Nonet	56	380	1352	9	0	0	1135765	683	0	correct_rejection	NA	0
31	Nonet	57	381	1353	7	0	0	1136482	683	0	correct_rejection	NA	0
31	Nonet	58	382	1354	8	0	0	1137198	684	0	correct_rejection	NA	0
31	Nonet	59	383	1355	9	0	0	1137915	683	0	correct_rejection	NA	0
31	Nonet	60	384	1356	9	0	0	1138631	684	0	correct_rejection	NA	0
31	Nonet	61	385	1357	8	0	0	1139348	684	0	correct_rejection	NA	0
31	Nonet	62	386	1358	7	0	0	1140065	683	0	correct_rejection	NA	0
31	Nonet	63	387	1359	9	0	0	1140781	684	0	correct_rejection	NA	0
31	Nonet	64	388	1360	8	0	0	1141498	683	0	correct_rejection	NA	0
31	Nonet	65	389	1361	0	1	1	1142215	683	1	hit	387	0
31	Nonet	66	390	1362	7	0	0	1142931	684	0	correct_rejection	NA	0
31	Nonet	67	391	1363	9	0	0	1143648	683	0	correct_rejection	NA	0
31	Nonet	68	392	1364	8	0	0	1144365	683	0	correct_rejection	NA	0
31	Nonet	69	393	1365	7	0	0	1145081	684	0	correct_rejection	NA	0
31	Nonet	70	394	1366	0	1	3	1145798	683	1	hit	411	0
31	Nonet	71	395	1367	9	0	0	1146515	683	0	correct_rejection	NA	0
31	Nonet	72	396	1368	8	0	0	1147231	684	0	correct_rejection	NA	0
31	Nonet	73	397	1369	7	0	0	1147948	683	0	correct_rejection	NA	0
31	Nonet	74	398	1370	9	0	0	1148665	683	0	correct_rejection	NA	0
31	Nonet	75	399	1371	8	0	0	1149381	684	0	correct_rejection	NA	0
31	Nonet	76	400	1372	7	0	0	1150098	683	0	correct_rejection	NA	0
31	Nonet	77	401	1373	9	0	0	1150815	683	0	correct_rejection	NA	0
31	Nonet	78	402	1374	0	1	1	1151531	684	1	hit	396	0
31	Nonet	79	403	1375	8	0	0	1152248	683	0	correct_rejection	NA	0
31	Nonet	80	404	1376	7	0	0	1152965	683	0	correct_rejection	NA	0
31	Nonet	81	405	1377	6	0	0	1153681	684	0	correct_rejection	NA	0
31	Nonet	82	406	1378	5	0	0	1154398	683	0	correct_rejection	NA	0
31	Nonet	83	407	1379	4	0	0	1155115	683	0	correct_rejection	NA	0
31	Nonet	84	408	1380	0	1	2	1155831	684	1	hit	399	0
31	Nonet	85	409	1381	6	0	0	1156548	683	0	correct_rejection	NA	0
31	Nonet	86	410	1382	5	0	0	1157265	683	0	correct_rejection	NA	0
31	Nonet	87	411	1383	4	0	0	1157981	684	0	correct_rejection	NA	0
31	Nonet	88	412	1384	6	0	0	1158698	683	0	correct_rejection	NA	0
31	Nonet	89	413	1385	5	0	0	1159415	683	0	correct_rejection	NA	0
31	Nonet	90	414	1386	4	0	0	1160131	684	0	correct_rejection	NA	0
31	Nonet	91	415	1387	7	0	0	1160848	683	0	correct_rejection	NA	0
31	Nonet	92	416	1388	8	0	0	1161564	684	0	correct_rejection	NA	0
31	Nonet	93	417	1389	9	0	0	1162281	683	0	correct_rejection	NA	0
31	Nonet	94	418	1390	7	0	0	1162998	683	0	correct_rejection	NA	0
31	Nonet	95	419	1391	8	0	0	1163714	684	0	correct_rejection	NA	0
31	Nonet	96	420	1392	9	0	0	1164431	683	0	correct_rejection	NA	0
31	Nonet	97	421	1393	7	0	0	1165148	683	0	correct_rejection	NA	0
31	Nonet	98	422	1394	8	0	0	1165864	684	0	correct_rejection	NA	0
31	Nonet	99	423	1395	9	0	0	1166581	683	0	correct_rejection	NA	0
31	Nonet	100	424	1396	6	0	0	1167298	683	0	correct_rejection	NA	0
31	Nonet	101	425	1397	0	1	1	1168014	684	1	hit	401	0
31	Nonet	102	426	1398	5	0	0	1168731	683	0	correct_rejection	NA	0
31	Nonet	103	427	1399	4	0	0	1169448	683	0	correct_rejection	NA	0
31	Nonet	104	428	1400	6	0	0	1170164	684	0	correct_rejection	NA	0
31	Nonet	105	429	1401	5	0	0	1170881	683	0	correct_rejection	NA	0
31	Nonet	106	430	1402	4	0	0	1171598	683	0	correct_rejection	NA	0
31	Nonet	107	431	1403	6	0	0	1172314	684	0	correct_rejection	NA	0
31	Nonet	108	432	1404	5	0	0	1173031	683	0	correct_rejection	NA	0
31	Nonet	109	433	1405	4	0	0	1173748	683	0	correct_rejection	NA	0
31	Nonet	110	434	1406	0	1	3	1174464	684	1	hit	466	0
31	Nonet	111	435	1407	6	0	0	1175181	683	0	correct_rejection	NA	0
31	Nonet	112	436	1408	5	0	0	1175898	683	0	correct_rejection	NA	0
31	Nonet	113	437	1409	0	1	1	1176614	684	1	hit	405	0
31	Nonet	114	438	1410	4	0	0	1177331	683	0	correct_rejection	NA	0
31	Nonet	115	439	1411	6	0	0	1178048	683	0	correct_rejection	NA	0
31	Nonet	116	440	1412	5	0	0	1178764	684	0	correct_rejection	NA	0
31	Nonet	117	441	1413	4	0	0	1179481	683	0	correct_rejection	NA	0
31	Nonet	118	442	1414	6	0	0	1180198	683	0	correct_rejection	NA	0
31	Nonet	119	443	1415	5	0	0	1180914	684	0	correct_rejection	NA	0
31	Nonet	120	444	1416	4	0	0	1181631	683	0	correct_rejection	NA	0
31	Nonet	121	445	1417	9	0	0	1182347	684	0	correct_rejection	NA	0
31	Nonet	122	446	1418	8	0	0	1183064	683	0	correct_rejection	NA	0
31	Nonet	123	447	1419	0	1	1	1183781	683	1	hit	387	0
31	Nonet	124	448	1420	7	0	0	1184497	684	0	correct_rejection	NA	0
31	Nonet	125	449	1421	9	0	0	1185214	683	0	correct_rejection	NA	0
31	Nonet	126	450	1422	8	0	0	1185931	683	0	correct_rejection	NA	0
31	Nonet	127	451	1423	7	0	0	1186647	684	0	correct_rejection	NA	0
31	Nonet	128	452	1424	9	0	0	1187364	683	0	correct_rejection	NA	0
31	Nonet	129	453	1425	8	0	0	1188081	683	0	correct_rejection	NA	0
31	Nonet	130	454	1426	7	0	0	1188797	684	0	correct_rejection	NA	0
31	Nonet	131	455	1427	0	1	3	1189514	683	1	hit	372	0
31	Nonet	132	456	1428	7	0	0	1190231	683	0	correct_rejection	NA	0
31	Nonet	133	457	1429	8	0	0	1190947	684	0	correct_rejection	NA	0
31	Nonet	134	458	1430	9	0	0	1191664	683	0	correct_rejection	NA	0
31	Nonet	135	459	1431	7	0	0	1192381	683	0	correct_rejection	NA	0
31	Nonet	136	460	1432	8	0	0	1193097	684	0	correct_rejection	NA	0
31	Nonet	137	461	1433	0	1	1	1193814	683	1	hit	432	0
31	Nonet	138	462	1434	9	0	0	1194531	683	0	correct_rejection	NA	0
31	Nonet	139	463	1435	7	0	0	1195247	684	0	correct_rejection	NA	0
31	Nonet	140	464	1436	8	0	0	1195964	683	0	correct_rejection	NA	0
31	Nonet	141	465	1437	9	0	0	1196681	683	0	correct_rejection	NA	0
31	Nonet	142	466	1438	0	1	3	1197397	684	1	hit	378	0
31	Nonet	143	467	1439	7	0	0	1198114	683	0	correct_rejection	NA	0
31	Nonet	144	468	1440	8	0	0	1198831	683	0	correct_rejection	NA	0
31	Nonet	145	469	1441	9	0	0	1199547	684	0	correct_rejection	NA	0
31	Nonet	146	470	1442	7	0	0	1200264	683	0	correct_rejection	NA	0
31	Nonet	147	471	1443	8	0	0	1200981	683	0	correct_rejection	NA	0
31	Nonet	148	472	1444	9	0	0	1201697	684	0	correct_rejection	NA	0
31	Nonet	149	473	1445	7	0	0	1202414	683	0	correct_rejection	NA	0
31	Nonet	150	474	1446	8	0	0	1203130	684	0	correct_rejection	NA	0
31	Nonet	151	475	1447	9	0	0	1203847	683	0	correct_rejection	NA	0
31	Nonet	152	476	1448	4	0	0	1204564	683	0	correct_rejection	NA	0
31	Nonet	153	477	1449	5	0	0	1205280	684	0	correct_rejection	NA	0
31	Nonet	154	478	1450	0	1	1	1205997	683	1	hit	436	0
31	Nonet	155	479	1451	6	0	0	1206714	683	0	correct_rejection	NA	0
31	Nonet	156	480	1452	4	0	0	1207430	684	0	correct_rejection	NA	0
31	Nonet	157	481	1453	0	1	1	1208147	683	1	hit	427	0
31	Nonet	158	482	1454	5	0	0	1208864	683	0	correct_rejection	NA	0
31	Nonet	159	483	1455	6	0	0	1209580	684	0	correct_rejection	NA	0
31	Nonet	160	484	1456	4	0	0	1210297	683	0	correct_rejection	NA	0
31	Nonet	161	485	1457	5	0	0	1211014	683	0	correct_rejection	NA	0
31	Nonet	162	486	1458	6	0	0	1211730	684	0	correct_rejection	NA	0
31	Correct	1	163	1459	4	0	0	1220297	683	0	correct_rejection	NA	6497
31	Correct	2	164	1460	5	0	0	1221014	683	0	correct_rejection	NA	0
31	Correct	3	165	1461	6	0	0	1221730	684	0	correct_rejection	NA	0
31	Correct	4	166	1462	4	0	0	1222447	683	0	correct_rejection	NA	0
31	Correct	5	167	1463	5	0	0	1223164	683	0	correct_rejection	NA	0
31	Correct	6	168	1464	6	0	0	1223880	684	0	correct_rejection	NA	0
31	Correct	7	169	1465	4	0	0	1224597	683	0	correct_rejection	NA	0
31	Correct	8	170	1466	0	1	1	1225313	684	1	hit	412	0
31	Correct	9	171	1467	5	0	0	1226030	683	0	correct_rejection	NA	0
31	Correct	10	172	1468	6	0	0	1226747	683	0	correct_rejection	NA	0
31	Correct	11	173	1469	6	0	0	1227463	684	0	correct_rejection	NA	0
31	Correct	12	174	1470	5	0	0	1228180	683	0	correct_rejection	NA	0
31	Correct	13	175	1471	4	0	0	1228897	683	0	correct_rejection	NA	0
31	Correct	14	176	1472	0	1	2	1229613	684	1	hit	364	0
31	Correct	15	177	1473	6	0	0	1230330	683	0	correct_rejection	NA	0
31	Correct	16	178	1474	5	0	0	1231047	683	0	correct_rejection	NA	0
31	Correct	17	179	1475	4	0	0	1231763	684	0	correct_rejection	NA	0
31	Correct	18	180	1476	6	0	0	1232480	683	0	correct_rejection	NA	0
31	Correct	19	181	1477	5	0	0	1233197	683	0	correct_rejection	NA	0
31	Correct	20	182	1478	4	0	0	1233913	684	0	correct_rejection	NA	0
31	Correct	21	183	1479	0	1	3	1234630	683	1	hit	375	0
31	Correct	22	184	1480	9	0	0	1235347	683	0	correct_rejection	NA	0
31	Correct	23	185	1481	8	0	0	1236063	684	0	correct_rejection	NA	0
31	Correct	24	186	1482	7	0	0	1236780	683	0	correct_rejection	NA	0
31	Correct	25	187	1483	0	1	2	1237497	683	1	hit	383	0
31	Correct	26	188	1484	9	0	0	1238213	684	0	correct_rejection	NA	0
31	Correct	27	189	1485	8	0	0	1238930	683	0	correct_rejection	NA	0
31	Correct	28	190	1486	0	1	1	1239647	683	1	hit	473	0
31	Correct	29	191	1487	7	0	0	1240363	684	0	correct_rejection	NA	0
31	Correct	30	192	1488	9	0	0	1241080	683	0	correct_rejection	NA	0
31	Correct	31	193	1489	8	0	0	1241797	683	0	correct_rejection	NA	0
31	Correct	32	194	1490	7	0	0	1242513	684	0	correct_rejection	NA	0
31	Correct	33	195	1491	0	1	3	1243230	683	1	hit	368	0
31	Correct	34	196	1492	7	0	0	1243947	683	0	correct_rejection	NA	0
31	Correct	35	197	1493	8	0	0	1244663	684	0	correct_rejection	NA	0
31	Correct	36	198	1494	9	0	0	1245380	683	0	correct_rejection	NA	0
31	Correct	37	199	1495	7	0	0	1246096	684	0	correct_rejection	NA	0
31	Correct	38	200	1496	8	0	0	1246813	683	0	correct_rejection	NA	0
31	Correct	39	201	1497	9	0	0	1247530	683	0	correct_rejection	NA	0
31	Correct	40	202	1498	7	0	0	1248246	684	0	correct_rejection	NA	0
31	Correct	41	203	1499	8	0	0	1248963	683	0	correct_rejection	NA	0
31	Correct	42	204	1500	9	0	0	1249680	683	0	correct_rejection	NA	0
31	Correct	43	205	1501	4	0	0	1250396	684	0	correct_rejection	NA	0
31	Correct	44	206	1502	5	0	0	1251113	683	0	correct_rejection	NA	0
31	Correct	45	207	1503	6	0	0	1251830	683	0	correct_rejection	NA	0
31	Correct	46	208	1504	4	0	0	1252546	684	0	correct_rejection	NA	0
31	Correct	47	209	1505	5	0	0	1253263	683	0	correct_rejection	NA	0
31	Correct	48	210	1506	6	0	0	1253980	683	0	correct_rejection	NA	0
31	Correct	49	211	1507	4	0	0	1254696	684	0	correct_rejection	NA	0
31	Correct	50	212	1508	5	0	0	1255413	683	0	correct_rejection	NA	0
31	Correct	51	213	1509	6	0	0	1256130	683	0	correct_rejection	NA	0
31	Correct	52	214	1510	6	0	0	1256846	684	0	correct_rejection	NA	0
31	Correct	53	215	1511	5	0	0	1257563	683	0	correct_rejection	NA	0
31	Correct	54	216	1512	4	0	0	1258280	683	0	correct_rejection	NA	0
31	Correct	55	217	1513	6	0	0	1258996	684	0	correct_rejection	NA	0
31	Correct	56	218	1514	5	0	0	1259713	683	0	correct_rejection	NA	0
31	Correct	57	219	1515	4	0	0	1260430	683	0	correct_rejection	NA	0
31	Correct	58	220	1516	6	0	0	1261146	684	0	correct_rejection	NA	0
31	Correct	59	221	1517	5	0	0	1261863	683	0	correct_rejection	NA	0
31	Correct	60	222	1518	0	1	1	1262580	683	1	hit	411	0
31	Correct	61	223	1519	4	0	0	1263296	684	0	correct_rejection	NA	0
31	Correct	62	224	1520	9	0	0	1264013	683	0	correct_rejection	NA	0
31	Correct	63	225	1521	0	1	1	1264730	683	1	hit	462	0
31	Correct	64	226	1522	8	0	0	1265446	684	0	correct_rejection	NA	0
31	Correct	65	227	1523	7	0	0	1266163	683	0	correct_rejection	NA	0
31	Correct	66	228	1524	9	0	0	1266879	684	0	correct_rejection	NA	0
31	Correct	67	229	1525	8	0	0	1267596	683	0	correct_rejection	NA	0
31	Correct	68	230	1526	7	0	0	1268313	683	0	correct_rejection	NA	0
31	Correct	69	231	1527	9	0	0	1269029	684	0	correct_rejection	NA	0
31	Correct	70	232	1528	8	0	0	1269746	683	0	correct_rejection	NA	0
31	Correct	71	233	1529	7	0	0	1270463	683	0	correct_rejection	NA	0
31	Correct	72	234	1530	7	0	0	1271179	684	0	correct_rejection	NA	0
31	Correct	73	235	1531	8	0	0	1271896	683	0	correct_rejection	NA	0
31	Correct	74	236	1532	0	1	1	1272613	683	1	hit	416	0
31	Correct	75	237	1533	9	0	0	1273329	684	0	correct_rejection	NA	0
31	Correct	76	238	1534	7	0	0	1274046	683	0	correct_rejection	NA	0
31	Correct	77	239	1535	0	1	1	1274763	683	1	hit	414	0
31	Correct	78	240	1536	8	0	0	1275479	684	0	correct_rejection	NA	0
31	Correct	79	241	1537	9	0	0	1276196	683	0	correct_rejection	NA	0
31	Correct	80	242	1538	7	0	0	1276913	683	0	correct_rejection	NA	0
31	Correct	81	243	1539	0	1	1	1277629	684	1	hit	401	0
31	Correct	82	244	1540	8	0	0	1278346	683	0	correct_rejection	NA	0
31	Correct	83	245	1541	9	0	0	1279063	683	0	correct_rejection	NA	0
31	Correct	84	246	1542	4	0	0	1279779	684	0	correct_rejection	NA	0
31	Correct	85	247	1543	5	0	0	1280496	683	0	correct_rejection	NA	0
31	Correct	86	248	1544	6	0	0	1281213	683	0	correct_rejection	NA	0
31	Correct	87	249	1545	0	1	2	1281929	684	1	hit	370	0
31	Correct	88	250	1546	4	0	0	1282646	683	0	correct_rejection	NA	0
31	Correct	89	251	1547	5	0	0	1283363	683	0	correct_rejection	NA	0
31	Correct	90	252	1548	6	0	0	1284079	684	0	correct_rejection	NA	0
31	Correct	91	253	1549	4	0	0	1284796	683	0	correct_rejection	NA	0
31	Correct	92	254	1550	5	0	0	1285513	683	0	correct_rejection	NA	0
31	Correct	93	255	1551	6	0	0	1286229	684	0	correct_rejection	NA	0
31	Correct	94	256	1552	6	0	0	1286946	683	0	correct_rejection	NA	0
31	Correct	95	257	1553	0	1	1	1287662	684	1	hit	420	0
31	Correct	96	258	1554	5	0	0	1288379	683	0	correct_rejection	NA	0
31	Correct	97	259	1555	4	0	0	1289096	683	0	correct_rejection	NA	0
31	Correct	98	260	1556	6	0	0	1289812	684	0	correct_rejection	NA	0
31	Correct	99	261	1557	5	0	0	1290529	683	0	correct_rejection	NA	0
31	Correct	100	262	1558	4	0	0	1291246	683	0	correct_rejection	NA	0
31	Correct	101	263	1559	6	0	0	1291962	684	0	correct_rejection	NA	0
31	Correct	102	264	1560	5	0	0	1292679	683	0	correct_rejection	NA	0
31	Correct	103	265	1561	4	0	0	1293396	683	0	correct_rejection	NA	0
31	Correct	104	266	1562	9	0	0	1294112	684	0	correct_rejection	NA	0
31	Correct	105	267	1563	8	0	0	1294829	683	0	correct_rejection	NA	0
31	Correct	106	268	1564	7	0	0	1295546	683	0	correct_rejection	NA	0
31	Correct	107	269	1565	9	0	0	1296262	684	0	correct_rejection	NA	0
31	Correct	108	270	1566	8	0	0	1296979	683	0	correct_rejection	NA	0
31	Correct	109	271	1567	7	0	0	1297696	683	0	correct_rejection	NA	0
31	Correct	110	272	1568	9	0	0	1298412	684	0	correct_rejection	NA	0
31	Correct	111	273	1569	8	0	0	1299129	683	0	correct_rejection	NA	0
31	Correct	112	274	1570	7	0	0	1299846	683	0	correct_rejection	NA	0
31	Correct	113	275	1571	7	0	0	1300562	684	0	correct_rejection	NA	0
31	Correct	114	276	1572	8	0	0	1301279	683	0	correct_rejection	NA	0
31	Correct	115	277	1573	0	1	1	1301996	683	1	hit	422	0
31	Correct	116	278	1574	9	0	0	1302712	684	0	correct_rejection	NA	0
31	Correct	117	279	1575	7	0	0	1303429	683	0	correct_rejection	NA	0
31	Correct	118	280	1576	8	0	0	1304146	683	0	correct_rejection	NA	0
31	Correct	119	281	1577	9	0	0	1304862	684	0	correct_rejection	NA	0
31	Correct	120	282	1578	0	1	2	1305579	683	1	hit	391	0
31	Correct	121	283	1579	7	0	0	1306296	683	0	correct_rejection	NA	0
31	Correct	122	284	1580	8	0	0	1307012	684	0	correct_rejection	NA	0
31	Correct	123	285	1581	9	0	0	1307729	683	0	correct_rejection	NA	0
31	Correct	124	286	1582	4	0	0	1308445	684	0	correct_rejection	NA	0
31	Correct	125	287	1583	5	0	0	1309162	684	0	correct_rejection	NA	0
31	Correct	126	288	1584	0	1	1	1309879	683	1	hit	406	0
31	Correct	127	289	1585	6	0	0	1310595	684	0	correct_rejection	NA	0
31	Correct	128	290	1586	4	0	0	1311312	683	0	correct_rejection	NA	0
31	Correct	129	291	1587	5	0	0	1312029	683	0	correct_rejection	NA	0
31	Correct	130	292	1588	6	0	0	1312745	684	0	correct_rejection	NA	0
31	Correct	131	293	1589	4	0	0	1313462	683	0	correct_rejection	NA	0
31	Correct	132	294	1590	5	0	0	1314179	683	0	correct_rejection	NA	0
31	Correct	133	295	1591	6	0	0	1314895	684	0	correct_rejection	NA	0
31	Correct	134	296	1592	6	0	0	1315612	683	0	correct_rejection	NA	0
31	Correct	135	297	1593	5	0	0	1316329	683	0	correct_rejection	NA	0
31	Correct	136	298	1594	4	0	0	1317045	684	0	correct_rejection	NA	0
31	Correct	137	299	1595	6	0	0	1317762	683	0	correct_rejection	NA	0
31	Correct	138	300	1596	5	0	0	1318479	683	0	correct_rejection	NA	0
31	Correct	139	301	1597	4	0	0	1319195	684	0	correct_rejection	NA	0
