ID	block	trial_block	trial_cat	trial_total	number	violation	level_violation	onset	duration	Response	Hit_Miss	RT	pre_trial_fixcross_ISI
first_trigger_at: 11241
trigger nr 3 at 13241
32	Correct	1	163	1	4	0	0	19799	684	0	correct_rejection	NA	6497
32	Correct	2	164	2	5	0	0	20516	683	0	correct_rejection	NA	0
32	Correct	3	165	3	6	0	0	21232	684	0	correct_rejection	NA	0
32	Correct	4	166	4	4	0	0	21949	683	0	correct_rejection	NA	0
32	Correct	5	167	5	5	0	0	22666	683	0	correct_rejection	NA	0
32	Correct	6	168	6	6	0	0	23382	684	0	correct_rejection	NA	0
32	Correct	7	169	7	4	0	0	24099	683	0	correct_rejection	NA	0
32	Correct	8	170	8	0	1	1	24816	683	1	hit	538	0
32	Correct	9	171	9	5	0	0	25532	684	0	correct_rejection	NA	0
32	Correct	10	172	10	6	0	0	26249	683	0	correct_rejection	NA	0
32	Correct	11	173	11	6	0	0	26966	683	0	correct_rejection	NA	0
32	Correct	12	174	12	5	0	0	27682	684	0	correct_rejection	NA	0
32	Correct	13	175	13	4	0	0	28399	683	0	correct_rejection	NA	0
32	Correct	14	176	14	0	1	2	29116	683	1	hit	543	0
32	Correct	15	177	15	6	0	0	29832	684	0	correct_rejection	NA	0
32	Correct	16	178	16	5	0	0	30549	683	0	correct_rejection	NA	0
32	Correct	17	179	17	4	0	0	31266	683	0	correct_rejection	NA	0
32	Correct	18	180	18	6	0	0	31982	684	0	correct_rejection	NA	0
32	Correct	19	181	19	5	0	0	32699	683	0	correct_rejection	NA	0
32	Correct	20	182	20	4	0	0	33416	683	0	correct_rejection	NA	0
32	Correct	21	183	21	0	1	3	34132	684	1	hit	487	0
32	Correct	22	184	22	9	0	0	34849	683	0	correct_rejection	NA	0
32	Correct	23	185	23	8	0	0	35566	683	0	correct_rejection	NA	0
32	Correct	24	186	24	7	0	0	36282	684	0	correct_rejection	NA	0
32	Correct	25	187	25	0	1	2	36999	683	1	hit	450	0
32	Correct	26	188	26	9	0	0	37716	683	0	correct_rejection	NA	0
32	Correct	27	189	27	8	0	0	38432	684	0	correct_rejection	NA	0
32	Correct	28	190	28	0	1	1	39149	683	1	hit	576	0
32	Correct	29	191	29	7	0	0	39866	683	0	correct_rejection	NA	0
32	Correct	30	192	30	9	0	0	40582	684	0	correct_rejection	NA	0
32	Correct	31	193	31	8	0	0	41299	683	0	correct_rejection	NA	0
32	Correct	32	194	32	7	0	0	42015	684	0	correct_rejection	NA	0
32	Correct	33	195	33	0	1	3	42732	684	1	hit	481	0
32	Correct	34	196	34	7	0	0	43449	683	0	correct_rejection	NA	0
32	Correct	35	197	35	8	0	0	44165	684	0	correct_rejection	NA	0
32	Correct	36	198	36	9	0	0	44882	683	0	correct_rejection	NA	0
32	Correct	37	199	37	7	0	0	45599	683	0	correct_rejection	NA	0
32	Correct	38	200	38	8	0	0	46315	684	0	correct_rejection	NA	0
32	Correct	39	201	39	9	0	0	47032	683	0	correct_rejection	NA	0
32	Correct	40	202	40	7	0	0	47749	683	0	correct_rejection	NA	0
32	Correct	41	203	41	8	0	0	48465	684	0	correct_rejection	NA	0
32	Correct	42	204	42	9	0	0	49182	683	0	correct_rejection	NA	0
32	Correct	43	205	43	4	0	0	49899	683	0	correct_rejection	NA	0
32	Correct	44	206	44	5	0	0	50615	684	0	correct_rejection	NA	0
32	Correct	45	207	45	6	0	0	51332	683	0	correct_rejection	NA	0
32	Correct	46	208	46	4	0	0	52049	683	0	correct_rejection	NA	0
32	Correct	47	209	47	5	0	0	52765	684	0	correct_rejection	NA	0
32	Correct	48	210	48	6	0	0	53482	683	0	correct_rejection	NA	0
32	Correct	49	211	49	4	0	0	54199	683	0	correct_rejection	NA	0
32	Correct	50	212	50	5	0	0	54915	684	0	correct_rejection	NA	0
32	Correct	51	213	51	6	0	0	55632	683	0	correct_rejection	NA	0
32	Correct	52	214	52	6	0	0	56349	683	0	correct_rejection	NA	0
32	Correct	53	215	53	5	0	0	57065	684	0	correct_rejection	NA	0
32	Correct	54	216	54	4	0	0	57782	683	0	correct_rejection	NA	0
32	Correct	55	217	55	6	0	0	58499	683	0	correct_rejection	NA	0
32	Correct	56	218	56	5	0	0	59215	684	0	correct_rejection	NA	0
32	Correct	57	219	57	4	0	0	59932	683	0	correct_rejection	NA	0
32	Correct	58	220	58	6	0	0	60649	683	0	correct_rejection	NA	0
32	Correct	59	221	59	5	0	0	61365	684	0	correct_rejection	NA	0
32	Correct	60	222	60	0	1	1	62082	683	1	hit	500	0
32	Correct	61	223	61	4	0	0	62798	684	0	correct_rejection	NA	0
32	Correct	62	224	62	9	0	0	63515	684	0	correct_rejection	NA	0
32	Correct	63	225	63	0	1	1	64232	683	1	hit	531	0
32	Correct	64	226	64	8	0	0	64948	684	0	correct_rejection	NA	0
32	Correct	65	227	65	7	0	0	65665	683	0	correct_rejection	NA	0
32	Correct	66	228	66	9	0	0	66382	683	0	correct_rejection	NA	0
32	Correct	67	229	67	8	0	0	67098	684	0	correct_rejection	NA	0
32	Correct	68	230	68	7	0	0	67815	683	0	correct_rejection	NA	0
32	Correct	69	231	69	9	0	0	68532	683	0	correct_rejection	NA	0
32	Correct	70	232	70	8	0	0	69248	684	0	correct_rejection	NA	0
32	Correct	71	233	71	7	0	0	69965	683	0	correct_rejection	NA	0
32	Correct	72	234	72	7	0	0	70682	683	0	correct_rejection	NA	0
32	Correct	73	235	73	8	0	0	71398	684	0	correct_rejection	NA	0
32	Correct	74	236	74	0	1	1	72115	683	1	hit	428	0
32	Correct	75	237	75	9	0	0	72832	683	0	correct_rejection	NA	0
32	Correct	76	238	76	7	0	0	73548	684	0	correct_rejection	NA	0
32	Correct	77	239	77	0	1	1	74265	683	1	hit	589	0
32	Correct	78	240	78	8	0	0	74982	683	0	correct_rejection	NA	0
32	Correct	79	241	79	9	0	0	75698	684	0	correct_rejection	NA	0
32	Correct	80	242	80	7	0	0	76415	683	0	correct_rejection	NA	0
32	Correct	81	243	81	0	1	1	77132	683	1	hit	407	0
32	Correct	82	244	82	8	0	0	77848	684	0	correct_rejection	NA	0
32	Correct	83	245	83	9	0	0	78565	683	0	correct_rejection	NA	0
32	Correct	84	246	84	4	0	0	79282	683	0	correct_rejection	NA	0
32	Correct	85	247	85	5	0	0	79998	684	0	correct_rejection	NA	0
32	Correct	86	248	86	6	0	0	80715	683	0	correct_rejection	NA	0
32	Correct	87	249	87	0	1	2	81432	683	1	hit	454	0
32	Correct	88	250	88	4	0	0	82148	684	0	correct_rejection	NA	0
32	Correct	89	251	89	5	0	0	82865	683	0	correct_rejection	NA	0
32	Correct	90	252	90	6	0	0	83582	683	0	correct_rejection	NA	0
32	Correct	91	253	91	4	0	0	84298	684	0	correct_rejection	NA	0
32	Correct	92	254	92	5	0	0	85015	683	0	correct_rejection	NA	0
32	Correct	93	255	93	6	0	0	85731	684	0	correct_rejection	NA	0
32	Correct	94	256	94	6	0	0	86448	683	0	correct_rejection	NA	0
32	Correct	95	257	95	0	1	1	87165	683	1	hit	626	0
32	Correct	96	258	96	5	0	0	87881	684	0	correct_rejection	NA	0
32	Correct	97	259	97	4	0	0	88598	683	0	correct_rejection	NA	0
32	Correct	98	260	98	6	0	0	89315	683	0	correct_rejection	NA	0
32	Correct	99	261	99	5	0	0	90031	684	0	correct_rejection	NA	0
32	Correct	100	262	100	4	0	0	90748	683	0	correct_rejection	NA	0
32	Correct	101	263	101	6	0	0	91465	683	0	correct_rejection	NA	0
32	Correct	102	264	102	5	0	0	92181	684	0	correct_rejection	NA	0
32	Correct	103	265	103	4	0	0	92898	683	0	correct_rejection	NA	0
32	Correct	104	266	104	9	0	0	93615	683	0	correct_rejection	NA	0
32	Correct	105	267	105	8	0	0	94331	684	0	correct_rejection	NA	0
32	Correct	106	268	106	7	0	0	95048	683	0	correct_rejection	NA	0
32	Correct	107	269	107	9	0	0	95765	683	0	correct_rejection	NA	0
32	Correct	108	270	108	8	0	0	96481	684	0	correct_rejection	NA	0
32	Correct	109	271	109	7	0	0	97198	683	0	correct_rejection	NA	0
32	Correct	110	272	110	9	0	0	97915	683	0	correct_rejection	NA	0
32	Correct	111	273	111	8	0	0	98631	684	0	correct_rejection	NA	0
32	Correct	112	274	112	7	0	0	99348	683	0	correct_rejection	NA	0
32	Correct	113	275	113	7	0	0	100065	683	0	correct_rejection	NA	0
32	Correct	114	276	114	8	0	0	100781	684	0	correct_rejection	NA	0
32	Correct	115	277	115	0	1	1	101498	683	1	hit	428	0
32	Correct	116	278	116	9	0	0	102215	683	0	correct_rejection	NA	0
32	Correct	117	279	117	7	0	0	102931	684	0	correct_rejection	NA	0
32	Correct	118	280	118	8	0	0	103648	683	0	correct_rejection	NA	0
32	Correct	119	281	119	9	0	0	104365	683	0	correct_rejection	NA	0
32	Correct	120	282	120	0	1	2	105081	684	1	hit	428	0
32	Correct	121	283	121	7	0	0	105798	683	0	correct_rejection	NA	0
32	Correct	122	284	122	8	0	0	106514	684	0	correct_rejection	NA	0
32	Correct	123	285	123	9	0	0	107231	683	0	correct_rejection	NA	0
32	Correct	124	286	124	4	0	0	107948	683	0	correct_rejection	NA	0
32	Correct	125	287	125	5	0	0	108664	684	0	correct_rejection	NA	0
32	Correct	126	288	126	0	1	1	109381	683	1	hit	493	0
32	Correct	127	289	127	6	0	0	110098	683	0	correct_rejection	NA	0
32	Correct	128	290	128	4	0	0	110814	684	0	correct_rejection	NA	0
32	Correct	129	291	129	5	0	0	111531	683	0	correct_rejection	NA	0
32	Correct	130	292	130	6	0	0	112248	683	0	correct_rejection	NA	0
32	Correct	131	293	131	4	0	0	112964	684	0	correct_rejection	NA	0
32	Correct	132	294	132	5	0	0	113681	683	0	correct_rejection	NA	0
32	Correct	133	295	133	6	0	0	114398	683	0	correct_rejection	NA	0
32	Correct	134	296	134	6	0	0	115114	684	0	correct_rejection	NA	0
32	Correct	135	297	135	5	0	0	115831	683	0	correct_rejection	NA	0
32	Correct	136	298	136	4	0	0	116548	683	0	correct_rejection	NA	0
32	Correct	137	299	137	6	0	0	117264	684	0	correct_rejection	NA	0
32	Correct	138	300	138	5	0	0	117981	683	0	correct_rejection	NA	0
32	Correct	139	301	139	4	0	0	118698	683	0	correct_rejection	NA	0
32	Correct	140	302	140	6	0	0	119414	684	0	correct_rejection	NA	0
32	Correct	141	303	141	5	0	0	120131	683	0	correct_rejection	NA	0
32	Correct	142	304	142	4	0	0	120848	683	0	correct_rejection	NA	0
32	Correct	143	305	143	9	0	0	121564	684	0	correct_rejection	NA	0
32	Correct	144	306	144	8	0	0	122281	683	0	correct_rejection	NA	0
32	Correct	145	307	145	7	0	0	122998	683	0	correct_rejection	NA	0
32	Correct	146	308	146	9	0	0	123714	684	0	correct_rejection	NA	0
32	Correct	147	309	147	8	0	0	124431	683	0	correct_rejection	NA	0
32	Correct	148	310	148	0	1	1	125148	683	1	hit	464	0
32	Correct	149	311	149	7	0	0	125864	684	0	correct_rejection	NA	0
32	Correct	150	312	150	9	0	0	126581	683	0	correct_rejection	NA	0
32	Correct	151	313	151	8	0	0	127297	684	0	correct_rejection	NA	0
32	Correct	152	314	152	7	0	0	128014	684	0	correct_rejection	NA	0
32	Correct	153	315	153	7	0	0	128731	683	0	correct_rejection	NA	0
32	Correct	154	316	154	0	1	1	129447	684	1	hit	519	0
32	Correct	155	317	155	8	0	0	130164	683	0	correct_rejection	NA	0
32	Correct	156	318	156	9	0	0	130881	683	0	correct_rejection	NA	0
32	Correct	157	319	157	7	0	0	131597	684	0	correct_rejection	NA	0
32	Correct	158	320	158	8	0	0	132314	683	0	correct_rejection	NA	0
32	Correct	159	321	159	9	0	0	133031	683	0	correct_rejection	NA	0
32	Correct	160	322	160	7	0	0	133747	684	0	correct_rejection	NA	0
32	Correct	161	323	161	8	0	0	134464	683	0	correct_rejection	NA	0
32	Correct	162	324	162	9	0	0	135181	683	0	correct_rejection	NA	0
32	Nonet	1	649	163	6	0	0	145131	683	0	correct_rejection	NA	7816
32	Nonet	2	650	164	5	0	0	145847	684	0	correct_rejection	NA	0
32	Nonet	3	651	165	4	0	0	146564	683	0	correct_rejection	NA	0
32	Nonet	4	652	166	6	0	0	147281	683	0	correct_rejection	NA	0
32	Nonet	5	653	167	5	0	0	147997	684	0	correct_rejection	NA	0
32	Nonet	6	654	168	4	0	0	148714	683	0	correct_rejection	NA	0
32	Nonet	7	655	169	6	0	0	149430	684	0	correct_rejection	NA	0
32	Nonet	8	656	170	5	0	0	150147	683	0	correct_rejection	NA	0
32	Nonet	9	657	171	4	0	0	150864	683	0	correct_rejection	NA	0
32	Nonet	10	658	172	9	0	0	151580	684	0	correct_rejection	NA	0
32	Nonet	11	659	173	8	0	0	152297	683	0	correct_rejection	NA	0
32	Nonet	12	660	174	7	0	0	153014	683	0	correct_rejection	NA	0
32	Nonet	13	661	175	9	0	0	153730	684	0	correct_rejection	NA	0
32	Nonet	14	662	176	8	0	0	154447	683	0	correct_rejection	NA	0
32	Nonet	15	663	177	7	0	0	155164	683	0	correct_rejection	NA	0
32	Nonet	16	664	178	0	1	2	155880	684	1	hit	434	0
32	Nonet	17	665	179	9	0	0	156597	683	0	correct_rejection	NA	0
32	Nonet	18	666	180	8	0	0	157314	683	0	correct_rejection	NA	0
32	Nonet	19	667	181	7	0	0	158030	684	0	correct_rejection	NA	0
32	Nonet	20	668	182	0	1	3	158747	683	1	hit	432	0
32	Nonet	21	669	183	4	0	0	159464	683	0	correct_rejection	NA	0
32	Nonet	22	670	184	5	0	0	160180	684	0	correct_rejection	NA	0
32	Nonet	23	671	185	0	1	1	160897	683	1	hit	433	0
32	Nonet	24	672	186	6	0	0	161614	683	0	correct_rejection	NA	0
32	Nonet	25	673	187	4	0	0	162330	684	0	correct_rejection	NA	0
32	Nonet	26	674	188	5	0	0	163047	683	0	correct_rejection	NA	0
32	Nonet	27	675	189	6	0	0	163764	683	0	correct_rejection	NA	0
32	Nonet	28	676	190	4	0	0	164480	684	0	correct_rejection	NA	0
32	Nonet	29	677	191	5	0	0	165197	683	0	correct_rejection	NA	0
32	Nonet	30	678	192	0	1	1	165914	683	1	hit	526	0
32	Nonet	31	679	193	6	0	0	166630	684	0	correct_rejection	NA	0
32	Nonet	32	680	194	4	0	0	167347	683	0	correct_rejection	NA	0
32	Nonet	33	681	195	5	0	0	168064	683	0	correct_rejection	NA	0
32	Nonet	34	682	196	6	0	0	168780	684	0	correct_rejection	NA	0
32	Nonet	35	683	197	4	0	0	169497	683	0	correct_rejection	NA	0
32	Nonet	36	684	198	5	0	0	170213	684	0	correct_rejection	NA	0
32	Nonet	37	685	199	6	0	0	170930	684	0	correct_rejection	NA	0
32	Nonet	38	686	200	4	0	0	171647	683	0	correct_rejection	NA	0
32	Nonet	39	687	201	5	0	0	172363	684	0	correct_rejection	NA	0
32	Nonet	40	688	202	6	0	0	173080	683	0	correct_rejection	NA	0
32	Nonet	41	689	203	6	0	0	173797	683	0	correct_rejection	NA	0
32	Nonet	42	690	204	5	0	0	174513	684	0	correct_rejection	NA	0
32	Nonet	43	691	205	4	0	0	175230	683	0	correct_rejection	NA	0
32	Nonet	44	692	206	6	0	0	175947	683	0	correct_rejection	NA	0
32	Nonet	45	693	207	5	0	0	176663	684	0	correct_rejection	NA	0
32	Nonet	46	694	208	4	0	0	177380	683	0	correct_rejection	NA	0
32	Nonet	47	695	209	6	0	0	178097	683	0	correct_rejection	NA	0
32	Nonet	48	696	210	5	0	0	178813	684	0	correct_rejection	NA	0
32	Nonet	49	697	211	0	1	1	179530	683	1	hit	595	0
32	Nonet	50	698	212	4	0	0	180247	683	0	correct_rejection	NA	0
32	Nonet	51	699	213	6	0	0	180963	684	0	correct_rejection	NA	0
32	Nonet	52	700	214	5	0	0	181680	683	0	correct_rejection	NA	0
32	Nonet	53	701	215	4	0	0	182397	683	0	correct_rejection	NA	0
32	Nonet	54	702	216	6	0	0	183113	684	0	correct_rejection	NA	0
32	Nonet	55	703	217	0	1	1	183830	683	1	hit	555	0
32	Nonet	56	704	218	5	0	0	184547	683	0	correct_rejection	NA	0
32	Nonet	57	705	219	4	0	0	185263	684	0	correct_rejection	NA	0
32	Nonet	58	706	220	0	1	2	185980	683	1	hit	552	0
32	Nonet	59	707	221	6	0	0	186697	683	0	correct_rejection	NA	0
32	Nonet	60	708	222	5	0	0	187413	684	0	correct_rejection	NA	0
32	Nonet	61	709	223	4	0	0	188130	683	0	correct_rejection	NA	0
32	Nonet	62	710	224	4	0	0	188847	683	0	correct_rejection	NA	0
32	Nonet	63	711	225	5	0	0	189563	684	0	correct_rejection	NA	0
32	Nonet	64	712	226	6	0	0	190280	683	0	correct_rejection	NA	0
32	Nonet	65	713	227	4	0	0	190996	684	0	correct_rejection	NA	0
32	Nonet	66	714	228	5	0	0	191713	684	0	correct_rejection	NA	0
32	Nonet	67	715	229	6	0	0	192430	683	0	correct_rejection	NA	0
32	Nonet	68	716	230	4	0	0	193146	684	0	correct_rejection	NA	0
32	Nonet	69	717	231	5	0	0	193863	683	0	correct_rejection	NA	0
32	Nonet	70	718	232	6	0	0	194580	683	0	correct_rejection	NA	0
32	Nonet	71	719	233	7	0	0	195296	684	0	correct_rejection	NA	0
32	Nonet	72	720	234	8	0	0	196013	683	0	correct_rejection	NA	0
32	Nonet	73	721	235	9	0	0	196730	683	0	correct_rejection	NA	0
32	Nonet	74	722	236	0	1	2	197446	684	1	hit	510	0
32	Nonet	75	723	237	7	0	0	198163	683	0	correct_rejection	NA	0
32	Nonet	76	724	238	8	0	0	198880	683	0	correct_rejection	NA	0
32	Nonet	77	725	239	0	1	1	199596	684	1	hit	477	0
32	Nonet	78	726	240	9	0	0	200313	683	0	correct_rejection	NA	0
32	Nonet	79	727	241	7	0	0	201030	683	0	correct_rejection	NA	0
32	Nonet	80	728	242	8	0	0	201746	684	0	correct_rejection	NA	0
32	Nonet	81	729	243	9	0	0	202463	683	0	correct_rejection	NA	0
32	Nonet	82	730	244	6	0	0	203180	683	0	correct_rejection	NA	0
32	Nonet	83	731	245	5	0	0	203896	684	0	correct_rejection	NA	0
32	Nonet	84	732	246	4	0	0	204613	683	0	correct_rejection	NA	0
32	Nonet	85	733	247	6	0	0	205330	683	0	correct_rejection	NA	0
32	Nonet	86	734	248	5	0	0	206046	684	0	correct_rejection	NA	0
32	Nonet	87	735	249	4	0	0	206763	683	0	correct_rejection	NA	0
32	Nonet	88	736	250	0	1	2	207480	683	1	hit	500	0
32	Nonet	89	737	251	6	0	0	208196	684	0	correct_rejection	NA	0
32	Nonet	90	738	252	5	0	0	208913	683	0	correct_rejection	NA	0
32	Nonet	91	739	253	4	0	0	209630	683	0	correct_rejection	NA	0
32	Nonet	92	740	254	7	0	0	210346	684	0	correct_rejection	NA	0
32	Nonet	93	741	255	8	0	0	211063	683	0	correct_rejection	NA	0
32	Nonet	94	742	256	9	0	0	211780	683	0	correct_rejection	NA	0
32	Nonet	95	743	257	7	0	0	212496	684	0	correct_rejection	NA	0
32	Nonet	96	744	258	8	0	0	213213	683	0	correct_rejection	NA	0
32	Nonet	97	745	259	9	0	0	213929	684	0	correct_rejection	NA	0
32	Nonet	98	746	260	7	0	0	214646	683	0	correct_rejection	NA	0
32	Nonet	99	747	261	0	1	1	215363	683	1	hit	554	0
32	Nonet	100	748	262	8	0	0	216079	684	0	correct_rejection	NA	0
32	Nonet	101	749	263	9	0	0	216796	683	0	correct_rejection	NA	0
32	Nonet	102	750	264	4	0	0	217513	683	0	correct_rejection	NA	0
32	Nonet	103	751	265	0	1	1	218229	684	1	hit	528	0
32	Nonet	104	752	266	5	0	0	218946	683	0	correct_rejection	NA	0
32	Nonet	105	753	267	6	0	0	219663	683	0	correct_rejection	NA	0
32	Nonet	106	754	268	0	1	2	220379	684	1	hit	501	0
32	Nonet	107	755	269	4	0	0	221096	683	0	correct_rejection	NA	0
32	Nonet	108	756	270	5	0	0	221813	683	0	correct_rejection	NA	0
32	Nonet	109	757	271	6	0	0	222529	684	0	correct_rejection	NA	0
32	Nonet	110	758	272	4	0	0	223246	683	0	correct_rejection	NA	0
32	Nonet	111	759	273	5	0	0	223963	683	0	correct_rejection	NA	0
32	Nonet	112	760	274	6	0	0	224679	684	0	correct_rejection	NA	0
32	Nonet	113	761	275	9	0	0	225396	683	0	correct_rejection	NA	0
32	Nonet	114	762	276	8	0	0	226113	683	0	correct_rejection	NA	0
32	Nonet	115	763	277	7	0	0	226829	684	0	correct_rejection	NA	0
32	Nonet	116	764	278	9	0	0	227546	683	0	correct_rejection	NA	0
32	Nonet	117	765	279	0	1	1	228263	683	1	hit	475	0
32	Nonet	118	766	280	8	0	0	228979	684	0	correct_rejection	NA	0
32	Nonet	119	767	281	7	0	0	229696	683	0	correct_rejection	NA	0
32	Nonet	120	768	282	9	0	0	230413	683	0	correct_rejection	NA	0
32	Nonet	121	769	283	8	0	0	231129	684	0	correct_rejection	NA	0
32	Nonet	122	770	284	0	1	1	231846	683	1	hit	565	0
32	Nonet	123	771	285	7	0	0	232563	683	0	correct_rejection	NA	0
32	Nonet	124	772	286	9	0	0	233279	684	0	correct_rejection	NA	0
32	Nonet	125	773	287	8	0	0	233996	683	0	correct_rejection	NA	0
32	Nonet	126	774	288	7	0	0	234712	684	0	correct_rejection	NA	0
32	Nonet	127	775	289	0	1	2	235429	683	1	hit	432	0
32	Nonet	128	776	290	9	0	0	236146	683	0	correct_rejection	NA	0
32	Nonet	129	777	291	8	0	0	236862	684	0	correct_rejection	NA	0
32	Nonet	130	778	292	0	1	1	237579	683	1	hit	469	0
32	Nonet	131	779	293	7	0	0	238296	683	0	correct_rejection	NA	0
32	Nonet	132	780	294	9	0	0	239012	684	0	correct_rejection	NA	0
32	Nonet	133	781	295	8	0	0	239729	683	0	correct_rejection	NA	0
32	Nonet	134	782	296	7	0	0	240446	683	0	correct_rejection	NA	0
32	Nonet	135	783	297	7	0	0	241162	684	0	correct_rejection	NA	0
32	Nonet	136	784	298	8	0	0	241879	683	0	correct_rejection	NA	0
32	Nonet	137	785	299	9	0	0	242596	683	0	correct_rejection	NA	0
32	Nonet	138	786	300	7	0	0	243312	684	0	correct_rejection	NA	0
32	Nonet	139	787	301	8	0	0	244029	683	0	correct_rejection	NA	0
32	Nonet	140	788	302	9	0	0	244746	683	0	correct_rejection	NA	0
32	Nonet	141	789	303	7	0	0	245462	684	0	correct_rejection	NA	0
32	Nonet	142	790	304	8	0	0	246179	683	0	correct_rejection	NA	0
32	Nonet	143	791	305	9	0	0	246896	683	0	correct_rejection	NA	0
32	Nonet	144	792	306	0	1	3	247612	684	1	hit	578	0
32	Nonet	145	793	307	7	0	0	248329	683	0	correct_rejection	NA	0
32	Nonet	146	794	308	8	0	0	249046	683	0	correct_rejection	NA	0
32	Nonet	147	795	309	9	0	0	249762	684	0	correct_rejection	NA	0
32	Nonet	148	796	310	7	0	0	250479	683	0	correct_rejection	NA	0
32	Nonet	149	797	311	8	0	0	251196	683	0	correct_rejection	NA	0
32	Nonet	150	798	312	9	0	0	251912	684	0	correct_rejection	NA	0
32	Nonet	151	799	313	7	0	0	252629	683	0	correct_rejection	NA	0
32	Nonet	152	800	314	8	0	0	253346	683	0	correct_rejection	NA	0
32	Nonet	153	801	315	9	0	0	254062	684	0	correct_rejection	NA	0
32	Nonet	154	802	316	9	0	0	254779	683	0	correct_rejection	NA	0
32	Nonet	155	803	317	8	0	0	255495	684	0	correct_rejection	NA	0
32	Nonet	156	804	318	7	0	0	256212	683	0	correct_rejection	NA	0
32	Nonet	157	805	319	9	0	0	256929	683	0	correct_rejection	NA	0
32	Nonet	158	806	320	8	0	0	257645	684	0	correct_rejection	NA	0
32	Nonet	159	807	321	7	0	0	258362	683	0	correct_rejection	NA	0
32	Nonet	160	808	322	9	0	0	259079	683	0	correct_rejection	NA	0
32	Nonet	161	809	323	8	0	0	259795	684	0	correct_rejection	NA	0
32	Nonet	162	810	324	7	0	0	260512	683	0	correct_rejection	NA	0
32	Correct	1	649	325	4	0	0	270262	683	0	correct_rejection	NA	7957
32	Correct	2	650	326	5	0	0	270979	683	0	correct_rejection	NA	0
32	Correct	3	651	327	6	0	0	271695	684	0	correct_rejection	NA	0
32	Correct	4	652	328	4	0	0	272412	683	0	correct_rejection	NA	0
32	Correct	5	653	329	5	0	0	273129	683	0	correct_rejection	NA	0
32	Correct	6	654	330	6	0	0	273845	684	0	correct_rejection	NA	0
32	Correct	7	655	331	4	0	0	274562	683	0	correct_rejection	NA	0
32	Correct	8	656	332	5	0	0	275278	684	0	correct_rejection	NA	0
32	Correct	9	657	333	6	0	0	275995	684	0	correct_rejection	NA	0
32	Correct	10	658	334	6	0	0	276712	683	0	correct_rejection	NA	0
32	Correct	11	659	335	5	0	0	277428	684	0	correct_rejection	NA	0
32	Correct	12	660	336	4	0	0	278145	683	0	correct_rejection	NA	0
32	Correct	13	661	337	6	0	0	278862	683	0	correct_rejection	NA	0
32	Correct	14	662	338	5	0	0	279578	684	0	correct_rejection	NA	0
32	Correct	15	663	339	4	0	0	280295	683	0	correct_rejection	NA	0
32	Correct	16	664	340	6	0	0	281012	683	0	correct_rejection	NA	0
32	Correct	17	665	341	5	0	0	281728	684	0	correct_rejection	NA	0
32	Correct	18	666	342	4	0	0	282445	683	0	correct_rejection	NA	0
32	Correct	19	667	343	9	0	0	283162	683	0	correct_rejection	NA	0
32	Correct	20	668	344	8	0	0	283878	684	0	correct_rejection	NA	0
32	Correct	21	669	345	7	0	0	284595	683	0	correct_rejection	NA	0
32	Correct	22	670	346	0	1	2	285312	683	1	hit	578	0
32	Correct	23	671	347	9	0	0	286028	684	0	correct_rejection	NA	0
32	Correct	24	672	348	8	0	0	286745	683	0	correct_rejection	NA	0
32	Correct	25	673	349	7	0	0	287462	683	0	correct_rejection	NA	0
32	Correct	26	674	350	9	0	0	288178	684	0	correct_rejection	NA	0
32	Correct	27	675	351	8	0	0	288895	683	0	correct_rejection	NA	0
32	Correct	28	676	352	7	0	0	289612	683	0	correct_rejection	NA	0
32	Correct	29	677	353	7	0	0	290328	684	0	correct_rejection	NA	0
32	Correct	30	678	354	8	0	0	291045	683	0	correct_rejection	NA	0
32	Correct	31	679	355	9	0	0	291762	683	0	correct_rejection	NA	0
32	Correct	32	680	356	7	0	0	292478	684	0	correct_rejection	NA	0
32	Correct	33	681	357	8	0	0	293195	683	0	correct_rejection	NA	0
32	Correct	34	682	358	9	0	0	293912	683	0	correct_rejection	NA	0
32	Correct	35	683	359	0	1	2	294628	684	1	hit	444	0
32	Correct	36	684	360	7	0	0	295345	683	0	correct_rejection	NA	0
32	Correct	37	685	361	8	0	0	296062	683	0	correct_rejection	NA	0
32	Correct	38	686	362	9	0	0	296778	684	0	correct_rejection	NA	0
32	Correct	39	687	363	0	1	4	297495	683	1	hit	470	0
32	Correct	40	688	364	4	0	0	298211	684	0	correct_rejection	NA	0
32	Correct	41	689	365	5	0	0	298928	683	0	correct_rejection	NA	0
32	Correct	42	690	366	6	0	0	299645	683	0	correct_rejection	NA	0
32	Correct	43	691	367	4	0	0	300361	684	0	correct_rejection	NA	0
32	Correct	44	692	368	0	1	1	301078	683	1	hit	425	0
32	Correct	45	693	369	5	0	0	301795	683	0	correct_rejection	NA	0
32	Correct	46	694	370	6	0	0	302511	684	0	correct_rejection	NA	0
32	Correct	47	695	371	4	0	0	303228	683	0	correct_rejection	NA	0
32	Correct	48	696	372	5	0	0	303945	683	0	correct_rejection	NA	0
32	Correct	49	697	373	6	0	0	304661	684	0	correct_rejection	NA	0
32	Correct	50	698	374	6	0	0	305378	683	0	correct_rejection	NA	0
32	Correct	51	699	375	5	0	0	306095	683	0	correct_rejection	NA	0
32	Correct	52	700	376	4	0	0	306811	684	0	correct_rejection	NA	0
32	Correct	53	701	377	6	0	0	307528	683	0	correct_rejection	NA	0
32	Correct	54	702	378	5	0	0	308245	683	0	correct_rejection	NA	0
32	Correct	55	703	379	4	0	0	308961	684	0	correct_rejection	NA	0
32	Correct	56	704	380	6	0	0	309678	683	0	correct_rejection	NA	0
32	Correct	57	705	381	5	0	0	310395	683	0	correct_rejection	NA	0
32	Correct	58	706	382	0	1	1	311111	684	1	hit	437	0
32	Correct	59	707	383	4	0	0	311828	683	0	correct_rejection	NA	0
32	Correct	60	708	384	9	0	0	312545	683	0	correct_rejection	NA	0
32	Correct	61	709	385	8	0	0	313261	684	0	correct_rejection	NA	0
32	Correct	62	710	386	7	0	0	313978	683	0	correct_rejection	NA	0
32	Correct	63	711	387	9	0	0	314695	683	0	correct_rejection	NA	0
32	Correct	64	712	388	0	1	1	315411	684	1	hit	608	0
32	Correct	65	713	389	8	0	0	316128	683	0	correct_rejection	NA	0
32	Correct	66	714	390	7	0	0	316845	683	0	correct_rejection	NA	0
32	Correct	67	715	391	9	0	0	317561	684	0	correct_rejection	NA	0
32	Correct	68	716	392	8	0	0	318278	683	0	correct_rejection	NA	0
32	Correct	69	717	393	7	0	0	318994	684	0	correct_rejection	NA	0
32	Correct	70	718	394	7	0	0	319711	683	0	correct_rejection	NA	0
32	Correct	71	719	395	8	0	0	320428	683	0	correct_rejection	NA	0
32	Correct	72	720	396	9	0	0	321144	684	0	correct_rejection	NA	0
32	Correct	73	721	397	7	0	0	321861	683	0	correct_rejection	NA	0
32	Correct	74	722	398	8	0	0	322578	683	0	correct_rejection	NA	0
32	Correct	75	723	399	9	0	0	323294	684	0	correct_rejection	NA	0
32	Correct	76	724	400	7	0	0	324011	683	0	correct_rejection	NA	0
32	Correct	77	725	401	0	1	1	324728	683	1	hit	487	0
32	Correct	78	726	402	8	0	0	325444	684	0	correct_rejection	NA	0
32	Correct	79	727	403	9	0	0	326161	683	0	correct_rejection	NA	0
32	Correct	80	728	404	4	0	0	326878	683	0	correct_rejection	NA	0
32	Correct	81	729	405	5	0	0	327594	684	0	correct_rejection	NA	0
32	Correct	82	730	406	6	0	0	328311	683	0	correct_rejection	NA	0
32	Correct	83	731	407	4	0	0	329028	683	0	correct_rejection	NA	0
32	Correct	84	732	408	5	0	0	329744	684	0	correct_rejection	NA	0
32	Correct	85	733	409	6	0	0	330461	683	0	correct_rejection	NA	0
32	Correct	86	734	410	4	0	0	331178	683	0	correct_rejection	NA	0
32	Correct	87	735	411	5	0	0	331894	684	0	correct_rejection	NA	0
32	Correct	88	736	412	6	0	0	332611	683	0	correct_rejection	NA	0
32	Correct	89	737	413	6	0	0	333328	683	0	correct_rejection	NA	0
32	Correct	90	738	414	5	0	0	334044	684	0	correct_rejection	NA	0
32	Correct	91	739	415	4	0	0	334761	683	0	correct_rejection	NA	0
32	Correct	92	740	416	6	0	0	335478	683	0	correct_rejection	NA	0
32	Correct	93	741	417	0	1	1	336194	684	1	hit	535	0
32	Correct	94	742	418	5	0	0	336911	683	0	correct_rejection	NA	0
32	Correct	95	743	419	4	0	0	337628	683	0	correct_rejection	NA	0
32	Correct	96	744	420	6	0	0	338344	684	0	correct_rejection	NA	0
32	Correct	97	745	421	5	0	0	339061	683	0	correct_rejection	NA	0
32	Correct	98	746	422	4	0	0	339777	684	0	correct_rejection	NA	0
32	Correct	99	747	423	0	1	3	340494	683	1	hit	557	0
32	Correct	100	748	424	9	0	0	341211	683	0	correct_rejection	NA	0
32	Correct	101	749	425	8	0	0	341927	684	0	correct_rejection	NA	0
32	Correct	102	750	426	7	0	0	342644	683	0	correct_rejection	NA	0
32	Correct	103	751	427	9	0	0	343361	683	0	correct_rejection	NA	0
32	Correct	104	752	428	8	0	0	344077	684	0	correct_rejection	NA	0
32	Correct	105	753	429	7	0	0	344794	683	0	correct_rejection	NA	0
32	Correct	106	754	430	9	0	0	345511	683	0	correct_rejection	NA	0
32	Correct	107	755	431	8	0	0	346227	684	0	correct_rejection	NA	0
32	Correct	108	756	432	7	0	0	346944	683	0	correct_rejection	NA	0
32	Correct	109	757	433	0	1	3	347661	683	1	hit	440	0
32	Correct	110	758	434	7	0	0	348377	684	0	correct_rejection	NA	0
32	Correct	111	759	435	8	0	0	349094	683	0	correct_rejection	NA	0
32	Correct	112	760	436	9	0	0	349811	683	0	correct_rejection	NA	0
32	Correct	113	761	437	0	1	2	350527	684	1	hit	444	0
32	Correct	114	762	438	7	0	0	351244	683	0	correct_rejection	NA	0
32	Correct	115	763	439	8	0	0	351961	683	0	correct_rejection	NA	0
32	Correct	116	764	440	9	0	0	352677	684	0	correct_rejection	NA	0
32	Correct	117	765	441	7	0	0	353394	683	0	correct_rejection	NA	0
32	Correct	118	766	442	8	0	0	354111	683	0	correct_rejection	NA	0
32	Correct	119	767	443	9	0	0	354827	684	0	correct_rejection	NA	0
32	Correct	120	768	444	4	0	0	355544	683	0	correct_rejection	NA	0
32	Correct	121	769	445	0	1	1	356261	683	1	hit	489	0
32	Correct	122	770	446	5	0	0	356977	684	0	correct_rejection	NA	0
32	Correct	123	771	447	6	0	0	357694	683	0	correct_rejection	NA	0
32	Correct	124	772	448	4	0	0	358411	683	0	correct_rejection	NA	0
32	Correct	125	773	449	5	0	0	359127	684	0	correct_rejection	NA	0
32	Correct	126	774	450	0	1	1	359844	683	1	hit	449	0
32	Correct	127	775	451	6	0	0	360560	684	0	correct_rejection	NA	0
32	Correct	128	776	452	4	0	0	361277	684	0	correct_rejection	NA	0
32	Correct	129	777	453	5	0	0	361994	683	0	correct_rejection	NA	0
32	Correct	130	778	454	6	0	0	362710	684	0	correct_rejection	NA	0
32	Correct	131	779	455	6	0	0	363427	683	0	correct_rejection	NA	0
32	Correct	132	780	456	5	0	0	364144	683	0	correct_rejection	NA	0
32	Correct	133	781	457	0	1	1	364860	684	1	hit	603	0
32	Correct	134	782	458	4	0	0	365577	683	0	correct_rejection	NA	0
32	Correct	135	783	459	6	0	0	366294	683	0	correct_rejection	NA	0
32	Correct	136	784	460	0	1	1	367010	684	1	hit	463	0
32	Correct	137	785	461	5	0	0	367727	683	0	correct_rejection	NA	0
32	Correct	138	786	462	4	0	0	368444	683	0	correct_rejection	NA	0
32	Correct	139	787	463	6	0	0	369160	684	0	correct_rejection	NA	0
32	Correct	140	788	464	5	0	0	369877	683	0	correct_rejection	NA	0
32	Correct	141	789	465	4	0	0	370594	683	0	correct_rejection	NA	0
32	Correct	142	790	466	9	0	0	371310	684	0	correct_rejection	NA	0
32	Correct	143	791	467	8	0	0	372027	683	0	correct_rejection	NA	0
32	Correct	144	792	468	0	1	1	372744	683	1	hit	463	0
32	Correct	145	793	469	7	0	0	373460	684	0	correct_rejection	NA	0
32	Correct	146	794	470	9	0	0	374177	683	0	correct_rejection	NA	0
32	Correct	147	795	471	8	0	0	374894	683	0	correct_rejection	NA	0
32	Correct	148	796	472	7	0	0	375610	684	0	correct_rejection	NA	0
32	Correct	149	797	473	9	0	0	376327	683	0	correct_rejection	NA	0
32	Correct	150	798	474	8	0	0	377044	683	0	correct_rejection	NA	0
32	Correct	151	799	475	7	0	0	377760	684	0	correct_rejection	NA	0
32	Correct	152	800	476	7	0	0	378477	683	0	correct_rejection	NA	0
32	Correct	153	801	477	8	0	0	379194	683	0	correct_rejection	NA	0
32	Correct	154	802	478	9	0	0	379910	684	0	correct_rejection	NA	0
32	Correct	155	803	479	7	0	0	380627	683	0	correct_rejection	NA	0
32	Correct	156	804	480	8	0	0	381344	683	0	correct_rejection	NA	0
32	Correct	157	805	481	0	1	1	382060	684	1	hit	584	0
32	Correct	158	806	482	9	0	0	382777	683	0	correct_rejection	NA	0
32	Correct	159	807	483	7	0	0	383493	684	0	correct_rejection	NA	0
32	Correct	160	808	484	8	0	0	384210	683	0	correct_rejection	NA	0
32	Correct	161	809	485	0	1	1	384927	683	1	hit	468	0
32	Correct	162	810	486	9	0	0	385643	684	0	correct_rejection	NA	0
32	Single	1	487	487	7	0	0	395460	683	0	correct_rejection	NA	7157
32	Single	2	488	488	4	0	0	396177	683	0	correct_rejection	NA	0
32	Single	3	489	489	5	0	0	396893	684	0	correct_rejection	NA	0
32	Single	4	490	490	0	1	1	397610	683	1	hit	485	0
32	Single	5	491	491	5	0	0	398327	683	0	correct_rejection	NA	0
32	Single	6	492	492	7	0	0	399043	684	0	correct_rejection	NA	0
32	Single	7	493	493	6	0	0	399760	683	0	correct_rejection	NA	0
32	Single	8	494	494	4	0	0	400477	683	0	correct_rejection	NA	0
32	Single	9	495	495	9	0	0	401193	684	0	correct_rejection	NA	0
32	Single	10	496	496	0	1	1	401910	683	1	hit	521	0
32	Single	11	497	497	5	0	0	402626	684	0	correct_rejection	NA	0
32	Single	12	498	498	9	0	0	403343	684	0	correct_rejection	NA	0
32	Single	13	499	499	0	1	1	404060	683	1	hit	523	0
32	Single	14	500	500	4	0	0	404776	684	0	correct_rejection	NA	0
32	Single	15	501	501	8	0	0	405493	683	0	correct_rejection	NA	0
32	Single	16	502	502	5	0	0	406210	683	0	correct_rejection	NA	0
32	Single	17	503	503	8	0	0	406926	684	0	correct_rejection	NA	0
32	Single	18	504	504	4	0	0	407643	683	0	correct_rejection	NA	0
32	Single	19	505	505	7	0	0	408360	683	0	correct_rejection	NA	0
32	Single	20	506	506	8	0	0	409076	684	0	correct_rejection	NA	0
32	Single	21	507	507	6	0	0	409793	683	0	correct_rejection	NA	0
32	Single	22	508	508	8	0	0	410510	683	0	correct_rejection	NA	0
32	Single	23	509	509	9	0	0	411226	684	0	correct_rejection	NA	0
32	Single	24	510	510	7	0	0	411943	683	0	correct_rejection	NA	0
32	Single	25	511	511	0	1	1	412660	683	1	hit	431	0
32	Single	26	512	512	5	0	0	413376	684	0	correct_rejection	NA	0
32	Single	27	513	513	6	0	0	414093	683	0	correct_rejection	NA	0
32	Single	28	514	514	9	0	0	414810	683	0	correct_rejection	NA	0
32	Single	29	515	515	6	0	0	415526	684	0	correct_rejection	NA	0
32	Single	30	516	516	6	0	0	416243	683	0	correct_rejection	NA	0
32	Single	31	517	517	5	0	0	416960	683	0	correct_rejection	NA	0
32	Single	32	518	518	4	0	0	417676	684	0	correct_rejection	NA	0
32	Single	33	519	519	4	0	0	418393	683	0	correct_rejection	NA	0
32	Single	34	520	520	0	1	1	419110	683	1	hit	538	0
32	Single	35	521	521	6	0	0	419826	684	0	correct_rejection	NA	0
32	Single	36	522	522	7	0	0	420543	683	0	correct_rejection	NA	0
32	Single	37	523	523	7	0	0	421260	683	0	correct_rejection	NA	0
32	Single	38	524	524	9	0	0	421976	684	0	correct_rejection	NA	0
32	Single	39	525	525	9	0	0	422693	683	0	correct_rejection	NA	0
32	Single	40	526	526	8	0	0	423410	683	0	correct_rejection	NA	0
32	Single	41	527	527	8	0	0	424126	684	0	correct_rejection	NA	0
32	Single	42	528	528	5	0	0	424843	683	0	correct_rejection	NA	0
32	Single	43	529	529	9	0	0	425559	684	0	correct_rejection	NA	0
32	Single	44	530	530	9	0	0	426276	683	0	correct_rejection	NA	0
32	Single	45	531	531	7	0	0	426993	683	0	correct_rejection	NA	0
32	Single	46	532	532	0	1	1	427709	684	1	hit	445	0
32	Single	47	533	533	9	0	0	428426	683	0	correct_rejection	NA	0
32	Single	48	534	534	5	0	0	429143	683	0	correct_rejection	NA	0
32	Single	49	535	535	5	0	0	429859	684	0	correct_rejection	NA	0
32	Single	50	536	536	0	1	1	430576	683	1	hit	579	0
32	Single	51	537	537	8	0	0	431293	683	0	correct_rejection	NA	0
32	Single	52	538	538	7	0	0	432009	684	0	correct_rejection	NA	0
32	Single	53	539	539	5	0	0	432726	683	0	correct_rejection	NA	0
32	Single	54	540	540	4	0	0	433443	683	0	correct_rejection	NA	0
32	Single	55	541	541	5	0	0	434159	684	0	correct_rejection	NA	0
32	Single	56	542	542	7	0	0	434876	683	0	correct_rejection	NA	0
32	Single	57	543	543	7	0	0	435593	683	0	correct_rejection	NA	0
32	Single	58	544	544	4	0	0	436309	684	0	correct_rejection	NA	0
32	Single	59	545	545	9	0	0	437026	683	0	correct_rejection	NA	0
32	Single	60	546	546	6	0	0	437743	683	0	correct_rejection	NA	0
32	Single	61	547	547	7	0	0	438459	684	0	correct_rejection	NA	0
32	Single	62	548	548	8	0	0	439176	683	0	correct_rejection	NA	0
32	Single	63	549	549	4	0	0	439893	683	0	correct_rejection	NA	0
32	Single	64	550	550	6	0	0	440609	684	0	correct_rejection	NA	0
32	Single	65	551	551	5	0	0	441326	683	0	correct_rejection	NA	0
32	Single	66	552	552	6	0	0	442043	683	0	correct_rejection	NA	0
32	Single	67	553	553	6	0	0	442759	684	0	correct_rejection	NA	0
32	Single	68	554	554	9	0	0	443476	683	0	correct_rejection	NA	0
32	Single	69	555	555	8	0	0	444193	683	0	correct_rejection	NA	0
32	Single	70	556	556	9	0	0	444909	684	0	correct_rejection	NA	0
32	Single	71	557	557	4	0	0	445626	683	0	correct_rejection	NA	0
32	Single	72	558	558	4	0	0	446342	684	0	correct_rejection	NA	0
32	Single	73	559	559	8	0	0	447059	683	0	correct_rejection	NA	0
32	Single	74	560	560	6	0	0	447776	683	0	correct_rejection	NA	0
32	Single	75	561	561	4	0	0	448492	684	0	correct_rejection	NA	0
32	Single	76	562	562	7	0	0	449209	683	0	correct_rejection	NA	0
32	Single	77	563	563	6	0	0	449926	683	0	correct_rejection	NA	0
32	Single	78	564	564	8	0	0	450642	684	0	correct_rejection	NA	0
32	Single	79	565	565	8	0	0	451359	683	0	correct_rejection	NA	0
32	Single	80	566	566	4	0	0	452076	683	0	correct_rejection	NA	0
32	Single	81	567	567	7	0	0	452792	684	0	correct_rejection	NA	0
32	Single	82	568	568	5	0	0	453509	683	0	correct_rejection	NA	0
32	Single	83	569	569	5	0	0	454226	683	0	correct_rejection	NA	0
32	Single	84	570	570	4	0	0	454942	684	0	correct_rejection	NA	0
32	Single	85	571	571	0	1	1	455659	683	1	hit	537	0
32	Single	86	572	572	8	0	0	456376	683	0	correct_rejection	NA	0
32	Single	87	573	573	9	0	0	457092	684	0	correct_rejection	NA	0
32	Single	88	574	574	0	1	1	457809	683	1	hit	548	0
32	Single	89	575	575	6	0	0	458526	683	0	correct_rejection	NA	0
32	Single	90	576	576	9	0	0	459242	684	0	correct_rejection	NA	0
32	Single	91	577	577	9	0	0	459959	683	0	correct_rejection	NA	0
32	Single	92	578	578	5	0	0	460676	683	0	correct_rejection	NA	0
32	Single	93	579	579	8	0	0	461392	684	0	correct_rejection	NA	0
32	Single	94	580	580	5	0	0	462109	683	0	correct_rejection	NA	0
32	Single	95	581	581	6	0	0	462826	683	0	correct_rejection	NA	0
32	Single	96	582	582	7	0	0	463542	684	0	correct_rejection	NA	0
32	Single	97	583	583	9	0	0	464259	683	0	correct_rejection	NA	0
32	Single	98	584	584	4	0	0	464976	683	0	correct_rejection	NA	0
32	Single	99	585	585	6	0	0	465692	684	0	correct_rejection	NA	0
32	Single	100	586	586	8	0	0	466409	683	0	correct_rejection	NA	0
32	Single	101	587	587	0	1	1	467125	684	1	hit	450	0
32	Single	102	588	588	4	0	0	467842	684	0	correct_rejection	NA	0
32	Single	103	589	589	5	0	0	468559	683	0	correct_rejection	NA	0
32	Single	104	590	590	9	0	0	469275	684	0	correct_rejection	NA	0
32	Single	105	591	591	8	0	0	469992	683	0	correct_rejection	NA	0
32	Single	106	592	592	7	0	0	470709	683	0	correct_rejection	NA	0
32	Single	107	593	593	0	1	1	471425	684	1	hit	602	0
32	Single	108	594	594	6	0	0	472142	683	0	correct_rejection	NA	0
32	Single	109	595	595	6	0	0	472859	683	0	correct_rejection	NA	0
32	Single	110	596	596	4	0	0	473575	684	0	correct_rejection	NA	0
32	Single	111	597	597	0	1	1	474292	683	1	hit	488	0
32	Single	112	598	598	4	0	0	475009	683	0	correct_rejection	NA	0
32	Single	113	599	599	9	0	0	475725	684	0	correct_rejection	NA	0
32	Single	114	600	600	7	0	0	476442	683	0	correct_rejection	NA	0
32	Single	115	601	601	7	0	0	477159	683	0	correct_rejection	NA	0
32	Single	116	602	602	0	1	1	477875	684	0	miss	NA	0
32	Single	117	603	603	8	0	0	478592	683	1	false_alarm	10	0
32	Single	118	604	604	8	0	0	479309	683	0	correct_rejection	NA	0
32	Single	119	605	605	6	0	0	480025	684	0	correct_rejection	NA	0
32	Single	120	606	606	5	0	0	480742	683	0	correct_rejection	NA	0
32	Single	121	607	607	7	0	0	481459	683	0	correct_rejection	NA	0
32	Single	122	608	608	0	1	1	482175	684	1	hit	578	0
32	Single	123	609	609	7	0	0	482892	683	0	correct_rejection	NA	0
32	Single	124	610	610	8	0	0	483609	683	0	correct_rejection	NA	0
32	Single	125	611	611	5	0	0	484325	684	0	correct_rejection	NA	0
32	Single	126	612	612	0	1	1	485042	683	1	hit	510	0
32	Single	127	613	613	7	0	0	485759	683	0	correct_rejection	NA	0
32	Single	128	614	614	6	0	0	486475	684	0	correct_rejection	NA	0
32	Single	129	615	615	4	0	0	487192	683	0	correct_rejection	NA	0
32	Single	130	616	616	5	0	0	487909	683	0	correct_rejection	NA	0
32	Single	131	617	617	5	0	0	488625	684	0	correct_rejection	NA	0
32	Single	132	618	618	6	0	0	489342	683	0	correct_rejection	NA	0
32	Single	133	619	619	8	0	0	490058	684	0	correct_rejection	NA	0
32	Single	134	620	620	0	1	1	490775	683	1	hit	435	0
32	Single	135	621	621	6	0	0	491492	683	0	correct_rejection	NA	0
32	Single	136	622	622	9	0	0	492208	684	0	correct_rejection	NA	0
32	Single	137	623	623	4	0	0	492925	683	0	correct_rejection	NA	0
32	Single	138	624	624	8	0	0	493642	683	0	correct_rejection	NA	0
32	Single	139	625	625	7	0	0	494358	684	0	correct_rejection	NA	0
32	Single	140	626	626	0	1	1	495075	683	1	hit	506	0
32	Single	141	627	627	4	0	0	495792	683	0	correct_rejection	NA	0
32	Single	142	628	628	6	0	0	496508	684	0	correct_rejection	NA	0
32	Single	143	629	629	6	0	0	497225	683	0	correct_rejection	NA	0
32	Single	144	630	630	7	0	0	497942	683	0	correct_rejection	NA	0
32	Single	145	631	631	5	0	0	498658	684	0	correct_rejection	NA	0
32	Single	146	632	632	8	0	0	499375	683	0	correct_rejection	NA	0
32	Single	147	633	633	9	0	0	500092	683	0	correct_rejection	NA	0
32	Single	148	634	634	8	0	0	500808	684	0	correct_rejection	NA	0
32	Single	149	635	635	8	0	0	501525	683	0	correct_rejection	NA	0
32	Single	150	636	636	4	0	0	502242	683	0	correct_rejection	NA	0
32	Single	151	637	637	9	0	0	502958	684	0	correct_rejection	NA	0
32	Single	152	638	638	5	0	0	503675	683	0	correct_rejection	NA	0
32	Single	153	639	639	4	0	0	504392	683	0	correct_rejection	NA	0
32	Single	154	640	640	4	0	0	505108	684	0	correct_rejection	NA	0
32	Single	155	641	641	7	0	0	505825	683	0	correct_rejection	NA	0
32	Single	156	642	642	9	0	0	506542	683	0	correct_rejection	NA	0
32	Single	157	643	643	9	0	0	507258	684	0	correct_rejection	NA	0
32	Single	158	644	644	6	0	0	507975	683	0	correct_rejection	NA	0
32	Single	159	645	645	5	0	0	508692	683	0	correct_rejection	NA	0
32	Single	160	646	646	0	1	1	509408	684	1	hit	458	0
32	Single	161	647	647	9	0	0	510125	683	0	correct_rejection	NA	0
32	Single	162	648	648	7	0	0	510841	684	0	correct_rejection	NA	0
32	Triplet	1	1	649	9	0	0	521141	684	0	correct_rejection	NA	7837
32	Triplet	2	2	650	8	0	0	521858	683	0	correct_rejection	NA	0
32	Triplet	3	3	651	7	0	0	522575	683	0	correct_rejection	NA	0
32	Triplet	4	4	652	6	0	0	523291	684	0	correct_rejection	NA	0
32	Triplet	5	5	653	5	0	0	524008	683	0	correct_rejection	NA	0
32	Triplet	6	6	654	4	0	0	524725	683	0	correct_rejection	NA	0
32	Triplet	7	7	655	7	0	0	525441	684	0	correct_rejection	NA	0
32	Triplet	8	8	656	8	0	0	526158	683	0	correct_rejection	NA	0
32	Triplet	9	9	657	9	0	0	526875	683	0	correct_rejection	NA	0
32	Triplet	10	10	658	7	0	0	527591	684	0	correct_rejection	NA	0
32	Triplet	11	11	659	8	0	0	528308	683	0	correct_rejection	NA	0
32	Triplet	12	12	660	9	0	0	529025	683	0	correct_rejection	NA	0
32	Triplet	13	13	661	0	1	2	529741	684	1	hit	425	0
32	Triplet	14	14	662	4	0	0	530458	683	0	correct_rejection	NA	0
32	Triplet	15	15	663	5	0	0	531174	684	0	correct_rejection	NA	0
32	Triplet	16	16	664	0	1	1	531891	683	0	miss	NA	0
32	Triplet	17	17	665	6	0	0	532608	683	1	false_alarm	1	0
32	Triplet	18	18	666	6	0	0	533324	684	0	correct_rejection	NA	0
32	Triplet	19	19	667	0	1	1	534041	683	1	hit	475	0
32	Triplet	20	20	668	5	0	0	534758	683	0	correct_rejection	NA	0
32	Triplet	21	21	669	4	0	0	535474	684	0	correct_rejection	NA	0
32	Triplet	22	22	670	4	0	0	536191	683	0	correct_rejection	NA	0
32	Triplet	23	23	671	5	0	0	536908	683	0	correct_rejection	NA	0
32	Triplet	24	24	672	6	0	0	537624	684	0	correct_rejection	NA	0
32	Triplet	25	25	673	0	1	2	538341	683	1	hit	455	0
32	Triplet	26	26	674	7	0	0	539058	683	0	correct_rejection	NA	0
32	Triplet	27	27	675	8	0	0	539774	684	0	correct_rejection	NA	0
32	Triplet	28	28	676	9	0	0	540491	683	0	correct_rejection	NA	0
32	Triplet	29	29	677	9	0	0	541208	683	0	correct_rejection	NA	0
32	Triplet	30	30	678	8	0	0	541924	684	0	correct_rejection	NA	0
32	Triplet	31	31	679	7	0	0	542641	683	0	correct_rejection	NA	0
32	Triplet	32	32	680	7	0	0	543358	683	0	correct_rejection	NA	0
32	Triplet	33	33	681	8	0	0	544074	684	0	correct_rejection	NA	0
32	Triplet	34	34	682	9	0	0	544791	683	0	correct_rejection	NA	0
32	Triplet	35	35	683	6	0	0	545508	683	0	correct_rejection	NA	0
32	Triplet	36	36	684	5	0	0	546224	684	0	correct_rejection	NA	0
32	Triplet	37	37	685	4	0	0	546941	683	0	correct_rejection	NA	0
32	Triplet	38	38	686	6	0	0	547658	683	0	correct_rejection	NA	0
32	Triplet	39	39	687	5	0	0	548374	684	0	correct_rejection	NA	0
32	Triplet	40	40	688	4	0	0	549091	683	0	correct_rejection	NA	0
32	Triplet	41	41	689	9	0	0	549808	683	0	correct_rejection	NA	0
32	Triplet	42	42	690	8	0	0	550524	684	0	correct_rejection	NA	0
32	Triplet	43	43	691	7	0	0	551241	683	0	correct_rejection	NA	0
32	Triplet	44	44	692	9	0	0	551957	684	0	correct_rejection	NA	0
32	Triplet	45	45	693	8	0	0	552674	684	0	correct_rejection	NA	0
32	Triplet	46	46	694	7	0	0	553391	683	0	correct_rejection	NA	0
32	Triplet	47	47	695	0	1	2	554107	684	1	hit	472	0
32	Triplet	48	48	696	4	0	0	554824	683	0	correct_rejection	NA	0
32	Triplet	49	49	697	5	0	0	555541	683	0	correct_rejection	NA	0
32	Triplet	50	50	698	0	1	1	556257	684	0	miss	NA	0
32	Triplet	51	51	699	6	0	0	556974	683	0	correct_rejection	NA	0
32	Triplet	52	52	700	4	0	0	557691	683	0	correct_rejection	NA	0
32	Triplet	53	53	701	5	0	0	558407	684	0	correct_rejection	NA	0
32	Triplet	54	54	702	6	0	0	559124	683	0	correct_rejection	NA	0
32	Triplet	55	55	703	9	0	0	559841	683	0	correct_rejection	NA	0
32	Triplet	56	56	704	8	0	0	560557	684	0	correct_rejection	NA	0
32	Triplet	57	57	705	7	0	0	561274	683	0	correct_rejection	NA	0
32	Triplet	58	58	706	4	0	0	561991	683	0	correct_rejection	NA	0
32	Triplet	59	59	707	5	0	0	562707	684	0	correct_rejection	NA	0
32	Triplet	60	60	708	6	0	0	563424	683	0	correct_rejection	NA	0
32	Triplet	61	61	709	0	1	2	564141	683	1	hit	551	0
32	Triplet	62	62	710	6	0	0	564857	684	0	correct_rejection	NA	0
32	Triplet	63	63	711	5	0	0	565574	683	0	correct_rejection	NA	0
32	Triplet	64	64	712	0	1	1	566291	683	1	hit	625	0
32	Triplet	65	65	713	4	0	0	567007	684	0	correct_rejection	NA	0
32	Triplet	66	66	714	6	0	0	567724	683	0	correct_rejection	NA	0
32	Triplet	67	67	715	5	0	0	568441	683	0	correct_rejection	NA	0
32	Triplet	68	68	716	4	0	0	569157	684	0	correct_rejection	NA	0
32	Triplet	69	69	717	0	1	2	569874	683	1	hit	508	0
32	Triplet	70	70	718	7	0	0	570591	683	0	correct_rejection	NA	0
32	Triplet	71	71	719	8	0	0	571307	684	0	correct_rejection	NA	0
32	Triplet	72	72	720	0	1	1	572024	683	1	hit	455	0
32	Triplet	73	73	721	9	0	0	572740	684	0	correct_rejection	NA	0
32	Triplet	74	74	722	4	0	0	573457	684	0	correct_rejection	NA	0
32	Triplet	75	75	723	0	1	1	574174	683	1	hit	496	0
32	Triplet	76	76	724	5	0	0	574890	684	0	correct_rejection	NA	0
32	Triplet	77	77	725	6	0	0	575607	683	0	correct_rejection	NA	0
32	Triplet	78	78	726	9	0	0	576324	683	0	correct_rejection	NA	0
32	Triplet	79	79	727	8	0	0	577040	684	0	correct_rejection	NA	0
32	Triplet	80	80	728	7	0	0	577757	683	0	correct_rejection	NA	0
32	Triplet	81	81	729	7	0	0	578474	683	0	correct_rejection	NA	0
32	Triplet	82	82	730	8	0	0	579190	684	0	correct_rejection	NA	0
32	Triplet	83	83	731	9	0	0	579907	683	0	correct_rejection	NA	0
32	Triplet	84	84	732	0	1	2	580624	683	1	hit	523	0
32	Triplet	85	85	733	9	0	0	581340	684	0	correct_rejection	NA	0
32	Triplet	86	86	734	8	0	0	582057	683	0	correct_rejection	NA	0
32	Triplet	87	87	735	7	0	0	582774	683	0	correct_rejection	NA	0
32	Triplet	88	88	736	6	0	0	583490	684	0	correct_rejection	NA	0
32	Triplet	89	89	737	5	0	0	584207	683	0	correct_rejection	NA	0
32	Triplet	90	90	738	4	0	0	584924	683	0	correct_rejection	NA	0
32	Triplet	91	91	739	4	0	0	585640	684	0	correct_rejection	NA	0
32	Triplet	92	92	740	5	0	0	586357	683	0	correct_rejection	NA	0
32	Triplet	93	93	741	6	0	0	587074	683	0	correct_rejection	NA	0
32	Triplet	94	94	742	4	0	0	587790	684	0	correct_rejection	NA	0
32	Triplet	95	95	743	0	1	1	588507	683	1	hit	541	0
32	Triplet	96	96	744	5	0	0	589224	683	0	correct_rejection	NA	0
32	Triplet	97	97	745	6	0	0	589940	684	0	correct_rejection	NA	0
32	Triplet	98	98	746	7	0	0	590657	683	0	correct_rejection	NA	0
32	Triplet	99	99	747	8	0	0	591374	683	0	correct_rejection	NA	0
32	Triplet	100	100	748	9	0	0	592090	684	0	correct_rejection	NA	0
32	Triplet	101	101	749	7	0	0	592807	683	0	correct_rejection	NA	0
32	Triplet	102	102	750	8	0	0	593524	683	0	correct_rejection	NA	0
32	Triplet	103	103	751	9	0	0	594240	684	0	correct_rejection	NA	0
32	Triplet	104	104	752	6	0	0	594957	683	0	correct_rejection	NA	0
32	Triplet	105	105	753	5	0	0	595673	684	0	correct_rejection	NA	0
32	Triplet	106	106	754	4	0	0	596390	683	0	correct_rejection	NA	0
32	Triplet	107	107	755	9	0	0	597107	683	0	correct_rejection	NA	0
32	Triplet	108	108	756	8	0	0	597823	684	0	correct_rejection	NA	0
32	Triplet	109	109	757	0	1	1	598540	683	1	hit	591	0
32	Triplet	110	110	758	7	0	0	599257	683	0	correct_rejection	NA	0
32	Triplet	111	111	759	7	0	0	599973	684	0	correct_rejection	NA	0
32	Triplet	112	112	760	8	0	0	600690	683	0	correct_rejection	NA	0
32	Triplet	113	113	761	9	0	0	601407	683	0	correct_rejection	NA	0
32	Triplet	114	114	762	4	0	0	602123	684	0	correct_rejection	NA	0
32	Triplet	115	115	763	5	0	0	602840	683	0	correct_rejection	NA	0
32	Triplet	116	116	764	6	0	0	603557	683	0	correct_rejection	NA	0
32	Triplet	117	117	765	4	0	0	604273	684	0	correct_rejection	NA	0
32	Triplet	118	118	766	5	0	0	604990	683	0	correct_rejection	NA	0
32	Triplet	119	119	767	6	0	0	605707	683	0	correct_rejection	NA	0
32	Triplet	120	120	768	0	1	2	606423	684	1	hit	413	0
32	Triplet	121	121	769	9	0	0	607140	683	0	correct_rejection	NA	0
32	Triplet	122	122	770	8	0	0	607857	683	0	correct_rejection	NA	0
32	Triplet	123	123	771	7	0	0	608573	684	0	correct_rejection	NA	0
32	Triplet	124	124	772	4	0	0	609290	683	0	correct_rejection	NA	0
32	Triplet	125	125	773	5	0	0	610007	683	0	correct_rejection	NA	0
32	Triplet	126	126	774	6	0	0	610723	684	0	correct_rejection	NA	0
32	Triplet	127	127	775	7	0	0	611440	683	0	correct_rejection	NA	0
32	Triplet	128	128	776	8	0	0	612157	683	0	correct_rejection	NA	0
32	Triplet	129	129	777	0	1	1	612873	684	1	hit	460	0
32	Triplet	130	130	778	9	0	0	613590	683	0	correct_rejection	NA	0
32	Triplet	131	131	779	6	0	0	614307	683	0	correct_rejection	NA	0
32	Triplet	132	132	780	5	0	0	615023	684	0	correct_rejection	NA	0
32	Triplet	133	133	781	4	0	0	615740	683	0	correct_rejection	NA	0
32	Triplet	134	134	782	0	1	2	616456	684	1	hit	455	0
32	Triplet	135	135	783	4	0	0	617173	683	0	correct_rejection	NA	0
32	Triplet	136	136	784	5	0	0	617890	683	0	correct_rejection	NA	0
32	Triplet	137	137	785	6	0	0	618606	684	0	correct_rejection	NA	0
32	Triplet	138	138	786	6	0	0	619323	683	0	correct_rejection	NA	0
32	Triplet	139	139	787	5	0	0	620040	683	0	correct_rejection	NA	0
32	Triplet	140	140	788	4	0	0	620756	684	0	correct_rejection	NA	0
32	Triplet	141	141	789	9	0	0	621473	683	0	correct_rejection	NA	0
32	Triplet	142	142	790	8	0	0	622190	683	0	correct_rejection	NA	0
32	Triplet	143	143	791	7	0	0	622906	684	0	correct_rejection	NA	0
32	Triplet	144	144	792	7	0	0	623623	683	0	correct_rejection	NA	0
32	Triplet	145	145	793	8	0	0	624340	683	0	correct_rejection	NA	0
32	Triplet	146	146	794	9	0	0	625056	684	0	correct_rejection	NA	0
32	Triplet	147	147	795	7	0	0	625773	683	0	correct_rejection	NA	0
32	Triplet	148	148	796	8	0	0	626490	683	0	correct_rejection	NA	0
32	Triplet	149	149	797	9	0	0	627206	684	0	correct_rejection	NA	0
32	Triplet	150	150	798	9	0	0	627923	683	0	correct_rejection	NA	0
32	Triplet	151	151	799	0	1	1	628640	683	1	hit	443	0
32	Triplet	152	152	800	8	0	0	629356	684	0	correct_rejection	NA	0
32	Triplet	153	153	801	7	0	0	630073	683	0	correct_rejection	NA	0
32	Triplet	154	154	802	9	0	0	630790	683	0	correct_rejection	NA	0
32	Triplet	155	155	803	8	0	0	631506	684	0	correct_rejection	NA	0
32	Triplet	156	156	804	7	0	0	632223	683	0	correct_rejection	NA	0
32	Triplet	157	157	805	6	0	0	632940	683	0	correct_rejection	NA	0
32	Triplet	158	158	806	5	0	0	633656	684	0	correct_rejection	NA	0
32	Triplet	159	159	807	4	0	0	634373	683	0	correct_rejection	NA	0
32	Triplet	160	160	808	6	0	0	635090	683	0	correct_rejection	NA	0
32	Triplet	161	161	809	5	0	0	635806	684	0	correct_rejection	NA	0
32	Triplet	162	162	810	4	0	0	636523	683	0	correct_rejection	NA	0
trigger nr 628 at 638225
trigger nr 632 at 712239
32	Single	1	325	811	9	0	0	719938	684	0	correct_rejection	NA	7617
32	Single	2	326	812	5	0	0	720655	683	0	correct_rejection	NA	0
32	Single	3	327	813	7	0	0	721371	684	0	correct_rejection	NA	0
32	Single	4	328	814	6	0	0	722088	684	0	correct_rejection	NA	0
32	Single	5	329	815	0	1	1	722805	683	1	hit	493	0
32	Single	6	330	816	9	0	0	723521	684	0	correct_rejection	NA	0
32	Single	7	331	817	4	0	0	724238	683	0	correct_rejection	NA	0
32	Single	8	332	818	4	0	0	724955	683	0	correct_rejection	NA	0
32	Single	9	333	819	7	0	0	725671	684	0	correct_rejection	NA	0
32	Single	10	334	820	8	0	0	726388	683	0	correct_rejection	NA	0
32	Single	11	335	821	5	0	0	727105	683	0	correct_rejection	NA	0
32	Single	12	336	822	9	0	0	727821	684	0	correct_rejection	NA	0
32	Single	13	337	823	0	1	1	728538	683	1	hit	496	0
32	Single	14	338	824	8	0	0	729255	683	0	correct_rejection	NA	0
32	Single	15	339	825	6	0	0	729971	684	0	correct_rejection	NA	0
32	Single	16	340	826	7	0	0	730688	683	0	correct_rejection	NA	0
32	Single	17	341	827	4	0	0	731405	683	0	correct_rejection	NA	0
32	Single	18	342	828	0	1	1	732121	684	1	hit	430	0
32	Single	19	343	829	5	0	0	732838	683	0	correct_rejection	NA	0
32	Single	20	344	830	8	0	0	733555	683	0	correct_rejection	NA	0
32	Single	21	345	831	8	0	0	734271	684	0	correct_rejection	NA	0
32	Single	22	346	832	9	0	0	734988	683	0	correct_rejection	NA	0
32	Single	23	347	833	7	0	0	735705	683	0	correct_rejection	NA	0
32	Single	24	348	834	5	0	0	736421	684	0	correct_rejection	NA	0
32	Single	25	349	835	5	0	0	737138	683	0	correct_rejection	NA	0
32	Single	26	350	836	4	0	0	737855	683	0	correct_rejection	NA	0
32	Single	27	351	837	9	0	0	738571	684	0	correct_rejection	NA	0
32	Single	28	352	838	9	0	0	739288	683	0	correct_rejection	NA	0
32	Single	29	353	839	6	0	0	740005	683	0	correct_rejection	NA	0
32	Single	30	354	840	8	0	0	740721	684	0	correct_rejection	NA	0
32	Single	31	355	841	4	0	0	741438	683	0	correct_rejection	NA	0
32	Single	32	356	842	6	0	0	742155	683	0	correct_rejection	NA	0
32	Single	33	357	843	0	1	1	742871	684	1	hit	541	0
32	Single	34	358	844	6	0	0	743588	683	0	correct_rejection	NA	0
32	Single	35	359	845	5	0	0	744304	684	0	correct_rejection	NA	0
32	Single	36	360	846	6	0	0	745021	683	0	correct_rejection	NA	0
32	Single	37	361	847	4	0	0	745738	683	0	correct_rejection	NA	0
32	Single	38	362	848	8	0	0	746454	684	0	correct_rejection	NA	0
32	Single	39	363	849	7	0	0	747171	683	0	correct_rejection	NA	0
32	Single	40	364	850	7	0	0	747888	683	0	correct_rejection	NA	0
32	Single	41	365	851	5	0	0	748604	684	0	correct_rejection	NA	0
32	Single	42	366	852	8	0	0	749321	683	0	correct_rejection	NA	0
32	Single	43	367	853	4	0	0	750038	683	0	correct_rejection	NA	0
32	Single	44	368	854	5	0	0	750754	684	0	correct_rejection	NA	0
32	Single	45	369	855	6	0	0	751471	683	0	correct_rejection	NA	0
32	Single	46	370	856	8	0	0	752188	683	0	correct_rejection	NA	0
32	Single	47	371	857	6	0	0	752904	684	0	correct_rejection	NA	0
32	Single	48	372	858	6	0	0	753621	683	0	correct_rejection	NA	0
32	Single	49	373	859	0	1	1	754338	683	1	hit	490	0
32	Single	50	374	860	4	0	0	755054	684	0	correct_rejection	NA	0
32	Single	51	375	861	7	0	0	755771	683	0	correct_rejection	NA	0
32	Single	52	376	862	9	0	0	756488	683	0	correct_rejection	NA	0
32	Single	53	377	863	0	1	1	757204	684	1	hit	494	0
32	Single	54	378	864	7	0	0	757921	683	0	correct_rejection	NA	0
32	Single	55	379	865	7	0	0	758638	683	0	correct_rejection	NA	0
32	Single	56	380	866	8	0	0	759354	684	0	correct_rejection	NA	0
32	Single	57	381	867	0	1	1	760071	683	1	hit	481	0
32	Single	58	382	868	7	0	0	760788	683	0	correct_rejection	NA	0
32	Single	59	383	869	4	0	0	761504	684	0	correct_rejection	NA	0
32	Single	60	384	870	0	1	1	762221	683	1	hit	466	0
32	Single	61	385	871	9	0	0	762938	683	0	correct_rejection	NA	0
32	Single	62	386	872	8	0	0	763654	684	0	correct_rejection	NA	0
32	Single	63	387	873	9	0	0	764371	683	0	correct_rejection	NA	0
32	Single	64	388	874	5	0	0	765087	684	0	correct_rejection	NA	0
32	Single	65	389	875	5	0	0	765804	683	0	correct_rejection	NA	0
32	Single	66	390	876	7	0	0	766521	683	0	correct_rejection	NA	0
32	Single	67	391	877	5	0	0	767237	684	0	correct_rejection	NA	0
32	Single	68	392	878	9	0	0	767954	683	0	correct_rejection	NA	0
32	Single	69	393	879	6	0	0	768671	683	0	correct_rejection	NA	0
32	Single	70	394	880	9	0	0	769387	684	0	correct_rejection	NA	0
32	Single	71	395	881	9	0	0	770104	683	0	correct_rejection	NA	0
32	Single	72	396	882	4	0	0	770821	683	0	correct_rejection	NA	0
32	Single	73	397	883	6	0	0	771537	684	0	correct_rejection	NA	0
32	Single	74	398	884	7	0	0	772254	683	0	correct_rejection	NA	0
32	Single	75	399	885	6	0	0	772971	683	0	correct_rejection	NA	0
32	Single	76	400	886	5	0	0	773687	684	0	correct_rejection	NA	0
32	Single	77	401	887	0	1	1	774404	683	1	hit	506	0
32	Single	78	402	888	4	0	0	775121	683	0	correct_rejection	NA	0
32	Single	79	403	889	4	0	0	775837	684	0	correct_rejection	NA	0
32	Single	80	404	890	8	0	0	776554	683	0	correct_rejection	NA	0
32	Single	81	405	891	8	0	0	777271	683	0	correct_rejection	NA	0
32	Single	82	406	892	0	1	1	777987	684	1	hit	466	0
32	Single	83	407	893	8	0	0	778704	683	0	correct_rejection	NA	0
32	Single	84	408	894	4	0	0	779421	683	0	correct_rejection	NA	0
32	Single	85	409	895	9	0	0	780137	684	0	correct_rejection	NA	0
32	Single	86	410	896	7	0	0	780854	683	0	correct_rejection	NA	0
32	Single	87	411	897	4	0	0	781571	683	0	correct_rejection	NA	0
32	Single	88	412	898	8	0	0	782287	684	0	correct_rejection	NA	0
32	Single	89	413	899	9	0	0	783004	683	0	correct_rejection	NA	0
32	Single	90	414	900	4	0	0	783721	683	0	correct_rejection	NA	0
32	Single	91	415	901	7	0	0	784437	684	0	correct_rejection	NA	0
32	Single	92	416	902	6	0	0	785154	683	0	correct_rejection	NA	0
32	Single	93	417	903	6	0	0	785870	684	0	correct_rejection	NA	0
32	Single	94	418	904	0	1	1	786587	683	0	miss	NA	0
32	Single	95	419	905	8	0	0	787304	683	1	false_alarm	52	0
32	Single	96	420	906	8	0	0	788020	684	0	correct_rejection	NA	0
32	Single	97	421	907	5	0	0	788737	683	0	correct_rejection	NA	0
32	Single	98	422	908	5	0	0	789454	683	0	correct_rejection	NA	0
32	Single	99	423	909	6	0	0	790170	684	0	correct_rejection	NA	0
32	Single	100	424	910	0	1	1	790887	683	1	hit	526	0
32	Single	101	425	911	7	0	0	791604	683	0	correct_rejection	NA	0
32	Single	102	426	912	9	0	0	792320	684	0	correct_rejection	NA	0
32	Single	103	427	913	6	0	0	793037	683	0	correct_rejection	NA	0
32	Single	104	428	914	4	0	0	793754	683	0	correct_rejection	NA	0
32	Single	105	429	915	4	0	0	794470	684	0	correct_rejection	NA	0
32	Single	106	430	916	6	0	0	795187	683	0	correct_rejection	NA	0
32	Single	107	431	917	9	0	0	795904	683	0	correct_rejection	NA	0
32	Single	108	432	918	5	0	0	796620	684	0	correct_rejection	NA	0
32	Single	109	433	919	4	0	0	797337	683	0	correct_rejection	NA	0
32	Single	110	434	920	5	0	0	798054	683	0	correct_rejection	NA	0
32	Single	111	435	921	9	0	0	798770	684	0	correct_rejection	NA	0
32	Single	112	436	922	9	0	0	799487	683	0	correct_rejection	NA	0
32	Single	113	437	923	8	0	0	800204	683	0	correct_rejection	NA	0
32	Single	114	438	924	7	0	0	800920	684	0	correct_rejection	NA	0
32	Single	115	439	925	8	0	0	801637	683	0	correct_rejection	NA	0
32	Single	116	440	926	6	0	0	802354	683	0	correct_rejection	NA	0
32	Single	117	441	927	5	0	0	803070	684	0	correct_rejection	NA	0
32	Single	118	442	928	7	0	0	803787	683	0	correct_rejection	NA	0
32	Single	119	443	929	7	0	0	804504	683	0	correct_rejection	NA	0
32	Single	120	444	930	5	0	0	805220	684	0	correct_rejection	NA	0
32	Single	121	445	931	8	0	0	805937	683	0	correct_rejection	NA	0
32	Single	122	446	932	7	0	0	806653	684	0	correct_rejection	NA	0
32	Single	123	447	933	9	0	0	807370	684	0	correct_rejection	NA	0
32	Single	124	448	934	0	1	1	808087	683	1	hit	537	0
32	Single	125	449	935	9	0	0	808803	684	0	correct_rejection	NA	0
32	Single	126	450	936	6	0	0	809520	683	0	correct_rejection	NA	0
32	Single	127	451	937	0	1	1	810237	683	1	hit	577	0
32	Single	128	452	938	5	0	0	810953	684	0	correct_rejection	NA	0
32	Single	129	453	939	5	0	0	811670	683	0	correct_rejection	NA	0
32	Single	130	454	940	9	0	0	812387	683	0	correct_rejection	NA	0
32	Single	131	455	941	4	0	0	813103	684	0	correct_rejection	NA	0
32	Single	132	456	942	9	0	0	813820	683	0	correct_rejection	NA	0
32	Single	133	457	943	5	0	0	814537	683	0	correct_rejection	NA	0
32	Single	134	458	944	7	0	0	815253	684	0	correct_rejection	NA	0
32	Single	135	459	945	4	0	0	815970	683	0	correct_rejection	NA	0
32	Single	136	460	946	4	0	0	816687	683	0	correct_rejection	NA	0
32	Single	137	461	947	5	0	0	817403	684	0	correct_rejection	NA	0
32	Single	138	462	948	8	0	0	818120	683	0	correct_rejection	NA	0
32	Single	139	463	949	8	0	0	818837	683	0	correct_rejection	NA	0
32	Single	140	464	950	0	1	1	819553	684	1	hit	577	0
32	Single	141	465	951	9	0	0	820270	683	0	correct_rejection	NA	0
32	Single	142	466	952	7	0	0	820987	683	0	correct_rejection	NA	0
32	Single	143	467	953	8	0	0	821703	684	0	correct_rejection	NA	0
32	Single	144	468	954	4	0	0	822420	683	0	correct_rejection	NA	0
32	Single	145	469	955	8	0	0	823137	683	0	correct_rejection	NA	0
32	Single	146	470	956	6	0	0	823853	684	0	correct_rejection	NA	0
32	Single	147	471	957	9	0	0	824570	683	0	correct_rejection	NA	0
32	Single	148	472	958	8	0	0	825287	683	0	correct_rejection	NA	0
32	Single	149	473	959	0	1	1	826003	684	1	hit	564	0
32	Single	150	474	960	5	0	0	826720	683	0	correct_rejection	NA	0
32	Single	151	475	961	4	0	0	827436	684	0	correct_rejection	NA	0
32	Single	152	476	962	0	1	1	828153	683	1	hit	678	0
32	Single	153	477	963	7	0	0	828870	683	0	correct_rejection	NA	0
32	Single	154	478	964	5	0	0	829586	684	0	correct_rejection	NA	0
32	Single	155	479	965	0	1	1	830303	683	1	hit	492	0
32	Single	156	480	966	6	0	0	831020	683	0	correct_rejection	NA	0
32	Single	157	481	967	6	0	0	831736	684	0	correct_rejection	NA	0
32	Single	158	482	968	7	0	0	832453	683	0	correct_rejection	NA	0
32	Single	159	483	969	7	0	0	833170	683	0	correct_rejection	NA	0
32	Single	160	484	970	6	0	0	833886	684	0	correct_rejection	NA	0
32	Single	161	485	971	4	0	0	834603	683	0	correct_rejection	NA	0
32	Single	162	486	972	6	0	0	835320	683	0	correct_rejection	NA	0
32	Nonet	1	487	973	7	0	0	844936	684	0	correct_rejection	NA	7627
32	Nonet	2	488	974	8	0	0	845653	683	0	correct_rejection	NA	0
32	Nonet	3	489	975	9	0	0	846370	683	0	correct_rejection	NA	0
32	Nonet	4	490	976	0	1	2	847086	684	1	hit	449	0
32	Nonet	5	491	977	7	0	0	847803	683	0	correct_rejection	NA	0
32	Nonet	6	492	978	8	0	0	848519	684	0	correct_rejection	NA	0
32	Nonet	7	493	979	9	0	0	849236	684	0	correct_rejection	NA	0
32	Nonet	8	494	980	7	0	0	849953	683	0	correct_rejection	NA	0
32	Nonet	9	495	981	8	0	0	850669	684	0	correct_rejection	NA	0
32	Nonet	10	496	982	9	0	0	851386	683	0	correct_rejection	NA	0
32	Nonet	11	497	983	7	0	0	852103	683	0	correct_rejection	NA	0
32	Nonet	12	498	984	8	0	0	852819	684	0	correct_rejection	NA	0
32	Nonet	13	499	985	0	1	1	853536	683	1	hit	456	0
32	Nonet	14	500	986	9	0	0	854253	683	0	correct_rejection	NA	0
32	Nonet	15	501	987	7	0	0	854969	684	0	correct_rejection	NA	0
32	Nonet	16	502	988	0	1	1	855686	683	1	hit	542	0
32	Nonet	17	503	989	8	0	0	856403	683	0	correct_rejection	NA	0
32	Nonet	18	504	990	9	0	0	857119	684	0	correct_rejection	NA	0
32	Nonet	19	505	991	7	0	0	857836	683	0	correct_rejection	NA	0
32	Nonet	20	506	992	8	0	0	858553	683	0	correct_rejection	NA	0
32	Nonet	21	507	993	9	0	0	859269	684	0	correct_rejection	NA	0
32	Nonet	22	508	994	9	0	0	859986	683	0	correct_rejection	NA	0
32	Nonet	23	509	995	8	0	0	860703	683	0	correct_rejection	NA	0
32	Nonet	24	510	996	7	0	0	861419	684	0	correct_rejection	NA	0
32	Nonet	25	511	997	9	0	0	862136	683	0	correct_rejection	NA	0
32	Nonet	26	512	998	8	0	0	862853	683	0	correct_rejection	NA	0
32	Nonet	27	513	999	7	0	0	863569	684	0	correct_rejection	NA	0
32	Nonet	28	514	1000	9	0	0	864286	683	0	correct_rejection	NA	0
32	Nonet	29	515	1001	0	1	1	865003	683	1	hit	425	0
32	Nonet	30	516	1002	8	0	0	865719	684	0	correct_rejection	NA	0
32	Nonet	31	517	1003	7	0	0	866436	683	0	correct_rejection	NA	0
32	Nonet	32	518	1004	9	0	0	867153	683	0	correct_rejection	NA	0
32	Nonet	33	519	1005	8	0	0	867869	684	0	correct_rejection	NA	0
32	Nonet	34	520	1006	7	0	0	868586	683	0	correct_rejection	NA	0
32	Nonet	35	521	1007	9	0	0	869302	684	0	correct_rejection	NA	0
32	Nonet	36	522	1008	0	1	1	870019	684	1	hit	456	0
32	Nonet	37	523	1009	8	0	0	870736	683	0	correct_rejection	NA	0
32	Nonet	38	524	1010	7	0	0	871452	684	0	correct_rejection	NA	0
32	Nonet	39	525	1011	9	0	0	872169	683	0	correct_rejection	NA	0
32	Nonet	40	526	1012	8	0	0	872886	683	0	correct_rejection	NA	0
32	Nonet	41	527	1013	7	0	0	873602	684	0	correct_rejection	NA	0
32	Nonet	42	528	1014	4	0	0	874319	683	0	correct_rejection	NA	0
32	Nonet	43	529	1015	5	0	0	875036	683	0	correct_rejection	NA	0
32	Nonet	44	530	1016	6	0	0	875752	684	0	correct_rejection	NA	0
32	Nonet	45	531	1017	4	0	0	876469	683	0	correct_rejection	NA	0
32	Nonet	46	532	1018	5	0	0	877186	683	0	correct_rejection	NA	0
32	Nonet	47	533	1019	0	1	1	877902	684	0	miss	NA	0
32	Nonet	48	534	1020	6	0	0	878619	683	1	false_alarm	0	0
32	Nonet	49	535	1021	4	0	0	879336	683	0	correct_rejection	NA	0
32	Nonet	50	536	1022	5	0	0	880052	684	0	correct_rejection	NA	0
32	Nonet	51	537	1023	6	0	0	880769	683	0	correct_rejection	NA	0
32	Nonet	52	538	1024	6	0	0	881486	683	0	correct_rejection	NA	0
32	Nonet	53	539	1025	5	0	0	882202	684	0	correct_rejection	NA	0
32	Nonet	54	540	1026	4	0	0	882919	683	0	correct_rejection	NA	0
32	Nonet	55	541	1027	6	0	0	883636	683	0	correct_rejection	NA	0
32	Nonet	56	542	1028	5	0	0	884352	684	0	correct_rejection	NA	0
32	Nonet	57	543	1029	4	0	0	885069	683	0	correct_rejection	NA	0
32	Nonet	58	544	1030	6	0	0	885786	683	0	correct_rejection	NA	0
32	Nonet	59	545	1031	5	0	0	886502	684	0	correct_rejection	NA	0
32	Nonet	60	546	1032	4	0	0	887219	683	0	correct_rejection	NA	0
32	Nonet	61	547	1033	4	0	0	887936	683	0	correct_rejection	NA	0
32	Nonet	62	548	1034	5	0	0	888652	684	0	correct_rejection	NA	0
32	Nonet	63	549	1035	6	0	0	889369	683	0	correct_rejection	NA	0
32	Nonet	64	550	1036	4	0	0	890086	683	0	correct_rejection	NA	0
32	Nonet	65	551	1037	5	0	0	890802	684	0	correct_rejection	NA	0
32	Nonet	66	552	1038	6	0	0	891519	683	0	correct_rejection	NA	0
32	Nonet	67	553	1039	0	1	2	892235	684	1	hit	502	0
32	Nonet	68	554	1040	4	0	0	892952	683	0	correct_rejection	NA	0
32	Nonet	69	555	1041	5	0	0	893669	683	0	correct_rejection	NA	0
32	Nonet	70	556	1042	6	0	0	894385	684	0	correct_rejection	NA	0
32	Nonet	71	557	1043	7	0	0	895102	683	0	correct_rejection	NA	0
32	Nonet	72	558	1044	8	0	0	895819	683	0	correct_rejection	NA	0
32	Nonet	73	559	1045	9	0	0	896535	684	0	correct_rejection	NA	0
32	Nonet	74	560	1046	7	0	0	897252	683	0	correct_rejection	NA	0
32	Nonet	75	561	1047	8	0	0	897969	683	0	correct_rejection	NA	0
32	Nonet	76	562	1048	9	0	0	898685	684	0	correct_rejection	NA	0
32	Nonet	77	563	1049	7	0	0	899402	683	0	correct_rejection	NA	0
32	Nonet	78	564	1050	8	0	0	900119	683	0	correct_rejection	NA	0
32	Nonet	79	565	1051	9	0	0	900835	684	0	correct_rejection	NA	0
32	Nonet	80	566	1052	6	0	0	901552	683	0	correct_rejection	NA	0
32	Nonet	81	567	1053	5	0	0	902269	683	0	correct_rejection	NA	0
32	Nonet	82	568	1054	0	1	1	902985	684	0	miss	NA	0
32	Nonet	83	569	1055	4	0	0	903702	683	1	false_alarm	0	0
32	Nonet	84	570	1056	6	0	0	904419	683	0	correct_rejection	NA	0
32	Nonet	85	571	1057	5	0	0	905135	684	0	correct_rejection	NA	0
32	Nonet	86	572	1058	4	0	0	905852	683	0	correct_rejection	NA	0
32	Nonet	87	573	1059	0	1	2	906569	683	1	hit	557	0
32	Nonet	88	574	1060	6	0	0	907285	684	0	correct_rejection	NA	0
32	Nonet	89	575	1061	5	0	0	908002	683	0	correct_rejection	NA	0
32	Nonet	90	576	1062	4	0	0	908719	683	0	correct_rejection	NA	0
32	Nonet	91	577	1063	9	0	0	909435	684	0	correct_rejection	NA	0
32	Nonet	92	578	1064	8	0	0	910152	683	0	correct_rejection	NA	0
32	Nonet	93	579	1065	7	0	0	910869	683	0	correct_rejection	NA	0
32	Nonet	94	580	1066	9	0	0	911585	684	0	correct_rejection	NA	0
32	Nonet	95	581	1067	8	0	0	912302	683	0	correct_rejection	NA	0
32	Nonet	96	582	1068	7	0	0	913018	684	0	correct_rejection	NA	0
32	Nonet	97	583	1069	0	1	2	913735	683	1	hit	562	0
32	Nonet	98	584	1070	9	0	0	914452	683	0	correct_rejection	NA	0
32	Nonet	99	585	1071	8	0	0	915168	684	0	correct_rejection	NA	0
32	Nonet	100	586	1072	7	0	0	915885	683	0	correct_rejection	NA	0
32	Nonet	101	587	1073	6	0	0	916602	683	0	correct_rejection	NA	0
32	Nonet	102	588	1074	5	0	0	917318	684	0	correct_rejection	NA	0
32	Nonet	103	589	1075	0	1	1	918035	683	1	hit	580	0
32	Nonet	104	590	1076	4	0	0	918752	683	0	correct_rejection	NA	0
32	Nonet	105	591	1077	6	0	0	919468	684	0	correct_rejection	NA	0
32	Nonet	106	592	1078	5	0	0	920185	683	0	correct_rejection	NA	0
32	Nonet	107	593	1079	4	0	0	920902	683	0	correct_rejection	NA	0
32	Nonet	108	594	1080	6	0	0	921618	684	0	correct_rejection	NA	0
32	Nonet	109	595	1081	5	0	0	922335	683	0	correct_rejection	NA	0
32	Nonet	110	596	1082	4	0	0	923052	683	0	correct_rejection	NA	0
32	Nonet	111	597	1083	6	0	0	923768	684	0	correct_rejection	NA	0
32	Nonet	112	598	1084	5	0	0	924485	683	0	correct_rejection	NA	0
32	Nonet	113	599	1085	4	0	0	925202	683	0	correct_rejection	NA	0
32	Nonet	114	600	1086	6	0	0	925918	684	0	correct_rejection	NA	0
32	Nonet	115	601	1087	5	0	0	926635	683	0	correct_rejection	NA	0
32	Nonet	116	602	1088	4	0	0	927352	683	0	correct_rejection	NA	0
32	Nonet	117	603	1089	6	0	0	928068	684	0	correct_rejection	NA	0
32	Nonet	118	604	1090	0	1	1	928785	683	1	hit	464	0
32	Nonet	119	605	1091	5	0	0	929502	683	0	correct_rejection	NA	0
32	Nonet	120	606	1092	4	0	0	930218	684	0	correct_rejection	NA	0
32	Nonet	121	607	1093	7	0	0	930935	683	0	correct_rejection	NA	0
32	Nonet	122	608	1094	8	0	0	931652	683	0	correct_rejection	NA	0
32	Nonet	123	609	1095	0	1	1	932368	684	1	hit	530	0
32	Nonet	124	610	1096	9	0	0	933085	683	0	correct_rejection	NA	0
32	Nonet	125	611	1097	7	0	0	933801	684	0	correct_rejection	NA	0
32	Nonet	126	612	1098	0	1	1	934518	683	0	miss	NA	0
32	Nonet	127	613	1099	8	0	0	935235	683	1	false_alarm	0	0
32	Nonet	128	614	1100	9	0	0	935951	684	0	correct_rejection	NA	0
32	Nonet	129	615	1101	0	1	2	936668	683	1	hit	457	0
32	Nonet	130	616	1102	7	0	0	937385	683	0	correct_rejection	NA	0
32	Nonet	131	617	1103	8	0	0	938101	684	0	correct_rejection	NA	0
32	Nonet	132	618	1104	9	0	0	938818	683	0	correct_rejection	NA	0
32	Nonet	133	619	1105	4	0	0	939535	683	0	correct_rejection	NA	0
32	Nonet	134	620	1106	5	0	0	940251	684	0	correct_rejection	NA	0
32	Nonet	135	621	1107	6	0	0	940968	683	0	correct_rejection	NA	0
32	Nonet	136	622	1108	4	0	0	941685	683	0	correct_rejection	NA	0
32	Nonet	137	623	1109	5	0	0	942401	684	0	correct_rejection	NA	0
32	Nonet	138	624	1110	6	0	0	943118	683	0	correct_rejection	NA	0
32	Nonet	139	625	1111	4	0	0	943835	683	0	correct_rejection	NA	0
32	Nonet	140	626	1112	5	0	0	944551	684	0	correct_rejection	NA	0
32	Nonet	141	627	1113	6	0	0	945268	683	0	correct_rejection	NA	0
32	Nonet	142	628	1114	4	0	0	945985	683	0	correct_rejection	NA	0
32	Nonet	143	629	1115	5	0	0	946701	684	0	correct_rejection	NA	0
32	Nonet	144	630	1116	6	0	0	947418	683	0	correct_rejection	NA	0
32	Nonet	145	631	1117	4	0	0	948135	683	0	correct_rejection	NA	0
32	Nonet	146	632	1118	0	1	1	948851	684	1	hit	601	0
32	Nonet	147	633	1119	5	0	0	949568	683	0	correct_rejection	NA	0
32	Nonet	148	634	1120	6	0	0	950285	683	0	correct_rejection	NA	0
32	Nonet	149	635	1121	0	1	2	951001	684	1	hit	495	0
32	Nonet	150	636	1122	4	0	0	951718	683	0	correct_rejection	NA	0
32	Nonet	151	637	1123	5	0	0	952435	683	0	correct_rejection	NA	0
32	Nonet	152	638	1124	6	0	0	953151	684	0	correct_rejection	NA	0
32	Nonet	153	639	1125	9	0	0	953868	683	0	correct_rejection	NA	0
32	Nonet	154	640	1126	8	0	0	954584	684	0	correct_rejection	NA	0
32	Nonet	155	641	1127	7	0	0	955301	683	0	correct_rejection	NA	0
32	Nonet	156	642	1128	9	0	0	956018	683	0	correct_rejection	NA	0
32	Nonet	157	643	1129	8	0	0	956734	684	0	correct_rejection	NA	0
32	Nonet	158	644	1130	7	0	0	957451	683	0	correct_rejection	NA	0
32	Nonet	159	645	1131	9	0	0	958168	683	0	correct_rejection	NA	0
32	Nonet	160	646	1132	8	0	0	958884	684	0	correct_rejection	NA	0
32	Nonet	161	647	1133	0	1	1	959601	683	1	hit	464	0
32	Nonet	162	648	1134	7	0	0	960318	683	0	correct_rejection	NA	0
32	Triplet	1	163	1135	6	0	0	970201	683	0	correct_rejection	NA	7907
32	Triplet	2	164	1136	5	0	0	970918	683	0	correct_rejection	NA	0
32	Triplet	3	165	1137	4	0	0	971634	684	0	correct_rejection	NA	0
32	Triplet	4	166	1138	0	1	2	972351	683	1	hit	568	0
32	Triplet	5	167	1139	6	0	0	973068	683	0	correct_rejection	NA	0
32	Triplet	6	168	1140	5	0	0	973784	684	0	correct_rejection	NA	0
32	Triplet	7	169	1141	0	1	1	974501	683	1	hit	597	0
32	Triplet	8	170	1142	4	0	0	975217	684	0	correct_rejection	NA	0
32	Triplet	9	171	1143	4	0	0	975934	684	0	correct_rejection	NA	0
32	Triplet	10	172	1144	5	0	0	976651	683	0	correct_rejection	NA	0
32	Triplet	11	173	1145	0	1	1	977367	684	1	hit	658	0
32	Triplet	12	174	1146	6	0	0	978084	683	0	correct_rejection	NA	0
32	Triplet	13	175	1147	9	0	0	978801	683	0	correct_rejection	NA	0
32	Triplet	14	176	1148	8	0	0	979517	684	0	correct_rejection	NA	0
32	Triplet	15	177	1149	7	0	0	980234	683	0	correct_rejection	NA	0
32	Triplet	16	178	1150	6	0	0	980951	683	0	correct_rejection	NA	0
32	Triplet	17	179	1151	0	1	1	981667	684	1	hit	544	0
32	Triplet	18	180	1152	5	0	0	982384	683	0	correct_rejection	NA	0
32	Triplet	19	181	1153	4	0	0	983101	683	0	correct_rejection	NA	0
32	Triplet	20	182	1154	9	0	0	983817	684	0	correct_rejection	NA	0
32	Triplet	21	183	1155	8	0	0	984534	683	0	correct_rejection	NA	0
32	Triplet	22	184	1156	7	0	0	985251	683	0	correct_rejection	NA	0
32	Triplet	23	185	1157	0	1	2	985967	684	1	hit	478	0
32	Triplet	24	186	1158	7	0	0	986684	683	0	correct_rejection	NA	0
32	Triplet	25	187	1159	8	0	0	987401	683	0	correct_rejection	NA	0
32	Triplet	26	188	1160	9	0	0	988117	684	0	correct_rejection	NA	0
32	Triplet	27	189	1161	6	0	0	988834	683	0	correct_rejection	NA	0
32	Triplet	28	190	1162	5	0	0	989551	683	0	correct_rejection	NA	0
32	Triplet	29	191	1163	0	1	1	990267	684	1	hit	443	0
32	Triplet	30	192	1164	4	0	0	990984	683	0	correct_rejection	NA	0
32	Triplet	31	193	1165	7	0	0	991701	683	0	correct_rejection	NA	0
32	Triplet	32	194	1166	8	0	0	992417	684	0	correct_rejection	NA	0
32	Triplet	33	195	1167	9	0	0	993134	683	0	correct_rejection	NA	0
32	Triplet	34	196	1168	7	0	0	993851	683	0	correct_rejection	NA	0
32	Triplet	35	197	1169	8	0	0	994567	684	0	correct_rejection	NA	0
32	Triplet	36	198	1170	9	0	0	995284	683	0	correct_rejection	NA	0
32	Triplet	37	199	1171	9	0	0	996000	684	0	correct_rejection	NA	0
32	Triplet	38	200	1172	8	0	0	996717	684	0	correct_rejection	NA	0
32	Triplet	39	201	1173	7	0	0	997434	683	0	correct_rejection	NA	0
32	Triplet	40	202	1174	9	0	0	998150	684	0	correct_rejection	NA	0
32	Triplet	41	203	1175	8	0	0	998867	683	0	correct_rejection	NA	0
32	Triplet	42	204	1176	0	1	1	999584	683	0	miss	NA	0
32	Triplet	43	205	1177	7	0	0	1000300	684	1	false_alarm	92	0
32	Triplet	44	206	1178	4	0	0	1001017	683	0	correct_rejection	NA	0
32	Triplet	45	207	1179	5	0	0	1001734	683	0	correct_rejection	NA	0
32	Triplet	46	208	1180	6	0	0	1002450	684	0	correct_rejection	NA	0
32	Triplet	47	209	1181	4	0	0	1003167	683	0	correct_rejection	NA	0
32	Triplet	48	210	1182	5	0	0	1003884	683	0	correct_rejection	NA	0
32	Triplet	49	211	1183	6	0	0	1004600	684	0	correct_rejection	NA	0
32	Triplet	50	212	1184	7	0	0	1005317	683	0	correct_rejection	NA	0
32	Triplet	51	213	1185	8	0	0	1006034	683	0	correct_rejection	NA	0
32	Triplet	52	214	1186	9	0	0	1006750	684	0	correct_rejection	NA	0
32	Triplet	53	215	1187	4	0	0	1007467	683	0	correct_rejection	NA	0
32	Triplet	54	216	1188	5	0	0	1008184	683	0	correct_rejection	NA	0
32	Triplet	55	217	1189	6	0	0	1008900	684	0	correct_rejection	NA	0
32	Triplet	56	218	1190	7	0	0	1009617	683	0	correct_rejection	NA	0
32	Triplet	57	219	1191	0	1	1	1010334	683	1	hit	487	0
32	Triplet	58	220	1192	8	0	0	1011050	684	0	correct_rejection	NA	0
32	Triplet	59	221	1193	9	0	0	1011767	683	0	correct_rejection	NA	0
32	Triplet	60	222	1194	0	1	2	1012484	683	0	miss	NA	0
32	Triplet	61	223	1195	6	0	0	1013200	684	1	false_alarm	0	0
32	Triplet	62	224	1196	5	0	0	1013917	683	0	correct_rejection	NA	0
32	Triplet	63	225	1197	4	0	0	1014634	683	0	correct_rejection	NA	0
32	Triplet	64	226	1198	6	0	0	1015350	684	0	correct_rejection	NA	0
32	Triplet	65	227	1199	5	0	0	1016067	683	0	correct_rejection	NA	0
32	Triplet	66	228	1200	4	0	0	1016784	683	0	correct_rejection	NA	0
32	Triplet	67	229	1201	9	0	0	1017500	684	0	correct_rejection	NA	0
32	Triplet	68	230	1202	8	0	0	1018217	683	0	correct_rejection	NA	0
32	Triplet	69	231	1203	7	0	0	1018933	684	0	correct_rejection	NA	0
32	Triplet	70	232	1204	4	0	0	1019650	683	0	correct_rejection	NA	0
32	Triplet	71	233	1205	0	1	1	1020367	683	1	hit	498	0
32	Triplet	72	234	1206	5	0	0	1021083	684	0	correct_rejection	NA	0
32	Triplet	73	235	1207	6	0	0	1021800	683	0	correct_rejection	NA	0
32	Triplet	74	236	1208	7	0	0	1022517	683	0	correct_rejection	NA	0
32	Triplet	75	237	1209	8	0	0	1023233	684	0	correct_rejection	NA	0
32	Triplet	76	238	1210	9	0	0	1023950	683	0	correct_rejection	NA	0
32	Triplet	77	239	1211	7	0	0	1024667	683	0	correct_rejection	NA	0
32	Triplet	78	240	1212	8	0	0	1025383	684	0	correct_rejection	NA	0
32	Triplet	79	241	1213	9	0	0	1026100	683	0	correct_rejection	NA	0
32	Triplet	80	242	1214	4	0	0	1026817	683	0	correct_rejection	NA	0
32	Triplet	81	243	1215	5	0	0	1027533	684	0	correct_rejection	NA	0
32	Triplet	82	244	1216	6	0	0	1028250	683	0	correct_rejection	NA	0
32	Triplet	83	245	1217	6	0	0	1028967	683	0	correct_rejection	NA	0
32	Triplet	84	246	1218	5	0	0	1029683	684	0	correct_rejection	NA	0
32	Triplet	85	247	1219	4	0	0	1030400	683	0	correct_rejection	NA	0
32	Triplet	86	248	1220	7	0	0	1031117	683	0	correct_rejection	NA	0
32	Triplet	87	249	1221	8	0	0	1031833	684	0	correct_rejection	NA	0
32	Triplet	88	250	1222	9	0	0	1032550	683	0	correct_rejection	NA	0
32	Triplet	89	251	1223	9	0	0	1033267	683	0	correct_rejection	NA	0
32	Triplet	90	252	1224	8	0	0	1033983	684	0	correct_rejection	NA	0
32	Triplet	91	253	1225	7	0	0	1034700	683	0	correct_rejection	NA	0
32	Triplet	92	254	1226	6	0	0	1035417	683	0	correct_rejection	NA	0
32	Triplet	93	255	1227	5	0	0	1036133	684	0	correct_rejection	NA	0
32	Triplet	94	256	1228	4	0	0	1036850	683	0	correct_rejection	NA	0
32	Triplet	95	257	1229	4	0	0	1037567	683	0	correct_rejection	NA	0
32	Triplet	96	258	1230	5	0	0	1038283	684	0	correct_rejection	NA	0
32	Triplet	97	259	1231	6	0	0	1039000	683	0	correct_rejection	NA	0
32	Triplet	98	260	1232	4	0	0	1039716	684	0	correct_rejection	NA	0
32	Triplet	99	261	1233	5	0	0	1040433	683	0	correct_rejection	NA	0
32	Triplet	100	262	1234	6	0	0	1041150	683	0	correct_rejection	NA	0
32	Triplet	101	263	1235	9	0	0	1041866	684	0	correct_rejection	NA	0
32	Triplet	102	264	1236	8	0	0	1042583	683	0	correct_rejection	NA	0
32	Triplet	103	265	1237	7	0	0	1043300	683	0	correct_rejection	NA	0
32	Triplet	104	266	1238	0	1	2	1044016	684	1	hit	578	0
32	Triplet	105	267	1239	9	0	0	1044733	683	0	correct_rejection	NA	0
32	Triplet	106	268	1240	8	0	0	1045450	683	0	correct_rejection	NA	0
32	Triplet	107	269	1241	7	0	0	1046166	684	0	correct_rejection	NA	0
32	Triplet	108	270	1242	4	0	0	1046883	683	0	correct_rejection	NA	0
32	Triplet	109	271	1243	5	0	0	1047600	683	0	correct_rejection	NA	0
32	Triplet	110	272	1244	6	0	0	1048316	684	0	correct_rejection	NA	0
32	Triplet	111	273	1245	4	0	0	1049033	683	0	correct_rejection	NA	0
32	Triplet	112	274	1246	5	0	0	1049750	683	0	correct_rejection	NA	0
32	Triplet	113	275	1247	6	0	0	1050466	684	0	correct_rejection	NA	0
32	Triplet	114	276	1248	6	0	0	1051183	683	0	correct_rejection	NA	0
32	Triplet	115	277	1249	0	1	1	1051900	683	1	hit	468	0
32	Triplet	116	278	1250	5	0	0	1052616	684	0	correct_rejection	NA	0
32	Triplet	117	279	1251	4	0	0	1053333	683	0	correct_rejection	NA	0
32	Triplet	118	280	1252	9	0	0	1054050	683	0	correct_rejection	NA	0
32	Triplet	119	281	1253	8	0	0	1054766	684	0	correct_rejection	NA	0
32	Triplet	120	282	1254	0	1	1	1055483	683	1	hit	673	0
32	Triplet	121	283	1255	7	0	0	1056200	683	0	correct_rejection	NA	0
32	Triplet	122	284	1256	9	0	0	1056916	684	0	correct_rejection	NA	0
32	Triplet	123	285	1257	0	1	1	1057633	683	0	miss	NA	0
32	Triplet	124	286	1258	8	0	0	1058350	683	1	false_alarm	0	0
32	Triplet	125	287	1259	7	0	0	1059066	684	0	correct_rejection	NA	0
32	Triplet	126	288	1260	6	0	0	1059783	683	0	correct_rejection	NA	0
32	Triplet	127	289	1261	5	0	0	1060499	684	0	correct_rejection	NA	0
32	Triplet	128	290	1262	4	0	0	1061216	683	0	correct_rejection	NA	0
32	Triplet	129	291	1263	6	0	0	1061933	683	0	correct_rejection	NA	0
32	Triplet	130	292	1264	5	0	0	1062649	684	0	correct_rejection	NA	0
32	Triplet	131	293	1265	4	0	0	1063366	683	0	correct_rejection	NA	0
32	Triplet	132	294	1266	7	0	0	1064083	683	0	correct_rejection	NA	0
32	Triplet	133	295	1267	0	1	1	1064799	684	1	hit	557	0
32	Triplet	134	296	1268	8	0	0	1065516	683	0	correct_rejection	NA	0
32	Triplet	135	297	1269	9	0	0	1066233	683	0	correct_rejection	NA	0
32	Triplet	136	298	1270	4	0	0	1066949	684	0	correct_rejection	NA	0
32	Triplet	137	299	1271	5	0	0	1067666	683	0	correct_rejection	NA	0
32	Triplet	138	300	1272	6	0	0	1068383	683	0	correct_rejection	NA	0
32	Triplet	139	301	1273	7	0	0	1069099	684	0	correct_rejection	NA	0
32	Triplet	140	302	1274	8	0	0	1069816	683	0	correct_rejection	NA	0
32	Triplet	141	303	1275	0	1	1	1070533	683	1	hit	576	0
32	Triplet	142	304	1276	9	0	0	1071249	684	0	correct_rejection	NA	0
32	Triplet	143	305	1277	9	0	0	1071966	683	0	correct_rejection	NA	0
32	Triplet	144	306	1278	8	0	0	1072683	683	0	correct_rejection	NA	0
32	Triplet	145	307	1279	7	0	0	1073399	684	0	correct_rejection	NA	0
32	Triplet	146	308	1280	4	0	0	1074116	683	0	correct_rejection	NA	0
32	Triplet	147	309	1281	5	0	0	1074833	683	0	correct_rejection	NA	0
32	Triplet	148	310	1282	6	0	0	1075549	684	0	correct_rejection	NA	0
32	Triplet	149	311	1283	9	0	0	1076266	683	0	correct_rejection	NA	0
32	Triplet	150	312	1284	0	1	1	1076983	683	1	hit	563	0
32	Triplet	151	313	1285	8	0	0	1077699	684	0	correct_rejection	NA	0
32	Triplet	152	314	1286	7	0	0	1078416	683	0	correct_rejection	NA	0
32	Triplet	153	315	1287	7	0	0	1079133	683	0	correct_rejection	NA	0
32	Triplet	154	316	1288	8	0	0	1079849	684	0	correct_rejection	NA	0
32	Triplet	155	317	1289	9	0	0	1080566	683	0	correct_rejection	NA	0
32	Triplet	156	318	1290	7	0	0	1081282	684	0	correct_rejection	NA	0
32	Triplet	157	319	1291	0	1	1	1081999	684	1	hit	561	0
32	Triplet	158	320	1292	8	0	0	1082716	683	0	correct_rejection	NA	0
32	Triplet	159	321	1293	9	0	0	1083432	684	0	correct_rejection	NA	0
32	Triplet	160	322	1294	6	0	0	1084149	683	0	correct_rejection	NA	0
32	Triplet	161	323	1295	5	0	0	1084866	683	0	correct_rejection	NA	0
32	Triplet	162	324	1296	4	0	0	1085582	684	0	correct_rejection	NA	0
32	Correct	1	487	1297	4	0	0	1096016	683	0	correct_rejection	NA	7716
32	Correct	2	488	1298	5	0	0	1096732	684	0	correct_rejection	NA	0
32	Correct	3	489	1299	6	0	0	1097449	683	0	correct_rejection	NA	0
32	Correct	4	490	1300	4	0	0	1098166	683	0	correct_rejection	NA	0
32	Correct	5	491	1301	0	1	1	1098882	684	1	hit	504	0
32	Correct	6	492	1302	5	0	0	1099599	683	0	correct_rejection	NA	0
32	Correct	7	493	1303	6	0	0	1100316	683	0	correct_rejection	NA	0
32	Correct	8	494	1304	0	1	2	1101032	684	1	hit	581	0
32	Correct	9	495	1305	4	0	0	1101749	683	0	correct_rejection	NA	0
32	Correct	10	496	1306	5	0	0	1102465	684	0	correct_rejection	NA	0
32	Correct	11	497	1307	6	0	0	1103182	684	0	correct_rejection	NA	0
32	Correct	12	498	1308	6	0	0	1103899	683	0	correct_rejection	NA	0
32	Correct	13	499	1309	5	0	0	1104615	684	0	correct_rejection	NA	0
32	Correct	14	500	1310	4	0	0	1105332	683	0	correct_rejection	NA	0
32	Correct	15	501	1311	0	1	2	1106049	683	1	hit	478	0
32	Correct	16	502	1312	6	0	0	1106765	684	0	correct_rejection	NA	0
32	Correct	17	503	1313	5	0	0	1107482	683	0	correct_rejection	NA	0
32	Correct	18	504	1314	4	0	0	1108199	683	0	correct_rejection	NA	0
32	Correct	19	505	1315	6	0	0	1108915	684	0	correct_rejection	NA	0
32	Correct	20	506	1316	0	1	1	1109632	683	1	hit	460	0
32	Correct	21	507	1317	5	0	0	1110349	683	0	correct_rejection	NA	0
32	Correct	22	508	1318	4	0	0	1111065	684	0	correct_rejection	NA	0
32	Correct	23	509	1319	9	0	0	1111782	683	0	correct_rejection	NA	0
32	Correct	24	510	1320	8	0	0	1112499	683	0	correct_rejection	NA	0
32	Correct	25	511	1321	7	0	0	1113215	684	0	correct_rejection	NA	0
32	Correct	26	512	1322	9	0	0	1113932	683	0	correct_rejection	NA	0
32	Correct	27	513	1323	0	1	1	1114649	683	1	hit	488	0
32	Correct	28	514	1324	8	0	0	1115365	684	0	correct_rejection	NA	0
32	Correct	29	515	1325	7	0	0	1116082	683	0	correct_rejection	NA	0
32	Correct	30	516	1326	9	0	0	1116799	683	0	correct_rejection	NA	0
32	Correct	31	517	1327	8	0	0	1117515	684	0	correct_rejection	NA	0
32	Correct	32	518	1328	0	1	1	1118232	683	1	hit	602	0
32	Correct	33	519	1329	7	0	0	1118949	683	0	correct_rejection	NA	0
32	Correct	34	520	1330	7	0	0	1119665	684	0	correct_rejection	NA	0
32	Correct	35	521	1331	8	0	0	1120382	683	0	correct_rejection	NA	0
32	Correct	36	522	1332	9	0	0	1121099	683	0	correct_rejection	NA	0
32	Correct	37	523	1333	7	0	0	1121815	684	0	correct_rejection	NA	0
32	Correct	38	524	1334	8	0	0	1122532	683	0	correct_rejection	NA	0
32	Correct	39	525	1335	9	0	0	1123249	683	0	correct_rejection	NA	0
32	Correct	40	526	1336	7	0	0	1123965	684	0	correct_rejection	NA	0
32	Correct	41	527	1337	8	0	0	1124682	683	0	correct_rejection	NA	0
32	Correct	42	528	1338	9	0	0	1125398	684	0	correct_rejection	NA	0
32	Correct	43	529	1339	4	0	0	1126115	683	0	correct_rejection	NA	0
32	Correct	44	530	1340	5	0	0	1126832	683	0	correct_rejection	NA	0
32	Correct	45	531	1341	6	0	0	1127548	684	0	correct_rejection	NA	0
32	Correct	46	532	1342	4	0	0	1128265	683	0	correct_rejection	NA	0
32	Correct	47	533	1343	5	0	0	1128982	683	0	correct_rejection	NA	0
32	Correct	48	534	1344	6	0	0	1129698	684	0	correct_rejection	NA	0
32	Correct	49	535	1345	4	0	0	1130415	683	0	correct_rejection	NA	0
32	Correct	50	536	1346	5	0	0	1131132	683	0	correct_rejection	NA	0
32	Correct	51	537	1347	0	1	1	1131848	684	1	hit	604	0
32	Correct	52	538	1348	6	0	0	1132565	683	0	correct_rejection	NA	0
32	Correct	53	539	1349	6	0	0	1133282	683	0	correct_rejection	NA	0
32	Correct	54	540	1350	5	0	0	1133998	684	0	correct_rejection	NA	0
32	Correct	55	541	1351	4	0	0	1134715	683	0	correct_rejection	NA	0
32	Correct	56	542	1352	6	0	0	1135432	683	0	correct_rejection	NA	0
32	Correct	57	543	1353	5	0	0	1136148	684	0	correct_rejection	NA	0
32	Correct	58	544	1354	4	0	0	1136865	683	0	correct_rejection	NA	0
32	Correct	59	545	1355	0	1	2	1137582	683	1	hit	549	0
32	Correct	60	546	1356	6	0	0	1138298	684	0	correct_rejection	NA	0
32	Correct	61	547	1357	5	0	0	1139015	683	0	correct_rejection	NA	0
32	Correct	62	548	1358	0	1	1	1139732	683	1	hit	522	0
32	Correct	63	549	1359	4	0	0	1140448	684	0	correct_rejection	NA	0
32	Correct	64	550	1360	9	0	0	1141165	683	0	correct_rejection	NA	0
32	Correct	65	551	1361	0	1	1	1141882	683	1	hit	418	0
32	Correct	66	552	1362	8	0	0	1142598	684	0	correct_rejection	NA	0
32	Correct	67	553	1363	7	0	0	1143315	683	0	correct_rejection	NA	0
32	Correct	68	554	1364	9	0	0	1144032	683	0	correct_rejection	NA	0
32	Correct	69	555	1365	8	0	0	1144748	684	0	correct_rejection	NA	0
32	Correct	70	556	1366	0	1	1	1145465	683	1	hit	519	0
32	Correct	71	557	1367	7	0	0	1146181	684	0	correct_rejection	NA	0
32	Correct	72	558	1368	9	0	0	1146898	683	0	correct_rejection	NA	0
32	Correct	73	559	1369	8	0	0	1147615	683	0	correct_rejection	NA	0
32	Correct	74	560	1370	7	0	0	1148331	684	0	correct_rejection	NA	0
32	Correct	75	561	1371	7	0	0	1149048	683	0	correct_rejection	NA	0
32	Correct	76	562	1372	8	0	0	1149765	683	0	correct_rejection	NA	0
32	Correct	77	563	1373	9	0	0	1150481	684	0	correct_rejection	NA	0
32	Correct	78	564	1374	7	0	0	1151198	683	0	correct_rejection	NA	0
32	Correct	79	565	1375	8	0	0	1151915	683	0	correct_rejection	NA	0
32	Correct	80	566	1376	9	0	0	1152631	684	0	correct_rejection	NA	0
32	Correct	81	567	1377	7	0	0	1153348	683	0	correct_rejection	NA	0
32	Correct	82	568	1378	8	0	0	1154065	683	0	correct_rejection	NA	0
32	Correct	83	569	1379	9	0	0	1154781	684	0	correct_rejection	NA	0
32	Correct	84	570	1380	4	0	0	1155498	683	0	correct_rejection	NA	0
32	Correct	85	571	1381	5	0	0	1156215	683	0	correct_rejection	NA	0
32	Correct	86	572	1382	6	0	0	1156931	684	0	correct_rejection	NA	0
32	Correct	87	573	1383	4	0	0	1157648	683	0	correct_rejection	NA	0
32	Correct	88	574	1384	5	0	0	1158365	683	0	correct_rejection	NA	0
32	Correct	89	575	1385	0	1	1	1159081	684	1	hit	544	0
32	Correct	90	576	1386	6	0	0	1159798	683	0	correct_rejection	NA	0
32	Correct	91	577	1387	4	0	0	1160515	683	0	correct_rejection	NA	0
32	Correct	92	578	1388	5	0	0	1161231	684	0	correct_rejection	NA	0
32	Correct	93	579	1389	6	0	0	1161948	683	0	correct_rejection	NA	0
32	Correct	94	580	1390	6	0	0	1162665	683	0	correct_rejection	NA	0
32	Correct	95	581	1391	0	1	1	1163381	684	1	hit	536	0
32	Correct	96	582	1392	5	0	0	1164098	683	0	correct_rejection	NA	0
32	Correct	97	583	1393	4	0	0	1164815	683	0	correct_rejection	NA	0
32	Correct	98	584	1394	6	0	0	1165531	684	0	correct_rejection	NA	0
32	Correct	99	585	1395	5	0	0	1166248	683	0	correct_rejection	NA	0
32	Correct	100	586	1396	4	0	0	1166964	684	0	correct_rejection	NA	0
32	Correct	101	587	1397	6	0	0	1167681	683	0	correct_rejection	NA	0
32	Correct	102	588	1398	5	0	0	1168398	683	0	correct_rejection	NA	0
32	Correct	103	589	1399	4	0	0	1169114	684	0	correct_rejection	NA	0
32	Correct	104	590	1400	9	0	0	1169831	683	0	correct_rejection	NA	0
32	Correct	105	591	1401	8	0	0	1170548	683	0	correct_rejection	NA	0
32	Correct	106	592	1402	7	0	0	1171264	684	0	correct_rejection	NA	0
32	Correct	107	593	1403	9	0	0	1171981	683	0	correct_rejection	NA	0
32	Correct	108	594	1404	8	0	0	1172698	683	0	correct_rejection	NA	0
32	Correct	109	595	1405	7	0	0	1173414	684	0	correct_rejection	NA	0
32	Correct	110	596	1406	9	0	0	1174131	683	0	correct_rejection	NA	0
32	Correct	111	597	1407	8	0	0	1174848	683	0	correct_rejection	NA	0
32	Correct	112	598	1408	7	0	0	1175564	684	0	correct_rejection	NA	0
32	Correct	113	599	1409	7	0	0	1176281	683	0	correct_rejection	NA	0
32	Correct	114	600	1410	8	0	0	1176998	683	0	correct_rejection	NA	0
32	Correct	115	601	1411	0	1	1	1177714	684	0	miss	NA	0
32	Correct	116	602	1412	9	0	0	1178431	683	1	false_alarm	218	0
32	Correct	117	603	1413	7	0	0	1179148	683	0	correct_rejection	NA	0
32	Correct	118	604	1414	8	0	0	1179864	684	0	correct_rejection	NA	0
32	Correct	119	605	1415	9	0	0	1180581	683	0	correct_rejection	NA	0
32	Correct	120	606	1416	7	0	0	1181298	683	0	correct_rejection	NA	0
32	Correct	121	607	1417	8	0	0	1182014	684	0	correct_rejection	NA	0
32	Correct	122	608	1418	9	0	0	1182731	683	0	correct_rejection	NA	0
32	Correct	123	609	1419	0	1	4	1183448	683	1	hit	396	0
32	Correct	124	610	1420	4	0	0	1184164	684	0	correct_rejection	NA	0
32	Correct	125	611	1421	5	0	0	1184881	683	0	correct_rejection	NA	0
32	Correct	126	612	1422	6	0	0	1185598	683	0	correct_rejection	NA	0
32	Correct	127	613	1423	4	0	0	1186314	684	0	correct_rejection	NA	0
32	Correct	128	614	1424	5	0	0	1187031	683	0	correct_rejection	NA	0
32	Correct	129	615	1425	6	0	0	1187747	684	0	correct_rejection	NA	0
32	Correct	130	616	1426	0	1	2	1188464	683	1	hit	430	0
32	Correct	131	617	1427	4	0	0	1189181	683	0	correct_rejection	NA	0
32	Correct	132	618	1428	5	0	0	1189897	684	0	correct_rejection	NA	0
32	Correct	133	619	1429	6	0	0	1190614	683	0	correct_rejection	NA	0
32	Correct	134	620	1430	6	0	0	1191331	683	0	correct_rejection	NA	0
32	Correct	135	621	1431	5	0	0	1192047	684	0	correct_rejection	NA	0
32	Correct	136	622	1432	4	0	0	1192764	683	0	correct_rejection	NA	0
32	Correct	137	623	1433	6	0	0	1193481	683	0	correct_rejection	NA	0
32	Correct	138	624	1434	5	0	0	1194197	684	0	correct_rejection	NA	0
32	Correct	139	625	1435	0	1	1	1194914	683	1	hit	545	0
32	Correct	140	626	1436	4	0	0	1195631	683	0	correct_rejection	NA	0
32	Correct	141	627	1437	6	0	0	1196347	684	0	correct_rejection	NA	0
32	Correct	142	628	1438	5	0	0	1197064	683	0	correct_rejection	NA	0
32	Correct	143	629	1439	4	0	0	1197781	683	0	correct_rejection	NA	0
32	Correct	144	630	1440	0	1	3	1198497	684	1	hit	501	0
32	Correct	145	631	1441	9	0	0	1199214	683	0	correct_rejection	NA	0
32	Correct	146	632	1442	8	0	0	1199931	683	0	correct_rejection	NA	0
32	Correct	147	633	1443	7	0	0	1200647	684	0	correct_rejection	NA	0
32	Correct	148	634	1444	9	0	0	1201364	683	0	correct_rejection	NA	0
32	Correct	149	635	1445	8	0	0	1202081	683	0	correct_rejection	NA	0
32	Correct	150	636	1446	7	0	0	1202797	684	0	correct_rejection	NA	0
32	Correct	151	637	1447	9	0	0	1203514	683	0	correct_rejection	NA	0
32	Correct	152	638	1448	8	0	0	1204231	683	0	correct_rejection	NA	0
32	Correct	153	639	1449	7	0	0	1204947	684	0	correct_rejection	NA	0
32	Correct	154	640	1450	7	0	0	1205664	683	0	correct_rejection	NA	0
32	Correct	155	641	1451	8	0	0	1206381	683	0	correct_rejection	NA	0
32	Correct	156	642	1452	9	0	0	1207097	684	0	correct_rejection	NA	0
32	Correct	157	643	1453	7	0	0	1207814	683	0	correct_rejection	NA	0
32	Correct	158	644	1454	8	0	0	1208530	684	0	correct_rejection	NA	0
32	Correct	159	645	1455	9	0	0	1209247	683	0	correct_rejection	NA	0
32	Correct	160	646	1456	7	0	0	1209964	683	0	correct_rejection	NA	0
32	Correct	161	647	1457	8	0	0	1210680	684	0	correct_rejection	NA	0
32	Correct	162	648	1458	9	0	0	1211397	683	0	correct_rejection	NA	0
32	Single	1	1	1459	9	0	0	1221264	683	0	correct_rejection	NA	7966
32	Single	2	2	1460	5	0	0	1221980	684	0	correct_rejection	NA	0
32	Single	3	3	1461	4	0	0	1222697	683	0	correct_rejection	NA	0
32	Single	4	4	1462	7	0	0	1223414	683	0	correct_rejection	NA	0
32	Single	5	5	1463	9	0	0	1224130	684	0	correct_rejection	NA	0
32	Single	6	6	1464	4	0	0	1224847	683	0	correct_rejection	NA	0
32	Single	7	7	1465	4	0	0	1225564	683	0	correct_rejection	NA	0
32	Single	8	8	1466	5	0	0	1226280	684	0	correct_rejection	NA	0
32	Single	9	9	1467	0	1	1	1226997	683	1	hit	547	0
32	Single	10	10	1468	8	0	0	1227714	683	0	correct_rejection	NA	0
32	Single	11	11	1469	7	0	0	1228430	684	0	correct_rejection	NA	0
32	Single	12	12	1470	5	0	0	1229147	683	0	correct_rejection	NA	0
32	Single	13	13	1471	7	0	0	1229863	684	0	correct_rejection	NA	0
32	Single	14	14	1472	0	1	1	1230580	683	1	hit	457	0
32	Single	15	15	1473	7	0	0	1231297	683	0	correct_rejection	NA	0
32	Single	16	16	1474	8	0	0	1232013	684	0	correct_rejection	NA	0
32	Single	17	17	1475	9	0	0	1232730	683	0	correct_rejection	NA	0
32	Single	18	18	1476	8	0	0	1233447	683	0	correct_rejection	NA	0
32	Single	19	19	1477	6	0	0	1234163	684	0	correct_rejection	NA	0
32	Single	20	20	1478	4	0	0	1234880	683	0	correct_rejection	NA	0
32	Single	21	21	1479	0	1	1	1235597	683	1	hit	469	0
32	Single	22	22	1480	9	0	0	1236313	684	0	correct_rejection	NA	0
32	Single	23	23	1481	9	0	0	1237030	683	0	correct_rejection	NA	0
32	Single	24	24	1482	7	0	0	1237747	683	0	correct_rejection	NA	0
32	Single	25	25	1483	0	1	1	1238463	684	1	hit	559	0
32	Single	26	26	1484	6	0	0	1239180	683	0	correct_rejection	NA	0
32	Single	27	27	1485	6	0	0	1239897	683	0	correct_rejection	NA	0
32	Single	28	28	1486	8	0	0	1240613	684	0	correct_rejection	NA	0
32	Single	29	29	1487	5	0	0	1241330	683	0	correct_rejection	NA	0
32	Single	30	30	1488	6	0	0	1242047	683	0	correct_rejection	NA	0
32	Single	31	31	1489	0	1	1	1242763	684	0	miss	NA	0
32	Single	32	32	1490	7	0	0	1243480	683	1	false_alarm	0	0
32	Single	33	33	1491	4	0	0	1244197	683	0	correct_rejection	NA	0
32	Single	34	34	1492	8	0	0	1244913	684	0	correct_rejection	NA	0
32	Single	35	35	1493	8	0	0	1245630	683	0	correct_rejection	NA	0
32	Single	36	36	1494	4	0	0	1246347	683	0	correct_rejection	NA	0
32	Single	37	37	1495	6	0	0	1247063	684	0	correct_rejection	NA	0
32	Single	38	38	1496	5	0	0	1247780	683	0	correct_rejection	NA	0
32	Single	39	39	1497	5	0	0	1248497	683	0	correct_rejection	NA	0
32	Single	40	40	1498	9	0	0	1249213	684	0	correct_rejection	NA	0
32	Single	41	41	1499	6	0	0	1249930	683	0	correct_rejection	NA	0
32	Single	42	42	1500	4	0	0	1250646	684	0	correct_rejection	NA	0
32	Single	43	43	1501	9	0	0	1251363	683	0	correct_rejection	NA	0
32	Single	44	44	1502	8	0	0	1252080	683	0	correct_rejection	NA	0
32	Single	45	45	1503	8	0	0	1252796	684	0	correct_rejection	NA	0
32	Single	46	46	1504	6	0	0	1253513	683	0	correct_rejection	NA	0
32	Single	47	47	1505	9	0	0	1254230	683	0	correct_rejection	NA	0
32	Single	48	48	1506	6	0	0	1254946	684	0	correct_rejection	NA	0
32	Single	49	49	1507	6	0	0	1255663	683	0	correct_rejection	NA	0
32	Single	50	50	1508	7	0	0	1256380	683	0	correct_rejection	NA	0
32	Single	51	51	1509	5	0	0	1257096	684	0	correct_rejection	NA	0
32	Single	52	52	1510	6	0	0	1257813	683	0	correct_rejection	NA	0
32	Single	53	53	1511	5	0	0	1258530	683	0	correct_rejection	NA	0
32	Single	54	54	1512	8	0	0	1259246	684	0	correct_rejection	NA	0
32	Single	55	55	1513	4	0	0	1259963	683	0	correct_rejection	NA	0
32	Single	56	56	1514	5	0	0	1260680	683	0	correct_rejection	NA	0
32	Single	57	57	1515	4	0	0	1261396	684	0	correct_rejection	NA	0
32	Single	58	58	1516	8	0	0	1262113	683	0	correct_rejection	NA	0
32	Single	59	59	1517	7	0	0	1262830	683	0	correct_rejection	NA	0
32	Single	60	60	1518	7	0	0	1263546	684	0	correct_rejection	NA	0
32	Single	61	61	1519	6	0	0	1264263	683	0	correct_rejection	NA	0
32	Single	62	62	1520	8	0	0	1264980	683	0	correct_rejection	NA	0
32	Single	63	63	1521	9	0	0	1265696	684	0	correct_rejection	NA	0
32	Single	64	64	1522	7	0	0	1266413	683	0	correct_rejection	NA	0
32	Single	65	65	1523	9	0	0	1267130	683	0	correct_rejection	NA	0
32	Single	66	66	1524	5	0	0	1267846	684	0	correct_rejection	NA	0
32	Single	67	67	1525	5	0	0	1268563	683	0	correct_rejection	NA	0
32	Single	68	68	1526	7	0	0	1269280	683	0	correct_rejection	NA	0
32	Single	69	69	1527	4	0	0	1269996	684	0	correct_rejection	NA	0
32	Single	70	70	1528	6	0	0	1270713	683	0	correct_rejection	NA	0
32	Single	71	71	1529	4	0	0	1271429	684	0	correct_rejection	NA	0
32	Single	72	72	1530	0	1	1	1272146	683	1	hit	569	0
32	Single	73	73	1531	4	0	0	1272863	683	0	correct_rejection	NA	0
32	Single	74	74	1532	7	0	0	1273579	684	0	correct_rejection	NA	0
32	Single	75	75	1533	0	1	1	1274296	683	0	miss	NA	0
32	Single	76	76	1534	8	0	0	1275013	683	1	false_alarm	0	0
32	Single	77	77	1535	5	0	0	1275729	684	0	correct_rejection	NA	0
32	Single	78	78	1536	9	0	0	1276446	683	0	correct_rejection	NA	0
32	Single	79	79	1537	9	0	0	1277163	683	0	correct_rejection	NA	0
32	Single	80	80	1538	4	0	0	1277879	684	0	correct_rejection	NA	0
32	Single	81	81	1539	9	0	0	1278596	683	0	correct_rejection	NA	0
32	Single	82	82	1540	0	1	1	1279313	683	1	hit	558	0
32	Single	83	83	1541	6	0	0	1280029	684	0	correct_rejection	NA	0
32	Single	84	84	1542	4	0	0	1280746	683	0	correct_rejection	NA	0
32	Single	85	85	1543	6	0	0	1281463	683	0	correct_rejection	NA	0
32	Single	86	86	1544	8	0	0	1282179	684	0	correct_rejection	NA	0
32	Single	87	87	1545	0	1	1	1282896	683	1	hit	645	0
32	Single	88	88	1546	8	0	0	1283613	683	0	correct_rejection	NA	0
32	Single	89	89	1547	5	0	0	1284329	684	0	correct_rejection	NA	0
32	Single	90	90	1548	7	0	0	1285046	683	0	correct_rejection	NA	0
32	Single	91	91	1549	8	0	0	1285763	683	0	correct_rejection	NA	0
32	Single	92	92	1550	6	0	0	1286479	684	0	correct_rejection	NA	0
32	Single	93	93	1551	7	0	0	1287196	683	0	correct_rejection	NA	0
32	Single	94	94	1552	9	0	0	1287913	683	0	correct_rejection	NA	0
32	Single	95	95	1553	8	0	0	1288629	684	0	correct_rejection	NA	0
32	Single	96	96	1554	7	0	0	1289346	683	0	correct_rejection	NA	0
32	Single	97	97	1555	6	0	0	1290063	683	0	correct_rejection	NA	0
32	Single	98	98	1556	9	0	0	1290779	684	0	correct_rejection	NA	0
32	Single	99	99	1557	0	1	1	1291496	683	1	hit	562	0
32	Single	100	100	1558	7	0	0	1292212	684	0	correct_rejection	NA	0
32	Single	101	101	1559	7	0	0	1292929	684	0	correct_rejection	NA	0
32	Single	102	102	1560	4	0	0	1293646	683	0	correct_rejection	NA	0
32	Single	103	103	1561	5	0	0	1294362	684	0	correct_rejection	NA	0
32	Single	104	104	1562	5	0	0	1295079	683	0	correct_rejection	NA	0
32	Single	105	105	1563	8	0	0	1295796	683	0	correct_rejection	NA	0
32	Single	106	106	1564	9	0	0	1296512	684	0	correct_rejection	NA	0
32	Single	107	107	1565	0	1	1	1297229	683	1	hit	496	0
32	Single	108	108	1566	9	0	0	1297946	683	0	correct_rejection	NA	0
32	Single	109	109	1567	4	0	0	1298662	684	0	correct_rejection	NA	0
32	Single	110	110	1568	0	1	1	1299379	683	1	hit	560	0
32	Single	111	111	1569	8	0	0	1300096	683	0	correct_rejection	NA	0
32	Single	112	112	1570	4	0	0	1300812	684	0	correct_rejection	NA	0
32	Single	113	113	1571	0	1	1	1301529	683	1	hit	504	0
32	Single	114	114	1572	7	0	0	1302246	683	0	correct_rejection	NA	0
32	Single	115	115	1573	5	0	0	1302962	684	0	correct_rejection	NA	0
32	Single	116	116	1574	9	0	0	1303679	683	0	correct_rejection	NA	0
32	Single	117	117	1575	5	0	0	1304396	683	0	correct_rejection	NA	0
32	Single	118	118	1576	6	0	0	1305112	684	0	correct_rejection	NA	0
32	Single	119	119	1577	6	0	0	1305829	683	0	correct_rejection	NA	0
32	Single	120	120	1578	5	0	0	1306546	683	0	correct_rejection	NA	0
32	Single	121	121	1579	0	1	1	1307262	684	1	hit	617	0
32	Single	122	122	1580	4	0	0	1307979	683	0	correct_rejection	NA	0
32	Single	123	123	1581	9	0	0	1308696	683	0	correct_rejection	NA	0
32	Single	124	124	1582	7	0	0	1309412	684	0	correct_rejection	NA	0
32	Single	125	125	1583	6	0	0	1310129	683	0	correct_rejection	NA	0
32	Single	126	126	1584	4	0	0	1310846	683	0	correct_rejection	NA	0
32	Single	127	127	1585	9	0	0	1311562	684	0	correct_rejection	NA	0
32	Single	128	128	1586	4	0	0	1312279	683	0	correct_rejection	NA	0
32	Single	129	129	1587	4	0	0	1312996	683	0	correct_rejection	NA	0
32	Single	130	130	1588	8	0	0	1313712	684	0	correct_rejection	NA	0
32	Single	131	131	1589	5	0	0	1314429	683	0	correct_rejection	NA	0
32	Single	132	132	1590	8	0	0	1315145	684	0	correct_rejection	NA	0
32	Single	133	133	1591	6	0	0	1315862	683	0	correct_rejection	NA	0
32	Single	134	134	1592	8	0	0	1316579	683	0	correct_rejection	NA	0
32	Single	135	135	1593	4	0	0	1317295	684	0	correct_rejection	NA	0
32	Single	136	136	1594	6	0	0	1318012	683	0	correct_rejection	NA	0
32	Single	137	137	1595	0	1	1	1318729	683	1	hit	509	0
