ID	block	trial_block	trial_cat	trial_total	number	violation	level_violation	onset	duration	Response	Hit_Miss	RT	pre_trial_fixcross_ISI
first_trigger_at: 11229
trigger nr 3 at 13229
33	Single	1	163	1	8	0	0	20299	684	0	correct_rejection	NA	7007
33	Single	2	164	2	6	0	0	21016	683	0	correct_rejection	NA	0
33	Single	3	165	3	7	0	0	21733	683	0	correct_rejection	NA	0
33	Single	4	166	4	5	0	0	22449	684	0	correct_rejection	NA	0
33	Single	5	167	5	0	1	1	23166	683	1	hit	374	0
33	Single	6	168	6	5	0	0	23882	684	0	correct_rejection	NA	0
33	Single	7	169	7	7	0	0	24599	683	0	correct_rejection	NA	0
33	Single	8	170	8	6	0	0	25316	683	0	correct_rejection	NA	0
33	Single	9	171	9	0	1	1	26032	684	1	hit	423	0
33	Single	10	172	10	8	0	0	26749	683	0	correct_rejection	NA	0
33	Single	11	173	11	7	0	0	27466	683	0	correct_rejection	NA	0
33	Single	12	174	12	7	0	0	28182	684	0	correct_rejection	NA	0
33	Single	13	175	13	8	0	0	28899	683	0	correct_rejection	NA	0
33	Single	14	176	14	8	0	0	29616	683	0	correct_rejection	NA	0
33	Single	15	177	15	4	0	0	30332	684	0	correct_rejection	NA	0
33	Single	16	178	16	7	0	0	31049	683	0	correct_rejection	NA	0
33	Single	17	179	17	0	1	1	31766	683	1	hit	367	0
33	Single	18	180	18	9	0	0	32482	684	0	correct_rejection	NA	0
33	Single	19	181	19	6	0	0	33199	683	0	correct_rejection	NA	0
33	Single	20	182	20	5	0	0	33916	683	0	correct_rejection	NA	0
33	Single	21	183	21	9	0	0	34632	684	0	correct_rejection	NA	0
33	Single	22	184	22	7	0	0	35349	683	0	correct_rejection	NA	0
33	Single	23	185	23	4	0	0	36066	683	0	correct_rejection	NA	0
33	Single	24	186	24	4	0	0	36782	684	0	correct_rejection	NA	0
33	Single	25	187	25	0	1	1	37499	683	1	hit	358	0
33	Single	26	188	26	6	0	0	38216	683	0	correct_rejection	NA	0
33	Single	27	189	27	9	0	0	38932	684	0	correct_rejection	NA	0
33	Single	28	190	28	9	0	0	39649	683	0	correct_rejection	NA	0
33	Single	29	191	29	5	0	0	40366	683	0	correct_rejection	NA	0
33	Single	30	192	30	6	0	0	41082	684	0	correct_rejection	NA	0
33	Single	31	193	31	6	0	0	41799	683	0	correct_rejection	NA	0
33	Single	32	194	32	0	1	1	42516	683	1	hit	386	0
33	Single	33	195	33	4	0	0	43232	684	0	correct_rejection	NA	0
33	Single	34	196	34	8	0	0	43949	683	0	correct_rejection	NA	0
33	Single	35	197	35	5	0	0	44666	683	0	correct_rejection	NA	0
33	Single	36	198	36	4	0	0	45382	684	0	correct_rejection	NA	0
33	Single	37	199	37	9	0	0	46099	683	0	correct_rejection	NA	0
33	Single	38	200	38	4	0	0	46815	684	0	correct_rejection	NA	0
33	Single	39	201	39	5	0	0	47532	684	0	correct_rejection	NA	0
33	Single	40	202	40	8	0	0	48249	683	0	correct_rejection	NA	0
33	Single	41	203	41	9	0	0	48965	684	0	correct_rejection	NA	0
33	Single	42	204	42	9	0	0	49682	683	0	correct_rejection	NA	0
33	Single	43	205	43	7	0	0	50399	683	0	correct_rejection	NA	0
33	Single	44	206	44	6	0	0	51115	684	0	correct_rejection	NA	0
33	Single	45	207	45	9	0	0	51832	683	0	correct_rejection	NA	0
33	Single	46	208	46	6	0	0	52549	683	0	correct_rejection	NA	0
33	Single	47	209	47	8	0	0	53265	684	0	correct_rejection	NA	0
33	Single	48	210	48	0	1	1	53982	683	1	hit	401	0
33	Single	49	211	49	4	0	0	54699	683	0	correct_rejection	NA	0
33	Single	50	212	50	8	0	0	55415	684	0	correct_rejection	NA	0
33	Single	51	213	51	8	0	0	56132	683	0	correct_rejection	NA	0
33	Single	52	214	52	0	1	1	56849	683	1	hit	422	0
33	Single	53	215	53	5	0	0	57565	684	0	correct_rejection	NA	0
33	Single	54	216	54	7	0	0	58282	683	0	correct_rejection	NA	0
33	Single	55	217	55	7	0	0	58999	683	0	correct_rejection	NA	0
33	Single	56	218	56	5	0	0	59715	684	0	correct_rejection	NA	0
33	Single	57	219	57	6	0	0	60432	683	0	correct_rejection	NA	0
33	Single	58	220	58	4	0	0	61149	683	0	correct_rejection	NA	0
33	Single	59	221	59	7	0	0	61865	684	0	correct_rejection	NA	0
33	Single	60	222	60	0	1	1	62582	683	1	hit	377	0
33	Single	61	223	61	4	0	0	63299	683	0	correct_rejection	NA	0
33	Single	62	224	62	6	0	0	64015	684	0	correct_rejection	NA	0
33	Single	63	225	63	5	0	0	64732	683	0	correct_rejection	NA	0
33	Single	64	226	64	5	0	0	65449	683	0	correct_rejection	NA	0
33	Single	65	227	65	8	0	0	66165	684	0	correct_rejection	NA	0
33	Single	66	228	66	0	1	1	66882	683	1	hit	455	0
33	Single	67	229	67	7	0	0	67599	683	0	correct_rejection	NA	0
33	Single	68	230	68	8	0	0	68315	684	0	correct_rejection	NA	0
33	Single	69	231	69	9	0	0	69032	683	0	correct_rejection	NA	0
33	Single	70	232	70	0	1	1	69749	683	1	hit	390	0
33	Single	71	233	71	4	0	0	70465	684	0	correct_rejection	NA	0
33	Single	72	234	72	9	0	0	71182	683	0	correct_rejection	NA	0
33	Single	73	235	73	5	0	0	71898	684	0	correct_rejection	NA	0
33	Single	74	236	74	4	0	0	72615	684	0	correct_rejection	NA	0
33	Single	75	237	75	4	0	0	73332	683	0	correct_rejection	NA	0
33	Single	76	238	76	5	0	0	74048	684	0	correct_rejection	NA	0
33	Single	77	239	77	0	1	1	74765	683	1	hit	396	0
33	Single	78	240	78	9	0	0	75482	683	0	correct_rejection	NA	0
33	Single	79	241	79	9	0	0	76198	684	0	correct_rejection	NA	0
33	Single	80	242	80	8	0	0	76915	683	0	correct_rejection	NA	0
33	Single	81	243	81	6	0	0	77632	683	0	correct_rejection	NA	0
33	Single	82	244	82	6	0	0	78348	684	0	correct_rejection	NA	0
33	Single	83	245	83	7	0	0	79065	683	0	correct_rejection	NA	0
33	Single	84	246	84	7	0	0	79782	683	0	correct_rejection	NA	0
33	Single	85	247	85	5	0	0	80498	684	0	correct_rejection	NA	0
33	Single	86	248	86	7	0	0	81215	683	0	correct_rejection	NA	0
33	Single	87	249	87	9	0	0	81932	683	0	correct_rejection	NA	0
33	Single	88	250	88	9	0	0	82648	684	0	correct_rejection	NA	0
33	Single	89	251	89	7	0	0	83365	683	0	correct_rejection	NA	0
33	Single	90	252	90	7	0	0	84082	683	0	correct_rejection	NA	0
33	Single	91	253	91	4	0	0	84798	684	0	correct_rejection	NA	0
33	Single	92	254	92	8	0	0	85515	683	0	correct_rejection	NA	0
33	Single	93	255	93	7	0	0	86232	683	0	correct_rejection	NA	0
33	Single	94	256	94	6	0	0	86948	684	0	correct_rejection	NA	0
33	Single	95	257	95	5	0	0	87665	683	0	correct_rejection	NA	0
33	Single	96	258	96	6	0	0	88382	683	0	correct_rejection	NA	0
33	Single	97	259	97	7	0	0	89098	684	0	correct_rejection	NA	0
33	Single	98	260	98	8	0	0	89815	683	0	correct_rejection	NA	0
33	Single	99	261	99	5	0	0	90532	683	0	correct_rejection	NA	0
33	Single	100	262	100	9	0	0	91248	684	0	correct_rejection	NA	0
33	Single	101	263	101	4	0	0	91965	683	0	correct_rejection	NA	0
33	Single	102	264	102	4	0	0	92682	683	0	correct_rejection	NA	0
33	Single	103	265	103	9	0	0	93398	684	0	correct_rejection	NA	0
33	Single	104	266	104	0	1	1	94115	683	1	hit	381	0
33	Single	105	267	105	8	0	0	94832	683	0	correct_rejection	NA	0
33	Single	106	268	106	9	0	0	95548	684	0	correct_rejection	NA	0
33	Single	107	269	107	6	0	0	96265	683	0	correct_rejection	NA	0
33	Single	108	270	108	9	0	0	96981	684	0	correct_rejection	NA	0
33	Single	109	271	109	0	1	1	97698	683	1	hit	366	0
33	Single	110	272	110	5	0	0	98415	683	0	correct_rejection	NA	0
33	Single	111	273	111	8	0	0	99131	684	0	correct_rejection	NA	0
33	Single	112	274	112	4	0	0	99848	683	0	correct_rejection	NA	0
33	Single	113	275	113	5	0	0	100565	683	0	correct_rejection	NA	0
33	Single	114	276	114	5	0	0	101281	684	0	correct_rejection	NA	0
33	Single	115	277	115	4	0	0	101998	683	0	correct_rejection	NA	0
33	Single	116	278	116	6	0	0	102715	683	0	correct_rejection	NA	0
33	Single	117	279	117	6	0	0	103431	684	0	correct_rejection	NA	0
33	Single	118	280	118	8	0	0	104148	683	0	correct_rejection	NA	0
33	Single	119	281	119	8	0	0	104865	683	0	correct_rejection	NA	0
33	Single	120	282	120	6	0	0	105581	684	0	correct_rejection	NA	0
33	Single	121	283	121	4	0	0	106298	683	0	correct_rejection	NA	0
33	Single	122	284	122	8	0	0	107015	683	0	correct_rejection	NA	0
33	Single	123	285	123	4	0	0	107731	684	0	correct_rejection	NA	0
33	Single	124	286	124	6	0	0	108448	683	0	correct_rejection	NA	0
33	Single	125	287	125	0	1	1	109165	683	1	hit	378	0
33	Single	126	288	126	9	0	0	109881	684	0	correct_rejection	NA	0
33	Single	127	289	127	8	0	0	110598	683	0	correct_rejection	NA	0
33	Single	128	290	128	8	0	0	111315	683	0	correct_rejection	NA	0
33	Single	129	291	129	0	1	1	112031	684	1	hit	421	0
33	Single	130	292	130	9	0	0	112748	683	0	correct_rejection	NA	0
33	Single	131	293	131	5	0	0	113465	683	0	correct_rejection	NA	0
33	Single	132	294	132	9	0	0	114181	684	0	correct_rejection	NA	0
33	Single	133	295	133	7	0	0	114898	683	0	correct_rejection	NA	0
33	Single	134	296	134	5	0	0	115615	683	0	correct_rejection	NA	0
33	Single	135	297	135	8	0	0	116331	684	0	correct_rejection	NA	0
33	Single	136	298	136	5	0	0	117048	683	0	correct_rejection	NA	0
33	Single	137	299	137	5	0	0	117765	683	0	correct_rejection	NA	0
33	Single	138	300	138	6	0	0	118481	684	0	correct_rejection	NA	0
33	Single	139	301	139	8	0	0	119198	683	0	correct_rejection	NA	0
33	Single	140	302	140	0	1	1	119915	683	1	hit	442	0
33	Single	141	303	141	6	0	0	120631	684	0	correct_rejection	NA	0
33	Single	142	304	142	7	0	0	121348	683	0	correct_rejection	NA	0
33	Single	143	305	143	9	0	0	122064	684	0	correct_rejection	NA	0
33	Single	144	306	144	6	0	0	122781	683	0	correct_rejection	NA	0
33	Single	145	307	145	0	1	1	123498	683	1	hit	381	0
33	Single	146	308	146	5	0	0	124214	684	0	correct_rejection	NA	0
33	Single	147	309	147	4	0	0	124931	683	0	correct_rejection	NA	0
33	Single	148	310	148	0	1	1	125648	683	1	hit	467	0
33	Single	149	311	149	5	0	0	126364	684	0	correct_rejection	NA	0
33	Single	150	312	150	7	0	0	127081	683	0	correct_rejection	NA	0
33	Single	151	313	151	8	0	0	127798	683	0	correct_rejection	NA	0
33	Single	152	314	152	7	0	0	128514	684	0	correct_rejection	NA	0
33	Single	153	315	153	4	0	0	129231	683	0	correct_rejection	NA	0
33	Single	154	316	154	4	0	0	129948	683	0	correct_rejection	NA	0
33	Single	155	317	155	7	0	0	130664	684	0	correct_rejection	NA	0
33	Single	156	318	156	7	0	0	131381	683	0	correct_rejection	NA	0
33	Single	157	319	157	6	0	0	132098	683	0	correct_rejection	NA	0
33	Single	158	320	158	6	0	0	132814	684	0	correct_rejection	NA	0
33	Single	159	321	159	4	0	0	133531	683	0	correct_rejection	NA	0
33	Single	160	322	160	9	0	0	134248	683	0	correct_rejection	NA	0
33	Single	161	323	161	9	0	0	134964	684	0	correct_rejection	NA	0
33	Single	162	324	162	4	0	0	135681	683	0	correct_rejection	NA	0
33	Triplet	1	487	163	6	0	0	145514	684	0	correct_rejection	NA	7227
33	Triplet	2	488	164	5	0	0	146231	683	0	correct_rejection	NA	0
33	Triplet	3	489	165	4	0	0	146947	684	0	correct_rejection	NA	0
33	Triplet	4	490	166	4	0	0	147664	683	0	correct_rejection	NA	0
33	Triplet	5	491	167	5	0	0	148381	683	0	correct_rejection	NA	0
33	Triplet	6	492	168	6	0	0	149097	684	0	correct_rejection	NA	0
33	Triplet	7	493	169	9	0	0	149814	683	0	correct_rejection	NA	0
33	Triplet	8	494	170	8	0	0	150531	683	0	correct_rejection	NA	0
33	Triplet	9	495	171	7	0	0	151247	684	0	correct_rejection	NA	0
33	Triplet	10	496	172	0	1	2	151964	683	1	hit	480	0
33	Triplet	11	497	173	4	0	0	152681	683	0	correct_rejection	NA	0
33	Triplet	12	498	174	5	0	0	153397	684	0	correct_rejection	NA	0
33	Triplet	13	499	175	0	1	1	154114	683	1	hit	498	0
33	Triplet	14	500	176	6	0	0	154831	683	0	correct_rejection	NA	0
33	Triplet	15	501	177	6	0	0	155547	684	0	correct_rejection	NA	0
33	Triplet	16	502	178	5	0	0	156264	683	0	correct_rejection	NA	0
33	Triplet	17	503	179	0	1	1	156981	683	1	hit	478	0
33	Triplet	18	504	180	4	0	0	157697	684	0	correct_rejection	NA	0
33	Triplet	19	505	181	6	0	0	158414	683	0	correct_rejection	NA	0
33	Triplet	20	506	182	5	0	0	159131	683	0	correct_rejection	NA	0
33	Triplet	21	507	183	4	0	0	159847	684	0	correct_rejection	NA	0
33	Triplet	22	508	184	7	0	0	160564	683	0	correct_rejection	NA	0
33	Triplet	23	509	185	0	1	1	161281	683	1	hit	380	0
33	Triplet	24	510	186	8	0	0	161997	684	0	correct_rejection	NA	0
33	Triplet	25	511	187	9	0	0	162714	683	0	correct_rejection	NA	0
33	Triplet	26	512	188	6	0	0	163431	683	0	correct_rejection	NA	0
33	Triplet	27	513	189	0	1	1	164147	684	1	hit	400	0
33	Triplet	28	514	190	5	0	0	164864	683	0	correct_rejection	NA	0
33	Triplet	29	515	191	4	0	0	165581	683	0	correct_rejection	NA	0
33	Triplet	30	516	192	9	0	0	166297	684	0	correct_rejection	NA	0
33	Triplet	31	517	193	0	1	1	167014	683	1	hit	397	0
33	Triplet	32	518	194	8	0	0	167731	683	0	correct_rejection	NA	0
33	Triplet	33	519	195	7	0	0	168447	684	0	correct_rejection	NA	0
33	Triplet	34	520	196	9	0	0	169164	683	0	correct_rejection	NA	0
33	Triplet	35	521	197	8	0	0	169880	684	0	correct_rejection	NA	0
33	Triplet	36	522	198	0	1	1	170597	683	1	hit	457	0
33	Triplet	37	523	199	7	0	0	171314	683	0	correct_rejection	NA	0
33	Triplet	38	524	200	7	0	0	172030	684	0	correct_rejection	NA	0
33	Triplet	39	525	201	8	0	0	172747	683	0	correct_rejection	NA	0
33	Triplet	40	526	202	9	0	0	173464	683	0	correct_rejection	NA	0
33	Triplet	41	527	203	0	1	2	174180	684	1	hit	409	0
33	Triplet	42	528	204	4	0	0	174897	683	0	correct_rejection	NA	0
33	Triplet	43	529	205	5	0	0	175614	683	0	correct_rejection	NA	0
33	Triplet	44	530	206	6	0	0	176330	684	0	correct_rejection	NA	0
33	Triplet	45	531	207	4	0	0	177047	683	0	correct_rejection	NA	0
33	Triplet	46	532	208	5	0	0	177764	683	0	correct_rejection	NA	0
33	Triplet	47	533	209	6	0	0	178480	684	0	correct_rejection	NA	0
33	Triplet	48	534	210	7	0	0	179197	683	0	correct_rejection	NA	0
33	Triplet	49	535	211	8	0	0	179914	683	0	correct_rejection	NA	0
33	Triplet	50	536	212	9	0	0	180630	684	0	correct_rejection	NA	0
33	Triplet	51	537	213	7	0	0	181347	683	0	correct_rejection	NA	0
33	Triplet	52	538	214	8	0	0	182064	683	0	correct_rejection	NA	0
33	Triplet	53	539	215	0	1	1	182780	684	1	hit	394	0
33	Triplet	54	540	216	9	0	0	183497	683	0	correct_rejection	NA	0
33	Triplet	55	541	217	9	0	0	184214	683	0	correct_rejection	NA	0
33	Triplet	56	542	218	8	0	0	184930	684	0	correct_rejection	NA	0
33	Triplet	57	543	219	7	0	0	185647	683	0	correct_rejection	NA	0
33	Triplet	58	544	220	4	0	0	186364	683	0	correct_rejection	NA	0
33	Triplet	59	545	221	5	0	0	187080	684	0	correct_rejection	NA	0
33	Triplet	60	546	222	0	1	1	187797	683	1	hit	419	0
33	Triplet	61	547	223	6	0	0	188514	683	0	correct_rejection	NA	0
33	Triplet	62	548	224	7	0	0	189230	684	0	correct_rejection	NA	0
33	Triplet	63	549	225	8	0	0	189947	683	0	correct_rejection	NA	0
33	Triplet	64	550	226	9	0	0	190664	683	0	correct_rejection	NA	0
33	Triplet	65	551	227	6	0	0	191380	684	0	correct_rejection	NA	0
33	Triplet	66	552	228	0	1	1	192097	683	1	hit	412	0
33	Triplet	67	553	229	5	0	0	192814	683	0	correct_rejection	NA	0
33	Triplet	68	554	230	4	0	0	193530	684	0	correct_rejection	NA	0
33	Triplet	69	555	231	6	0	0	194247	683	0	correct_rejection	NA	0
33	Triplet	70	556	232	5	0	0	194963	684	0	correct_rejection	NA	0
33	Triplet	71	557	233	4	0	0	195680	683	0	correct_rejection	NA	0
33	Triplet	72	558	234	4	0	0	196397	683	0	correct_rejection	NA	0
33	Triplet	73	559	235	5	0	0	197113	684	0	correct_rejection	NA	0
33	Triplet	74	560	236	6	0	0	197830	683	0	correct_rejection	NA	0
33	Triplet	75	561	237	4	0	0	198547	683	0	correct_rejection	NA	0
33	Triplet	76	562	238	5	0	0	199263	684	0	correct_rejection	NA	0
33	Triplet	77	563	239	6	0	0	199980	683	0	correct_rejection	NA	0
33	Triplet	78	564	240	0	1	2	200697	683	1	hit	397	0
33	Triplet	79	565	241	6	0	0	201413	684	0	correct_rejection	NA	0
33	Triplet	80	566	242	5	0	0	202130	683	0	correct_rejection	NA	0
33	Triplet	81	567	243	4	0	0	202847	683	0	correct_rejection	NA	0
33	Triplet	82	568	244	7	0	0	203563	684	0	correct_rejection	NA	0
33	Triplet	83	569	245	0	1	1	204280	683	1	hit	453	0
33	Triplet	84	570	246	8	0	0	204997	683	0	correct_rejection	NA	0
33	Triplet	85	571	247	9	0	0	205713	684	0	correct_rejection	NA	0
33	Triplet	86	572	248	0	1	2	206430	683	1	hit	492	0
33	Triplet	87	573	249	9	0	0	207147	683	0	correct_rejection	NA	0
33	Triplet	88	574	250	8	0	0	207863	684	0	correct_rejection	NA	0
33	Triplet	89	575	251	0	1	1	208580	683	1	hit	517	0
33	Triplet	90	576	252	7	0	0	209297	683	0	correct_rejection	NA	0
33	Triplet	91	577	253	4	0	0	210013	684	0	correct_rejection	NA	0
33	Triplet	92	578	254	5	0	0	210730	683	0	correct_rejection	NA	0
33	Triplet	93	579	255	6	0	0	211447	683	0	correct_rejection	NA	0
33	Triplet	94	580	256	9	0	0	212163	684	0	correct_rejection	NA	0
33	Triplet	95	581	257	8	0	0	212880	683	0	correct_rejection	NA	0
33	Triplet	96	582	258	7	0	0	213597	683	0	correct_rejection	NA	0
33	Triplet	97	583	259	9	0	0	214313	684	0	correct_rejection	NA	0
33	Triplet	98	584	260	8	0	0	215030	683	0	correct_rejection	NA	0
33	Triplet	99	585	261	0	1	1	215747	683	1	hit	442	0
33	Triplet	100	586	262	7	0	0	216463	684	0	correct_rejection	NA	0
33	Triplet	101	587	263	6	0	0	217180	683	0	correct_rejection	NA	0
33	Triplet	102	588	264	5	0	0	217896	684	0	correct_rejection	NA	0
33	Triplet	103	589	265	4	0	0	218613	683	0	correct_rejection	NA	0
33	Triplet	104	590	266	9	0	0	219330	683	0	correct_rejection	NA	0
33	Triplet	105	591	267	8	0	0	220046	684	0	correct_rejection	NA	0
33	Triplet	106	592	268	7	0	0	220763	683	0	correct_rejection	NA	0
33	Triplet	107	593	269	7	0	0	221480	683	0	correct_rejection	NA	0
33	Triplet	108	594	270	8	0	0	222196	684	0	correct_rejection	NA	0
33	Triplet	109	595	271	9	0	0	222913	683	0	correct_rejection	NA	0
33	Triplet	110	596	272	7	0	0	223630	683	0	correct_rejection	NA	0
33	Triplet	111	597	273	8	0	0	224346	684	0	correct_rejection	NA	0
33	Triplet	112	598	274	9	0	0	225063	683	0	correct_rejection	NA	0
33	Triplet	113	599	275	6	0	0	225780	683	0	correct_rejection	NA	0
33	Triplet	114	600	276	5	0	0	226496	684	0	correct_rejection	NA	0
33	Triplet	115	601	277	4	0	0	227213	683	0	correct_rejection	NA	0
33	Triplet	116	602	278	0	1	2	227930	683	1	hit	384	0
33	Triplet	117	603	279	9	0	0	228646	684	0	correct_rejection	NA	0
33	Triplet	118	604	280	8	0	0	229363	683	0	correct_rejection	NA	0
33	Triplet	119	605	281	7	0	0	230080	683	0	correct_rejection	NA	0
33	Triplet	120	606	282	6	0	0	230796	684	0	correct_rejection	NA	0
33	Triplet	121	607	283	5	0	0	231513	683	0	correct_rejection	NA	0
33	Triplet	122	608	284	4	0	0	232230	683	0	correct_rejection	NA	0
33	Triplet	123	609	285	7	0	0	232946	684	0	correct_rejection	NA	0
33	Triplet	124	610	286	8	0	0	233663	683	0	correct_rejection	NA	0
33	Triplet	125	611	287	9	0	0	234380	683	0	correct_rejection	NA	0
33	Triplet	126	612	288	7	0	0	235096	684	0	correct_rejection	NA	0
33	Triplet	127	613	289	8	0	0	235813	683	0	correct_rejection	NA	0
33	Triplet	128	614	290	9	0	0	236530	683	0	correct_rejection	NA	0
33	Triplet	129	615	291	4	0	0	237246	684	0	correct_rejection	NA	0
33	Triplet	130	616	292	5	0	0	237963	683	0	correct_rejection	NA	0
33	Triplet	131	617	293	6	0	0	238680	683	0	correct_rejection	NA	0
33	Triplet	132	618	294	6	0	0	239396	684	0	correct_rejection	NA	0
33	Triplet	133	619	295	5	0	0	240113	683	0	correct_rejection	NA	0
33	Triplet	134	620	296	4	0	0	240829	684	0	correct_rejection	NA	0
33	Triplet	135	621	297	4	0	0	241546	684	0	correct_rejection	NA	0
33	Triplet	136	622	298	5	0	0	242263	683	0	correct_rejection	NA	0
33	Triplet	137	623	299	6	0	0	242979	684	0	correct_rejection	NA	0
33	Triplet	138	624	300	7	0	0	243696	683	0	correct_rejection	NA	0
33	Triplet	139	625	301	8	0	0	244413	683	0	correct_rejection	NA	0
33	Triplet	140	626	302	9	0	0	245129	684	0	correct_rejection	NA	0
33	Triplet	141	627	303	9	0	0	245846	683	0	correct_rejection	NA	0
33	Triplet	142	628	304	8	0	0	246563	683	0	correct_rejection	NA	0
33	Triplet	143	629	305	7	0	0	247279	684	0	correct_rejection	NA	0
33	Triplet	144	630	306	0	1	2	247996	683	1	hit	376	0
33	Triplet	145	631	307	9	0	0	248713	683	0	correct_rejection	NA	0
33	Triplet	146	632	308	8	0	0	249429	684	0	correct_rejection	NA	0
33	Triplet	147	633	309	7	0	0	250146	683	0	correct_rejection	NA	0
33	Triplet	148	634	310	4	0	0	250863	683	0	correct_rejection	NA	0
33	Triplet	149	635	311	5	0	0	251579	684	0	correct_rejection	NA	0
33	Triplet	150	636	312	6	0	0	252296	683	0	correct_rejection	NA	0
33	Triplet	151	637	313	4	0	0	253013	683	0	correct_rejection	NA	0
33	Triplet	152	638	314	5	0	0	253729	684	0	correct_rejection	NA	0
33	Triplet	153	639	315	6	0	0	254446	683	0	correct_rejection	NA	0
33	Triplet	154	640	316	9	0	0	255163	683	0	correct_rejection	NA	0
33	Triplet	155	641	317	8	0	0	255879	684	0	correct_rejection	NA	0
33	Triplet	156	642	318	7	0	0	256596	683	0	correct_rejection	NA	0
33	Triplet	157	643	319	7	0	0	257313	683	0	correct_rejection	NA	0
33	Triplet	158	644	320	8	0	0	258029	684	0	correct_rejection	NA	0
33	Triplet	159	645	321	9	0	0	258746	683	0	correct_rejection	NA	0
33	Triplet	160	646	322	6	0	0	259463	683	0	correct_rejection	NA	0
33	Triplet	161	647	323	5	0	0	260179	684	0	correct_rejection	NA	0
33	Triplet	162	648	324	4	0	0	260896	683	0	correct_rejection	NA	0
33	Correct	1	649	325	4	0	0	271246	683	0	correct_rejection	NA	7956
33	Correct	2	650	326	5	0	0	271962	684	0	correct_rejection	NA	0
33	Correct	3	651	327	6	0	0	272679	683	0	correct_rejection	NA	0
33	Correct	4	652	328	4	0	0	273396	683	0	correct_rejection	NA	0
33	Correct	5	653	329	5	0	0	274112	684	0	correct_rejection	NA	0
33	Correct	6	654	330	6	0	0	274829	683	0	correct_rejection	NA	0
33	Correct	7	655	331	4	0	0	275546	683	0	correct_rejection	NA	0
33	Correct	8	656	332	5	0	0	276262	684	0	correct_rejection	NA	0
33	Correct	9	657	333	6	0	0	276979	683	0	correct_rejection	NA	0
33	Correct	10	658	334	6	0	0	277696	683	0	correct_rejection	NA	0
33	Correct	11	659	335	5	0	0	278412	684	0	correct_rejection	NA	0
33	Correct	12	660	336	4	0	0	279129	683	0	correct_rejection	NA	0
33	Correct	13	661	337	6	0	0	279846	683	0	correct_rejection	NA	0
33	Correct	14	662	338	5	0	0	280562	684	0	correct_rejection	NA	0
33	Correct	15	663	339	4	0	0	281279	683	0	correct_rejection	NA	0
33	Correct	16	664	340	6	0	0	281996	683	0	correct_rejection	NA	0
33	Correct	17	665	341	5	0	0	282712	684	0	correct_rejection	NA	0
33	Correct	18	666	342	4	0	0	283429	683	0	correct_rejection	NA	0
33	Correct	19	667	343	9	0	0	284146	683	0	correct_rejection	NA	0
33	Correct	20	668	344	8	0	0	284862	684	0	correct_rejection	NA	0
33	Correct	21	669	345	7	0	0	285579	683	0	correct_rejection	NA	0
33	Correct	22	670	346	0	1	2	286296	683	1	hit	385	0
33	Correct	23	671	347	9	0	0	287012	684	0	correct_rejection	NA	0
33	Correct	24	672	348	8	0	0	287729	683	0	correct_rejection	NA	0
33	Correct	25	673	349	7	0	0	288446	683	0	correct_rejection	NA	0
33	Correct	26	674	350	9	0	0	289162	684	0	correct_rejection	NA	0
33	Correct	27	675	351	8	0	0	289879	683	0	correct_rejection	NA	0
33	Correct	28	676	352	7	0	0	290595	684	0	correct_rejection	NA	0
33	Correct	29	677	353	7	0	0	291312	683	0	correct_rejection	NA	0
33	Correct	30	678	354	8	0	0	292029	683	0	correct_rejection	NA	0
33	Correct	31	679	355	9	0	0	292745	684	0	correct_rejection	NA	0
33	Correct	32	680	356	7	0	0	293462	683	0	correct_rejection	NA	0
33	Correct	33	681	357	8	0	0	294179	683	0	correct_rejection	NA	0
33	Correct	34	682	358	9	0	0	294895	684	0	correct_rejection	NA	0
33	Correct	35	683	359	0	1	2	295612	683	1	hit	479	0
33	Correct	36	684	360	7	0	0	296329	683	0	correct_rejection	NA	0
33	Correct	37	685	361	8	0	0	297045	684	0	correct_rejection	NA	0
33	Correct	38	686	362	9	0	0	297762	683	0	correct_rejection	NA	0
33	Correct	39	687	363	0	1	4	298479	683	1	hit	475	0
33	Correct	40	688	364	4	0	0	299195	684	0	correct_rejection	NA	0
33	Correct	41	689	365	5	0	0	299912	683	0	correct_rejection	NA	0
33	Correct	42	690	366	6	0	0	300629	683	0	correct_rejection	NA	0
33	Correct	43	691	367	4	0	0	301345	684	0	correct_rejection	NA	0
33	Correct	44	692	368	0	1	1	302062	683	1	hit	495	0
33	Correct	45	693	369	5	0	0	302779	683	0	correct_rejection	NA	0
33	Correct	46	694	370	6	0	0	303495	684	0	correct_rejection	NA	0
33	Correct	47	695	371	4	0	0	304212	683	0	correct_rejection	NA	0
33	Correct	48	696	372	5	0	0	304929	683	0	correct_rejection	NA	0
33	Correct	49	697	373	6	0	0	305645	684	0	correct_rejection	NA	0
33	Correct	50	698	374	6	0	0	306362	683	0	correct_rejection	NA	0
33	Correct	51	699	375	5	0	0	307079	683	0	correct_rejection	NA	0
33	Correct	52	700	376	4	0	0	307795	684	0	correct_rejection	NA	0
33	Correct	53	701	377	6	0	0	308512	683	0	correct_rejection	NA	0
33	Correct	54	702	378	5	0	0	309229	683	0	correct_rejection	NA	0
33	Correct	55	703	379	4	0	0	309945	684	0	correct_rejection	NA	0
33	Correct	56	704	380	6	0	0	310662	683	0	correct_rejection	NA	0
33	Correct	57	705	381	5	0	0	311379	683	0	correct_rejection	NA	0
33	Correct	58	706	382	0	1	1	312095	684	1	hit	518	0
33	Correct	59	707	383	4	0	0	312812	683	0	correct_rejection	NA	0
33	Correct	60	708	384	9	0	0	313528	684	0	correct_rejection	NA	0
33	Correct	61	709	385	8	0	0	314245	684	0	correct_rejection	NA	0
33	Correct	62	710	386	7	0	0	314962	683	0	correct_rejection	NA	0
33	Correct	63	711	387	9	0	0	315678	684	0	correct_rejection	NA	0
33	Correct	64	712	388	0	1	1	316395	683	1	hit	551	0
33	Correct	65	713	389	8	0	0	317112	683	0	correct_rejection	NA	0
33	Correct	66	714	390	7	0	0	317828	684	0	correct_rejection	NA	0
33	Correct	67	715	391	9	0	0	318545	683	0	correct_rejection	NA	0
33	Correct	68	716	392	8	0	0	319262	683	0	correct_rejection	NA	0
33	Correct	69	717	393	7	0	0	319978	684	0	correct_rejection	NA	0
33	Correct	70	718	394	7	0	0	320695	683	0	correct_rejection	NA	0
33	Correct	71	719	395	8	0	0	321412	683	0	correct_rejection	NA	0
33	Correct	72	720	396	9	0	0	322128	684	0	correct_rejection	NA	0
33	Correct	73	721	397	7	0	0	322845	683	0	correct_rejection	NA	0
33	Correct	74	722	398	8	0	0	323562	683	0	correct_rejection	NA	0
33	Correct	75	723	399	9	0	0	324278	684	0	correct_rejection	NA	0
33	Correct	76	724	400	7	0	0	324995	683	0	correct_rejection	NA	0
33	Correct	77	725	401	0	1	1	325712	683	1	hit	512	0
33	Correct	78	726	402	8	0	0	326428	684	0	correct_rejection	NA	0
33	Correct	79	727	403	9	0	0	327145	683	0	correct_rejection	NA	0
33	Correct	80	728	404	4	0	0	327862	683	0	correct_rejection	NA	0
33	Correct	81	729	405	5	0	0	328578	684	0	correct_rejection	NA	0
33	Correct	82	730	406	6	0	0	329295	683	0	correct_rejection	NA	0
33	Correct	83	731	407	4	0	0	330012	683	0	correct_rejection	NA	0
33	Correct	84	732	408	5	0	0	330728	684	0	correct_rejection	NA	0
33	Correct	85	733	409	6	0	0	331445	683	0	correct_rejection	NA	0
33	Correct	86	734	410	4	0	0	332162	683	0	correct_rejection	NA	0
33	Correct	87	735	411	5	0	0	332878	684	0	correct_rejection	NA	0
33	Correct	88	736	412	6	0	0	333595	683	0	correct_rejection	NA	0
33	Correct	89	737	413	6	0	0	334312	683	0	correct_rejection	NA	0
33	Correct	90	738	414	5	0	0	335028	684	0	correct_rejection	NA	0
33	Correct	91	739	415	4	0	0	335745	683	0	correct_rejection	NA	0
33	Correct	92	740	416	6	0	0	336462	683	0	correct_rejection	NA	0
33	Correct	93	741	417	0	1	1	337178	684	1	hit	415	0
33	Correct	94	742	418	5	0	0	337895	683	0	correct_rejection	NA	0
33	Correct	95	743	419	4	0	0	338611	684	0	correct_rejection	NA	0
33	Correct	96	744	420	6	0	0	339328	684	0	correct_rejection	NA	0
33	Correct	97	745	421	5	0	0	340045	683	0	correct_rejection	NA	0
33	Correct	98	746	422	4	0	0	340761	684	0	correct_rejection	NA	0
33	Correct	99	747	423	0	1	3	341478	683	1	hit	413	0
33	Correct	100	748	424	9	0	0	342195	683	0	correct_rejection	NA	0
33	Correct	101	749	425	8	0	0	342911	684	0	correct_rejection	NA	0
33	Correct	102	750	426	7	0	0	343628	683	0	correct_rejection	NA	0
33	Correct	103	751	427	9	0	0	344345	683	0	correct_rejection	NA	0
33	Correct	104	752	428	8	0	0	345061	684	0	correct_rejection	NA	0
33	Correct	105	753	429	7	0	0	345778	683	0	correct_rejection	NA	0
33	Correct	106	754	430	9	0	0	346495	683	0	correct_rejection	NA	0
33	Correct	107	755	431	8	0	0	347211	684	0	correct_rejection	NA	0
33	Correct	108	756	432	7	0	0	347928	683	0	correct_rejection	NA	0
33	Correct	109	757	433	0	1	3	348645	683	1	hit	466	0
33	Correct	110	758	434	7	0	0	349361	684	0	correct_rejection	NA	0
33	Correct	111	759	435	8	0	0	350078	683	0	correct_rejection	NA	0
33	Correct	112	760	436	9	0	0	350795	683	0	correct_rejection	NA	0
33	Correct	113	761	437	0	1	2	351511	684	1	hit	515	0
33	Correct	114	762	438	7	0	0	352228	683	0	correct_rejection	NA	0
33	Correct	115	763	439	8	0	0	352945	683	0	correct_rejection	NA	0
33	Correct	116	764	440	9	0	0	353661	684	0	correct_rejection	NA	0
33	Correct	117	765	441	7	0	0	354378	683	0	correct_rejection	NA	0
33	Correct	118	766	442	8	0	0	355095	683	0	correct_rejection	NA	0
33	Correct	119	767	443	9	0	0	355811	684	0	correct_rejection	NA	0
33	Correct	120	768	444	4	0	0	356528	683	0	correct_rejection	NA	0
33	Correct	121	769	445	0	1	1	357245	683	1	hit	451	0
33	Correct	122	770	446	5	0	0	357961	684	0	correct_rejection	NA	0
33	Correct	123	771	447	6	0	0	358678	683	0	correct_rejection	NA	0
33	Correct	124	772	448	4	0	0	359395	683	0	correct_rejection	NA	0
33	Correct	125	773	449	5	0	0	360111	684	0	correct_rejection	NA	0
33	Correct	126	774	450	0	1	1	360828	683	0	miss	NA	0
33	Correct	127	775	451	6	0	0	361544	684	0	correct_rejection	NA	0
33	Correct	128	776	452	4	0	0	362261	684	0	correct_rejection	NA	0
33	Correct	129	777	453	5	0	0	362978	683	0	correct_rejection	NA	0
33	Correct	130	778	454	6	0	0	363694	684	0	correct_rejection	NA	0
33	Correct	131	779	455	6	0	0	364411	683	0	correct_rejection	NA	0
33	Correct	132	780	456	5	0	0	365128	683	0	correct_rejection	NA	0
33	Correct	133	781	457	0	1	1	365844	684	1	hit	497	0
33	Correct	134	782	458	4	0	0	366561	683	0	correct_rejection	NA	0
33	Correct	135	783	459	6	0	0	367278	683	0	correct_rejection	NA	0
33	Correct	136	784	460	0	1	1	367994	684	0	miss	NA	0
33	Correct	137	785	461	5	0	0	368711	683	1	false_alarm	27	0
33	Correct	138	786	462	4	0	0	369428	683	0	correct_rejection	NA	0
33	Correct	139	787	463	6	0	0	370144	684	0	correct_rejection	NA	0
33	Correct	140	788	464	5	0	0	370861	683	0	correct_rejection	NA	0
33	Correct	141	789	465	4	0	0	371578	683	0	correct_rejection	NA	0
33	Correct	142	790	466	9	0	0	372294	684	0	correct_rejection	NA	0
33	Correct	143	791	467	8	0	0	373011	683	0	correct_rejection	NA	0
33	Correct	144	792	468	0	1	1	373728	683	1	hit	348	0
33	Correct	145	793	469	7	0	0	374444	684	0	correct_rejection	NA	0
33	Correct	146	794	470	9	0	0	375161	683	0	correct_rejection	NA	0
33	Correct	147	795	471	8	0	0	375878	683	0	correct_rejection	NA	0
33	Correct	148	796	472	7	0	0	376594	684	0	correct_rejection	NA	0
33	Correct	149	797	473	9	0	0	377311	683	0	correct_rejection	NA	0
33	Correct	150	798	474	8	0	0	378028	683	0	correct_rejection	NA	0
33	Correct	151	799	475	7	0	0	378744	684	0	correct_rejection	NA	0
33	Correct	152	800	476	7	0	0	379461	683	0	correct_rejection	NA	0
33	Correct	153	801	477	8	0	0	380178	683	0	correct_rejection	NA	0
33	Correct	154	802	478	9	0	0	380894	684	0	correct_rejection	NA	0
33	Correct	155	803	479	7	0	0	381611	683	0	correct_rejection	NA	0
33	Correct	156	804	480	8	0	0	382328	683	0	correct_rejection	NA	0
33	Correct	157	805	481	0	1	1	383044	684	1	hit	399	0
33	Correct	158	806	482	9	0	0	383761	683	0	correct_rejection	NA	0
33	Correct	159	807	483	7	0	0	384478	683	0	correct_rejection	NA	0
33	Correct	160	808	484	8	0	0	385194	684	0	correct_rejection	NA	0
33	Correct	161	809	485	0	1	1	385911	683	1	hit	377	0
33	Correct	162	810	486	9	0	0	386627	684	0	correct_rejection	NA	0
33	Nonet	1	163	487	4	0	0	396961	683	0	correct_rejection	NA	7666
33	Nonet	2	164	488	5	0	0	397677	684	0	correct_rejection	NA	0
33	Nonet	3	165	489	6	0	0	398394	683	0	correct_rejection	NA	0
33	Nonet	4	166	490	4	0	0	399111	683	0	correct_rejection	NA	0
33	Nonet	5	167	491	5	0	0	399827	684	0	correct_rejection	NA	0
33	Nonet	6	168	492	6	0	0	400544	683	0	correct_rejection	NA	0
33	Nonet	7	169	493	4	0	0	401261	683	0	correct_rejection	NA	0
33	Nonet	8	170	494	5	0	0	401977	684	0	correct_rejection	NA	0
33	Nonet	9	171	495	0	1	1	402694	683	1	hit	598	0
33	Nonet	10	172	496	6	0	0	403411	683	0	correct_rejection	NA	0
33	Nonet	11	173	497	4	0	0	404127	684	0	correct_rejection	NA	0
33	Nonet	12	174	498	5	0	0	404844	683	0	correct_rejection	NA	0
33	Nonet	13	175	499	6	0	0	405561	683	0	correct_rejection	NA	0
33	Nonet	14	176	500	4	0	0	406277	684	0	correct_rejection	NA	0
33	Nonet	15	177	501	5	0	0	406994	683	0	correct_rejection	NA	0
33	Nonet	16	178	502	6	0	0	407711	683	0	correct_rejection	NA	0
33	Nonet	17	179	503	4	0	0	408427	684	0	correct_rejection	NA	0
33	Nonet	18	180	504	5	0	0	409144	683	0	correct_rejection	NA	0
33	Nonet	19	181	505	6	0	0	409860	684	0	correct_rejection	NA	0
33	Nonet	20	182	506	7	0	0	410577	684	0	correct_rejection	NA	0
33	Nonet	21	183	507	8	0	0	411294	683	0	correct_rejection	NA	0
33	Nonet	22	184	508	9	0	0	412010	684	0	correct_rejection	NA	0
33	Nonet	23	185	509	7	0	0	412727	683	0	correct_rejection	NA	0
33	Nonet	24	186	510	8	0	0	413444	683	0	correct_rejection	NA	0
33	Nonet	25	187	511	9	0	0	414160	684	0	correct_rejection	NA	0
33	Nonet	26	188	512	7	0	0	414877	683	0	correct_rejection	NA	0
33	Nonet	27	189	513	0	1	1	415594	683	1	hit	648	0
33	Nonet	28	190	514	8	0	0	416310	684	0	correct_rejection	NA	0
33	Nonet	29	191	515	9	0	0	417027	683	0	correct_rejection	NA	0
33	Nonet	30	192	516	0	1	3	417744	683	1	hit	444	0
33	Nonet	31	193	517	7	0	0	418460	684	0	correct_rejection	NA	0
33	Nonet	32	194	518	8	0	0	419177	683	0	correct_rejection	NA	0
33	Nonet	33	195	519	9	0	0	419894	683	0	correct_rejection	NA	0
33	Nonet	34	196	520	7	0	0	420610	684	0	correct_rejection	NA	0
33	Nonet	35	197	521	0	1	1	421327	683	1	hit	367	0
33	Nonet	36	198	522	8	0	0	422044	683	0	correct_rejection	NA	0
33	Nonet	37	199	523	9	0	0	422760	684	0	correct_rejection	NA	0
33	Nonet	38	200	524	7	0	0	423477	683	0	correct_rejection	NA	0
33	Nonet	39	201	525	8	0	0	424194	683	0	correct_rejection	NA	0
33	Nonet	40	202	526	9	0	0	424910	684	0	correct_rejection	NA	0
33	Nonet	41	203	527	6	0	0	425627	683	0	correct_rejection	NA	0
33	Nonet	42	204	528	5	0	0	426344	683	0	correct_rejection	NA	0
33	Nonet	43	205	529	4	0	0	427060	684	0	correct_rejection	NA	0
33	Nonet	44	206	530	6	0	0	427777	683	0	correct_rejection	NA	0
33	Nonet	45	207	531	5	0	0	428494	683	0	correct_rejection	NA	0
33	Nonet	46	208	532	4	0	0	429210	684	0	correct_rejection	NA	0
33	Nonet	47	209	533	6	0	0	429927	683	0	correct_rejection	NA	0
33	Nonet	48	210	534	5	0	0	430644	683	0	correct_rejection	NA	0
33	Nonet	49	211	535	0	1	1	431360	684	1	hit	443	0
33	Nonet	50	212	536	4	0	0	432077	683	0	correct_rejection	NA	0
33	Nonet	51	213	537	6	0	0	432794	683	0	correct_rejection	NA	0
33	Nonet	52	214	538	5	0	0	433510	684	0	correct_rejection	NA	0
33	Nonet	53	215	539	4	0	0	434227	683	0	correct_rejection	NA	0
33	Nonet	54	216	540	6	0	0	434943	684	0	correct_rejection	NA	0
33	Nonet	55	217	541	0	1	1	435660	684	1	hit	520	0
33	Nonet	56	218	542	5	0	0	436377	683	0	correct_rejection	NA	0
33	Nonet	57	219	543	4	0	0	437093	684	0	correct_rejection	NA	0
33	Nonet	58	220	544	6	0	0	437810	683	0	correct_rejection	NA	0
33	Nonet	59	221	545	5	0	0	438527	683	0	correct_rejection	NA	0
33	Nonet	60	222	546	4	0	0	439243	684	0	correct_rejection	NA	0
33	Nonet	61	223	547	4	0	0	439960	683	0	correct_rejection	NA	0
33	Nonet	62	224	548	0	1	1	440677	683	1	hit	412	0
33	Nonet	63	225	549	5	0	0	441393	684	0	correct_rejection	NA	0
33	Nonet	64	226	550	6	0	0	442110	683	0	correct_rejection	NA	0
33	Nonet	65	227	551	4	0	0	442827	683	0	correct_rejection	NA	0
33	Nonet	66	228	552	5	0	0	443543	684	0	correct_rejection	NA	0
33	Nonet	67	229	553	6	0	0	444260	683	0	correct_rejection	NA	0
33	Nonet	68	230	554	4	0	0	444977	683	0	correct_rejection	NA	0
33	Nonet	69	231	555	5	0	0	445693	684	0	correct_rejection	NA	0
33	Nonet	70	232	556	6	0	0	446410	683	0	correct_rejection	NA	0
33	Nonet	71	233	557	6	0	0	447127	683	0	correct_rejection	NA	0
33	Nonet	72	234	558	5	0	0	447843	684	0	correct_rejection	NA	0
33	Nonet	73	235	559	4	0	0	448560	683	0	correct_rejection	NA	0
33	Nonet	74	236	560	6	0	0	449277	683	0	correct_rejection	NA	0
33	Nonet	75	237	561	0	1	1	449993	684	1	hit	398	0
33	Nonet	76	238	562	5	0	0	450710	683	0	correct_rejection	NA	0
33	Nonet	77	239	563	4	0	0	451427	683	0	correct_rejection	NA	0
33	Nonet	78	240	564	0	1	2	452143	684	1	hit	555	0
33	Nonet	79	241	565	6	0	0	452860	683	0	correct_rejection	NA	0
33	Nonet	80	242	566	5	0	0	453577	683	0	correct_rejection	NA	0
33	Nonet	81	243	567	4	0	0	454293	684	0	correct_rejection	NA	0
33	Nonet	82	244	568	9	0	0	455010	683	0	correct_rejection	NA	0
33	Nonet	83	245	569	0	1	1	455727	683	1	hit	533	0
33	Nonet	84	246	570	8	0	0	456443	684	0	correct_rejection	NA	0
33	Nonet	85	247	571	7	0	0	457160	683	0	correct_rejection	NA	0
33	Nonet	86	248	572	9	0	0	457877	683	0	correct_rejection	NA	0
33	Nonet	87	249	573	8	0	0	458593	684	0	correct_rejection	NA	0
33	Nonet	88	250	574	7	0	0	459310	683	0	correct_rejection	NA	0
33	Nonet	89	251	575	9	0	0	460026	684	0	correct_rejection	NA	0
33	Nonet	90	252	576	8	0	0	460743	683	0	correct_rejection	NA	0
33	Nonet	91	253	577	7	0	0	461460	683	0	correct_rejection	NA	0
33	Nonet	92	254	578	4	0	0	462176	684	0	correct_rejection	NA	0
33	Nonet	93	255	579	5	0	0	462893	683	0	correct_rejection	NA	0
33	Nonet	94	256	580	6	0	0	463610	683	0	correct_rejection	NA	0
33	Nonet	95	257	581	0	1	2	464326	684	1	hit	457	0
33	Nonet	96	258	582	4	0	0	465043	683	0	correct_rejection	NA	0
33	Nonet	97	259	583	5	0	0	465760	683	0	correct_rejection	NA	0
33	Nonet	98	260	584	6	0	0	466476	684	0	correct_rejection	NA	0
33	Nonet	99	261	585	4	0	0	467193	683	0	correct_rejection	NA	0
33	Nonet	100	262	586	0	1	1	467910	683	1	hit	409	0
33	Nonet	101	263	587	5	0	0	468626	684	0	correct_rejection	NA	0
33	Nonet	102	264	588	6	0	0	469343	683	0	correct_rejection	NA	0
33	Nonet	103	265	589	9	0	0	470060	683	0	correct_rejection	NA	0
33	Nonet	104	266	590	0	1	1	470776	684	1	hit	368	0
33	Nonet	105	267	591	8	0	0	471493	683	0	correct_rejection	NA	0
33	Nonet	106	268	592	7	0	0	472210	683	0	correct_rejection	NA	0
33	Nonet	107	269	593	9	0	0	472926	684	0	correct_rejection	NA	0
33	Nonet	108	270	594	0	1	1	473643	683	1	hit	517	0
33	Nonet	109	271	595	8	0	0	474360	683	0	correct_rejection	NA	0
33	Nonet	110	272	596	7	0	0	475076	684	0	correct_rejection	NA	0
33	Nonet	111	273	597	9	0	0	475793	683	0	correct_rejection	NA	0
33	Nonet	112	274	598	8	0	0	476510	683	0	correct_rejection	NA	0
33	Nonet	113	275	599	7	0	0	477226	684	0	correct_rejection	NA	0
33	Nonet	114	276	600	0	1	3	477943	683	1	hit	415	0
33	Nonet	115	277	601	7	0	0	478660	683	0	correct_rejection	NA	0
33	Nonet	116	278	602	8	0	0	479376	684	0	correct_rejection	NA	0
33	Nonet	117	279	603	9	0	0	480093	683	0	correct_rejection	NA	0
33	Nonet	118	280	604	7	0	0	480810	683	0	correct_rejection	NA	0
33	Nonet	119	281	605	8	0	0	481526	684	0	correct_rejection	NA	0
33	Nonet	120	282	606	9	0	0	482243	683	0	correct_rejection	NA	0
33	Nonet	121	283	607	7	0	0	482959	684	0	correct_rejection	NA	0
33	Nonet	122	284	608	8	0	0	483676	684	0	correct_rejection	NA	0
33	Nonet	123	285	609	9	0	0	484393	683	0	correct_rejection	NA	0
33	Nonet	124	286	610	9	0	0	485109	684	0	correct_rejection	NA	0
33	Nonet	125	287	611	8	0	0	485826	683	0	correct_rejection	NA	0
33	Nonet	126	288	612	7	0	0	486543	683	0	correct_rejection	NA	0
33	Nonet	127	289	613	9	0	0	487259	684	0	correct_rejection	NA	0
33	Nonet	128	290	614	8	0	0	487976	683	0	correct_rejection	NA	0
33	Nonet	129	291	615	7	0	0	488693	683	0	correct_rejection	NA	0
33	Nonet	130	292	616	9	0	0	489409	684	0	correct_rejection	NA	0
33	Nonet	131	293	617	8	0	0	490126	683	0	correct_rejection	NA	0
33	Nonet	132	294	618	7	0	0	490843	683	0	correct_rejection	NA	0
33	Nonet	133	295	619	0	1	3	491559	684	1	hit	356	0
33	Nonet	134	296	620	9	0	0	492276	683	0	correct_rejection	NA	0
33	Nonet	135	297	621	8	0	0	492993	683	0	correct_rejection	NA	0
33	Nonet	136	298	622	7	0	0	493709	684	0	correct_rejection	NA	0
33	Nonet	137	299	623	9	0	0	494426	683	0	correct_rejection	NA	0
33	Nonet	138	300	624	8	0	0	495143	683	0	correct_rejection	NA	0
33	Nonet	139	301	625	7	0	0	495859	684	0	correct_rejection	NA	0
33	Nonet	140	302	626	9	0	0	496576	683	0	correct_rejection	NA	0
33	Nonet	141	303	627	8	0	0	497293	683	0	correct_rejection	NA	0
33	Nonet	142	304	628	7	0	0	498009	684	0	correct_rejection	NA	0
33	Nonet	143	305	629	6	0	0	498726	683	0	correct_rejection	NA	0
33	Nonet	144	306	630	5	0	0	499443	683	0	correct_rejection	NA	0
33	Nonet	145	307	631	4	0	0	500159	684	0	correct_rejection	NA	0
33	Nonet	146	308	632	0	1	2	500876	683	1	hit	428	0
33	Nonet	147	309	633	6	0	0	501593	683	0	correct_rejection	NA	0
33	Nonet	148	310	634	5	0	0	502309	684	0	correct_rejection	NA	0
33	Nonet	149	311	635	4	0	0	503026	683	0	correct_rejection	NA	0
33	Nonet	150	312	636	6	0	0	503743	683	0	correct_rejection	NA	0
33	Nonet	151	313	637	5	0	0	504459	684	0	correct_rejection	NA	0
33	Nonet	152	314	638	4	0	0	505176	683	0	correct_rejection	NA	0
33	Nonet	153	315	639	7	0	0	505893	683	0	correct_rejection	NA	0
33	Nonet	154	316	640	8	0	0	506609	684	0	correct_rejection	NA	0
33	Nonet	155	317	641	0	1	1	507326	683	1	hit	495	0
33	Nonet	156	318	642	9	0	0	508042	684	0	correct_rejection	NA	0
33	Nonet	157	319	643	7	0	0	508759	683	0	correct_rejection	NA	0
33	Nonet	158	320	644	8	0	0	509476	683	0	correct_rejection	NA	0
33	Nonet	159	321	645	9	0	0	510192	684	0	correct_rejection	NA	0
33	Nonet	160	322	646	7	0	0	510909	683	0	correct_rejection	NA	0
33	Nonet	161	323	647	8	0	0	511626	683	0	correct_rejection	NA	0
33	Nonet	162	324	648	9	0	0	512342	684	0	correct_rejection	NA	0
33	Triplet	1	649	649	4	0	0	522009	683	0	correct_rejection	NA	7727
33	Triplet	2	650	650	5	0	0	522726	683	0	correct_rejection	NA	0
33	Triplet	3	651	651	6	0	0	523442	684	0	correct_rejection	NA	0
33	Triplet	4	652	652	6	0	0	524159	683	0	correct_rejection	NA	0
33	Triplet	5	653	653	5	0	0	524876	683	0	correct_rejection	NA	0
33	Triplet	6	654	654	4	0	0	525592	684	0	correct_rejection	NA	0
33	Triplet	7	655	655	4	0	0	526309	683	0	correct_rejection	NA	0
33	Triplet	8	656	656	5	0	0	527026	683	0	correct_rejection	NA	0
33	Triplet	9	657	657	6	0	0	527742	684	0	correct_rejection	NA	0
33	Triplet	10	658	658	9	0	0	528459	683	0	correct_rejection	NA	0
33	Triplet	11	659	659	0	1	1	529176	683	1	hit	393	0
33	Triplet	12	660	660	8	0	0	529892	684	0	correct_rejection	NA	0
33	Triplet	13	661	661	7	0	0	530609	683	0	correct_rejection	NA	0
33	Triplet	14	662	662	6	0	0	531325	684	0	correct_rejection	NA	0
33	Triplet	15	663	663	0	1	1	532042	684	1	hit	422	0
33	Triplet	16	664	664	5	0	0	532759	683	0	correct_rejection	NA	0
33	Triplet	17	665	665	4	0	0	533475	684	0	correct_rejection	NA	0
33	Triplet	18	666	666	6	0	0	534192	683	0	correct_rejection	NA	0
33	Triplet	19	667	667	5	0	0	534909	683	0	correct_rejection	NA	0
33	Triplet	20	668	668	4	0	0	535625	684	0	correct_rejection	NA	0
33	Triplet	21	669	669	7	0	0	536342	683	0	correct_rejection	NA	0
33	Triplet	22	670	670	8	0	0	537059	683	0	correct_rejection	NA	0
33	Triplet	23	671	671	9	0	0	537775	684	0	correct_rejection	NA	0
33	Triplet	24	672	672	6	0	0	538492	683	0	correct_rejection	NA	0
33	Triplet	25	673	673	0	1	1	539209	683	1	hit	442	0
33	Triplet	26	674	674	5	0	0	539925	684	0	correct_rejection	NA	0
33	Triplet	27	675	675	4	0	0	540642	683	0	correct_rejection	NA	0
33	Triplet	28	676	676	9	0	0	541359	683	0	correct_rejection	NA	0
33	Triplet	29	677	677	8	0	0	542075	684	0	correct_rejection	NA	0
33	Triplet	30	678	678	7	0	0	542792	683	0	correct_rejection	NA	0
33	Triplet	31	679	679	7	0	0	543509	683	0	correct_rejection	NA	0
33	Triplet	32	680	680	8	0	0	544225	684	0	correct_rejection	NA	0
33	Triplet	33	681	681	9	0	0	544942	683	0	correct_rejection	NA	0
33	Triplet	34	682	682	4	0	0	545659	683	0	correct_rejection	NA	0
33	Triplet	35	683	683	5	0	0	546375	684	0	correct_rejection	NA	0
33	Triplet	36	684	684	6	0	0	547092	683	0	correct_rejection	NA	0
33	Triplet	37	685	685	4	0	0	547809	683	0	correct_rejection	NA	0
33	Triplet	38	686	686	5	0	0	548525	684	0	correct_rejection	NA	0
33	Triplet	39	687	687	0	1	1	549242	683	1	hit	388	0
33	Triplet	40	688	688	6	0	0	549959	683	0	correct_rejection	NA	0
33	Triplet	41	689	689	7	0	0	550675	684	0	correct_rejection	NA	0
33	Triplet	42	690	690	8	0	0	551392	683	0	correct_rejection	NA	0
33	Triplet	43	691	691	9	0	0	552109	683	0	correct_rejection	NA	0
33	Triplet	44	692	692	7	0	0	552825	684	0	correct_rejection	NA	0
33	Triplet	45	693	693	8	0	0	553542	683	0	correct_rejection	NA	0
33	Triplet	46	694	694	9	0	0	554259	683	0	correct_rejection	NA	0
33	Triplet	47	695	695	9	0	0	554975	684	0	correct_rejection	NA	0
33	Triplet	48	696	696	8	0	0	555692	683	0	correct_rejection	NA	0
33	Triplet	49	697	697	0	1	1	556408	684	1	hit	539	0
33	Triplet	50	698	698	7	0	0	557125	683	0	correct_rejection	NA	0
33	Triplet	51	699	699	9	0	0	557842	683	0	correct_rejection	NA	0
33	Triplet	52	700	700	8	0	0	558558	684	0	correct_rejection	NA	0
33	Triplet	53	701	701	7	0	0	559275	683	0	correct_rejection	NA	0
33	Triplet	54	702	702	7	0	0	559992	683	0	correct_rejection	NA	0
33	Triplet	55	703	703	0	1	1	560708	684	1	hit	470	0
33	Triplet	56	704	704	8	0	0	561425	683	0	correct_rejection	NA	0
33	Triplet	57	705	705	9	0	0	562142	683	0	correct_rejection	NA	0
33	Triplet	58	706	706	7	0	0	562858	684	0	correct_rejection	NA	0
33	Triplet	59	707	707	8	0	0	563575	683	0	correct_rejection	NA	0
33	Triplet	60	708	708	0	1	1	564292	683	1	hit	377	0
33	Triplet	61	709	709	9	0	0	565008	684	0	correct_rejection	NA	0
33	Triplet	62	710	710	6	0	0	565725	683	0	correct_rejection	NA	0
33	Triplet	63	711	711	5	0	0	566442	683	0	correct_rejection	NA	0
33	Triplet	64	712	712	4	0	0	567158	684	0	correct_rejection	NA	0
33	Triplet	65	713	713	6	0	0	567875	683	0	correct_rejection	NA	0
33	Triplet	66	714	714	5	0	0	568592	683	0	correct_rejection	NA	0
33	Triplet	67	715	715	4	0	0	569308	684	0	correct_rejection	NA	0
33	Triplet	68	716	716	0	1	2	570025	683	1	hit	469	0
33	Triplet	69	717	717	4	0	0	570742	683	0	correct_rejection	NA	0
33	Triplet	70	718	718	5	0	0	571458	684	0	correct_rejection	NA	0
33	Triplet	71	719	719	6	0	0	572175	683	0	correct_rejection	NA	0
33	Triplet	72	720	720	4	0	0	572892	683	0	correct_rejection	NA	0
33	Triplet	73	721	721	5	0	0	573608	684	0	correct_rejection	NA	0
33	Triplet	74	722	722	6	0	0	574325	683	0	correct_rejection	NA	0
33	Triplet	75	723	723	6	0	0	575042	683	0	correct_rejection	NA	0
33	Triplet	76	724	724	5	0	0	575758	684	0	correct_rejection	NA	0
33	Triplet	77	725	725	0	1	1	576475	683	1	hit	389	0
33	Triplet	78	726	726	4	0	0	577192	683	0	correct_rejection	NA	0
33	Triplet	79	727	727	7	0	0	577908	684	0	correct_rejection	NA	0
33	Triplet	80	728	728	8	0	0	578625	683	0	correct_rejection	NA	0
33	Triplet	81	729	729	9	0	0	579341	684	0	correct_rejection	NA	0
33	Triplet	82	730	730	4	0	0	580058	684	0	correct_rejection	NA	0
33	Triplet	83	731	731	5	0	0	580775	683	0	correct_rejection	NA	0
33	Triplet	84	732	732	6	0	0	581491	684	0	correct_rejection	NA	0
33	Triplet	85	733	733	9	0	0	582208	683	0	correct_rejection	NA	0
33	Triplet	86	734	734	8	0	0	582925	683	0	correct_rejection	NA	0
33	Triplet	87	735	735	7	0	0	583641	684	0	correct_rejection	NA	0
33	Triplet	88	736	736	9	0	0	584358	683	0	correct_rejection	NA	0
33	Triplet	89	737	737	8	0	0	585075	683	0	correct_rejection	NA	0
33	Triplet	90	738	738	7	0	0	585791	684	0	correct_rejection	NA	0
33	Triplet	91	739	739	7	0	0	586508	683	0	correct_rejection	NA	0
33	Triplet	92	740	740	8	0	0	587225	683	0	correct_rejection	NA	0
33	Triplet	93	741	741	9	0	0	587941	684	0	correct_rejection	NA	0
33	Triplet	94	742	742	9	0	0	588658	683	0	correct_rejection	NA	0
33	Triplet	95	743	743	8	0	0	589375	683	0	correct_rejection	NA	0
33	Triplet	96	744	744	7	0	0	590091	684	0	correct_rejection	NA	0
33	Triplet	97	745	745	6	0	0	590808	683	0	correct_rejection	NA	0
33	Triplet	98	746	746	5	0	0	591525	683	0	correct_rejection	NA	0
33	Triplet	99	747	747	4	0	0	592241	684	0	correct_rejection	NA	0
33	Triplet	100	748	748	9	0	0	592958	683	0	correct_rejection	NA	0
33	Triplet	101	749	749	8	0	0	593675	683	0	correct_rejection	NA	0
33	Triplet	102	750	750	0	1	1	594391	684	1	hit	408	0
33	Triplet	103	751	751	7	0	0	595108	683	0	correct_rejection	NA	0
33	Triplet	104	752	752	4	0	0	595825	683	0	correct_rejection	NA	0
33	Triplet	105	753	753	5	0	0	596541	684	0	correct_rejection	NA	0
33	Triplet	106	754	754	6	0	0	597258	683	0	correct_rejection	NA	0
33	Triplet	107	755	755	7	0	0	597975	683	0	correct_rejection	NA	0
33	Triplet	108	756	756	8	0	0	598691	684	0	correct_rejection	NA	0
33	Triplet	109	757	757	9	0	0	599408	683	0	correct_rejection	NA	0
33	Triplet	110	758	758	0	1	2	600125	683	1	hit	426	0
33	Triplet	111	759	759	9	0	0	600841	684	0	correct_rejection	NA	0
33	Triplet	112	760	760	8	0	0	601558	683	0	correct_rejection	NA	0
33	Triplet	113	761	761	7	0	0	602275	683	0	correct_rejection	NA	0
33	Triplet	114	762	762	4	0	0	602991	684	0	correct_rejection	NA	0
33	Triplet	115	763	763	5	0	0	603708	683	0	correct_rejection	NA	0
33	Triplet	116	764	764	6	0	0	604424	684	0	correct_rejection	NA	0
33	Triplet	117	765	765	0	1	2	605141	683	1	hit	575	0
33	Triplet	118	766	766	4	0	0	605858	683	0	correct_rejection	NA	0
33	Triplet	119	767	767	5	0	0	606574	684	0	correct_rejection	NA	0
33	Triplet	120	768	768	6	0	0	607291	683	0	correct_rejection	NA	0
33	Triplet	121	769	769	9	0	0	608008	683	0	correct_rejection	NA	0
33	Triplet	122	770	770	8	0	0	608724	684	0	correct_rejection	NA	0
33	Triplet	123	771	771	0	1	1	609441	683	1	hit	567	0
33	Triplet	124	772	772	7	0	0	610158	683	0	correct_rejection	NA	0
33	Triplet	125	773	773	7	0	0	610874	684	0	correct_rejection	NA	0
33	Triplet	126	774	774	8	0	0	611591	683	0	correct_rejection	NA	0
33	Triplet	127	775	775	9	0	0	612308	683	0	correct_rejection	NA	0
33	Triplet	128	776	776	0	1	2	613024	684	1	hit	400	0
33	Triplet	129	777	777	6	0	0	613741	683	0	correct_rejection	NA	0
33	Triplet	130	778	778	5	0	0	614458	683	0	correct_rejection	NA	0
33	Triplet	131	779	779	4	0	0	615174	684	0	correct_rejection	NA	0
33	Triplet	132	780	780	7	0	0	615891	683	0	correct_rejection	NA	0
33	Triplet	133	781	781	8	0	0	616608	683	0	correct_rejection	NA	0
33	Triplet	134	782	782	9	0	0	617324	684	0	correct_rejection	NA	0
33	Triplet	135	783	783	7	0	0	618041	683	0	correct_rejection	NA	0
33	Triplet	136	784	784	8	0	0	618758	683	0	correct_rejection	NA	0
33	Triplet	137	785	785	9	0	0	619474	684	0	correct_rejection	NA	0
33	Triplet	138	786	786	4	0	0	620191	683	0	correct_rejection	NA	0
33	Triplet	139	787	787	0	1	1	620908	683	1	hit	399	0
33	Triplet	140	788	788	5	0	0	621624	684	0	correct_rejection	NA	0
33	Triplet	141	789	789	6	0	0	622341	683	0	correct_rejection	NA	0
33	Triplet	142	790	790	0	1	2	623058	683	1	hit	456	0
33	Triplet	143	791	791	6	0	0	623774	684	0	correct_rejection	NA	0
33	Triplet	144	792	792	5	0	0	624491	683	0	correct_rejection	NA	0
33	Triplet	145	793	793	4	0	0	625208	683	0	correct_rejection	NA	0
33	Triplet	146	794	794	6	0	0	625924	684	0	correct_rejection	NA	0
33	Triplet	147	795	795	5	0	0	626641	683	0	correct_rejection	NA	0
33	Triplet	148	796	796	4	0	0	627357	684	0	correct_rejection	NA	0
33	Triplet	149	797	797	0	1	2	628074	684	1	hit	394	0
33	Triplet	150	798	798	9	0	0	628791	683	0	correct_rejection	NA	0
33	Triplet	151	799	799	8	0	0	629507	684	0	correct_rejection	NA	0
33	Triplet	152	800	800	7	0	0	630224	683	0	correct_rejection	NA	0
33	Triplet	153	801	801	0	1	2	630941	683	1	hit	431	0
33	Triplet	154	802	802	9	0	0	631657	684	0	correct_rejection	NA	0
33	Triplet	155	803	803	8	0	0	632374	683	0	correct_rejection	NA	0
33	Triplet	156	804	804	7	0	0	633091	683	0	correct_rejection	NA	0
33	Triplet	157	805	805	6	0	0	633807	684	0	correct_rejection	NA	0
33	Triplet	158	806	806	5	0	0	634524	683	0	correct_rejection	NA	0
33	Triplet	159	807	807	4	0	0	635241	683	0	correct_rejection	NA	0
33	Triplet	160	808	808	4	0	0	635957	684	0	correct_rejection	NA	0
33	Triplet	161	809	809	5	0	0	636674	683	0	correct_rejection	NA	0
33	Triplet	162	810	810	6	0	0	637391	683	0	correct_rejection	NA	0
trigger nr 629 at 639215
trigger nr 632 at 711308
33	Nonet	1	649	811	6	0	0	719206	684	0	correct_rejection	NA	7817
33	Nonet	2	650	812	5	0	0	719923	683	0	correct_rejection	NA	0
33	Nonet	3	651	813	4	0	0	720640	683	0	correct_rejection	NA	0
33	Nonet	4	652	814	6	0	0	721356	684	0	correct_rejection	NA	0
33	Nonet	5	653	815	5	0	0	722073	683	0	correct_rejection	NA	0
33	Nonet	6	654	816	4	0	0	722790	683	0	correct_rejection	NA	0
33	Nonet	7	655	817	6	0	0	723506	684	0	correct_rejection	NA	0
33	Nonet	8	656	818	5	0	0	724223	683	0	correct_rejection	NA	0
33	Nonet	9	657	819	4	0	0	724939	684	0	correct_rejection	NA	0
33	Nonet	10	658	820	9	0	0	725656	683	0	correct_rejection	NA	0
33	Nonet	11	659	821	8	0	0	726373	683	0	correct_rejection	NA	0
33	Nonet	12	660	822	7	0	0	727089	684	0	correct_rejection	NA	0
33	Nonet	13	661	823	9	0	0	727806	683	0	correct_rejection	NA	0
33	Nonet	14	662	824	8	0	0	728523	683	0	correct_rejection	NA	0
33	Nonet	15	663	825	7	0	0	729239	684	0	correct_rejection	NA	0
33	Nonet	16	664	826	0	1	2	729956	683	1	hit	361	0
33	Nonet	17	665	827	9	0	0	730673	683	0	correct_rejection	NA	0
33	Nonet	18	666	828	8	0	0	731389	684	0	correct_rejection	NA	0
33	Nonet	19	667	829	7	0	0	732106	683	0	correct_rejection	NA	0
33	Nonet	20	668	830	0	1	3	732823	683	1	hit	463	0
33	Nonet	21	669	831	4	0	0	733539	684	0	correct_rejection	NA	0
33	Nonet	22	670	832	5	0	0	734256	683	0	correct_rejection	NA	0
33	Nonet	23	671	833	0	1	1	734973	683	1	hit	426	0
33	Nonet	24	672	834	6	0	0	735689	684	0	correct_rejection	NA	0
33	Nonet	25	673	835	4	0	0	736406	683	0	correct_rejection	NA	0
33	Nonet	26	674	836	5	0	0	737123	683	0	correct_rejection	NA	0
33	Nonet	27	675	837	6	0	0	737839	684	0	correct_rejection	NA	0
33	Nonet	28	676	838	4	0	0	738556	683	0	correct_rejection	NA	0
33	Nonet	29	677	839	5	0	0	739273	683	0	correct_rejection	NA	0
33	Nonet	30	678	840	0	1	1	739989	684	1	hit	392	0
33	Nonet	31	679	841	6	0	0	740706	683	0	correct_rejection	NA	0
33	Nonet	32	680	842	4	0	0	741423	683	0	correct_rejection	NA	0
33	Nonet	33	681	843	5	0	0	742139	684	0	correct_rejection	NA	0
33	Nonet	34	682	844	6	0	0	742856	683	0	correct_rejection	NA	0
33	Nonet	35	683	845	4	0	0	743573	683	0	correct_rejection	NA	0
33	Nonet	36	684	846	5	0	0	744289	684	0	correct_rejection	NA	0
33	Nonet	37	685	847	6	0	0	745006	683	0	correct_rejection	NA	0
33	Nonet	38	686	848	4	0	0	745723	683	0	correct_rejection	NA	0
33	Nonet	39	687	849	5	0	0	746439	684	0	correct_rejection	NA	0
33	Nonet	40	688	850	6	0	0	747156	683	0	correct_rejection	NA	0
33	Nonet	41	689	851	6	0	0	747872	684	0	correct_rejection	NA	0
33	Nonet	42	690	852	5	0	0	748589	684	0	correct_rejection	NA	0
33	Nonet	43	691	853	4	0	0	749306	683	0	correct_rejection	NA	0
33	Nonet	44	692	854	6	0	0	750022	684	0	correct_rejection	NA	0
33	Nonet	45	693	855	5	0	0	750739	683	0	correct_rejection	NA	0
33	Nonet	46	694	856	4	0	0	751456	683	0	correct_rejection	NA	0
33	Nonet	47	695	857	6	0	0	752172	684	0	correct_rejection	NA	0
33	Nonet	48	696	858	5	0	0	752889	683	0	correct_rejection	NA	0
33	Nonet	49	697	859	0	1	1	753606	683	1	hit	501	0
33	Nonet	50	698	860	4	0	0	754322	684	0	correct_rejection	NA	0
33	Nonet	51	699	861	6	0	0	755039	683	0	correct_rejection	NA	0
33	Nonet	52	700	862	5	0	0	755756	683	0	correct_rejection	NA	0
33	Nonet	53	701	863	4	0	0	756472	684	0	correct_rejection	NA	0
33	Nonet	54	702	864	6	0	0	757189	683	0	correct_rejection	NA	0
33	Nonet	55	703	865	0	1	1	757906	683	1	hit	397	0
33	Nonet	56	704	866	5	0	0	758622	684	0	correct_rejection	NA	0
33	Nonet	57	705	867	4	0	0	759339	683	0	correct_rejection	NA	0
33	Nonet	58	706	868	0	1	2	760056	683	1	hit	450	0
33	Nonet	59	707	869	6	0	0	760772	684	0	correct_rejection	NA	0
33	Nonet	60	708	870	5	0	0	761489	683	0	correct_rejection	NA	0
33	Nonet	61	709	871	4	0	0	762206	683	0	correct_rejection	NA	0
33	Nonet	62	710	872	4	0	0	762922	684	0	correct_rejection	NA	0
33	Nonet	63	711	873	5	0	0	763639	683	0	correct_rejection	NA	0
33	Nonet	64	712	874	6	0	0	764356	683	0	correct_rejection	NA	0
33	Nonet	65	713	875	4	0	0	765072	684	0	correct_rejection	NA	0
33	Nonet	66	714	876	5	0	0	765789	683	0	correct_rejection	NA	0
33	Nonet	67	715	877	6	0	0	766506	683	0	correct_rejection	NA	0
33	Nonet	68	716	878	4	0	0	767222	684	0	correct_rejection	NA	0
33	Nonet	69	717	879	5	0	0	767939	683	0	correct_rejection	NA	0
33	Nonet	70	718	880	6	0	0	768656	683	0	correct_rejection	NA	0
33	Nonet	71	719	881	7	0	0	769372	684	0	correct_rejection	NA	0
33	Nonet	72	720	882	8	0	0	770089	683	0	correct_rejection	NA	0
33	Nonet	73	721	883	9	0	0	770806	683	0	correct_rejection	NA	0
33	Nonet	74	722	884	0	1	2	771522	684	1	hit	382	0
33	Nonet	75	723	885	7	0	0	772239	683	0	correct_rejection	NA	0
33	Nonet	76	724	886	8	0	0	772955	684	0	correct_rejection	NA	0
33	Nonet	77	725	887	0	1	1	773672	684	1	hit	654	0
33	Nonet	78	726	888	9	0	0	774389	683	0	correct_rejection	NA	0
33	Nonet	79	727	889	7	0	0	775105	684	0	correct_rejection	NA	0
33	Nonet	80	728	890	8	0	0	775822	683	0	correct_rejection	NA	0
33	Nonet	81	729	891	9	0	0	776539	683	0	correct_rejection	NA	0
33	Nonet	82	730	892	6	0	0	777255	684	0	correct_rejection	NA	0
33	Nonet	83	731	893	5	0	0	777972	683	0	correct_rejection	NA	0
33	Nonet	84	732	894	4	0	0	778689	683	0	correct_rejection	NA	0
33	Nonet	85	733	895	6	0	0	779405	684	0	correct_rejection	NA	0
33	Nonet	86	734	896	5	0	0	780122	683	0	correct_rejection	NA	0
33	Nonet	87	735	897	4	0	0	780839	683	0	correct_rejection	NA	0
33	Nonet	88	736	898	0	1	2	781555	684	1	hit	464	0
33	Nonet	89	737	899	6	0	0	782272	683	0	correct_rejection	NA	0
33	Nonet	90	738	900	5	0	0	782989	683	0	correct_rejection	NA	0
33	Nonet	91	739	901	4	0	0	783705	684	0	correct_rejection	NA	0
33	Nonet	92	740	902	7	0	0	784422	683	0	correct_rejection	NA	0
33	Nonet	93	741	903	8	0	0	785139	683	0	correct_rejection	NA	0
33	Nonet	94	742	904	9	0	0	785855	684	0	correct_rejection	NA	0
33	Nonet	95	743	905	7	0	0	786572	683	0	correct_rejection	NA	0
33	Nonet	96	744	906	8	0	0	787289	683	0	correct_rejection	NA	0
33	Nonet	97	745	907	9	0	0	788005	684	0	correct_rejection	NA	0
33	Nonet	98	746	908	7	0	0	788722	683	0	correct_rejection	NA	0
33	Nonet	99	747	909	0	1	1	789439	683	1	hit	459	0
33	Nonet	100	748	910	8	0	0	790155	684	0	correct_rejection	NA	0
33	Nonet	101	749	911	9	0	0	790872	683	0	correct_rejection	NA	0
33	Nonet	102	750	912	4	0	0	791589	683	0	correct_rejection	NA	0
33	Nonet	103	751	913	0	1	1	792305	684	1	hit	574	0
33	Nonet	104	752	914	5	0	0	793022	683	0	correct_rejection	NA	0
33	Nonet	105	753	915	6	0	0	793739	683	0	correct_rejection	NA	0
33	Nonet	106	754	916	0	1	2	794455	684	1	hit	414	0
33	Nonet	107	755	917	4	0	0	795172	683	0	correct_rejection	NA	0
33	Nonet	108	756	918	5	0	0	795889	683	0	correct_rejection	NA	0
33	Nonet	109	757	919	6	0	0	796605	684	0	correct_rejection	NA	0
33	Nonet	110	758	920	4	0	0	797322	683	0	correct_rejection	NA	0
33	Nonet	111	759	921	5	0	0	798038	684	0	correct_rejection	NA	0
33	Nonet	112	760	922	6	0	0	798755	683	0	correct_rejection	NA	0
33	Nonet	113	761	923	9	0	0	799472	683	0	correct_rejection	NA	0
33	Nonet	114	762	924	8	0	0	800188	684	0	correct_rejection	NA	0
33	Nonet	115	763	925	7	0	0	800905	683	0	correct_rejection	NA	0
33	Nonet	116	764	926	9	0	0	801622	683	0	correct_rejection	NA	0
33	Nonet	117	765	927	0	1	1	802338	684	1	hit	377	0
33	Nonet	118	766	928	8	0	0	803055	683	0	correct_rejection	NA	0
33	Nonet	119	767	929	7	0	0	803772	683	0	correct_rejection	NA	0
33	Nonet	120	768	930	9	0	0	804488	684	0	correct_rejection	NA	0
33	Nonet	121	769	931	8	0	0	805205	683	0	correct_rejection	NA	0
33	Nonet	122	770	932	0	1	1	805922	683	1	hit	389	0
33	Nonet	123	771	933	7	0	0	806638	684	0	correct_rejection	NA	0
33	Nonet	124	772	934	9	0	0	807355	683	0	correct_rejection	NA	0
33	Nonet	125	773	935	8	0	0	808072	683	0	correct_rejection	NA	0
33	Nonet	126	774	936	7	0	0	808788	684	0	correct_rejection	NA	0
33	Nonet	127	775	937	0	1	2	809505	683	1	hit	373	0
33	Nonet	128	776	938	9	0	0	810222	683	0	correct_rejection	NA	0
33	Nonet	129	777	939	8	0	0	810938	684	0	correct_rejection	NA	0
33	Nonet	130	778	940	0	1	1	811655	683	1	hit	501	0
33	Nonet	131	779	941	7	0	0	812372	683	0	correct_rejection	NA	0
33	Nonet	132	780	942	9	0	0	813088	684	0	correct_rejection	NA	0
33	Nonet	133	781	943	8	0	0	813805	683	0	correct_rejection	NA	0
33	Nonet	134	782	944	7	0	0	814522	683	0	correct_rejection	NA	0
33	Nonet	135	783	945	7	0	0	815238	684	0	correct_rejection	NA	0
33	Nonet	136	784	946	8	0	0	815955	683	0	correct_rejection	NA	0
33	Nonet	137	785	947	9	0	0	816672	683	0	correct_rejection	NA	0
33	Nonet	138	786	948	7	0	0	817388	684	0	correct_rejection	NA	0
33	Nonet	139	787	949	8	0	0	818105	683	0	correct_rejection	NA	0
33	Nonet	140	788	950	9	0	0	818822	683	0	correct_rejection	NA	0
33	Nonet	141	789	951	7	0	0	819538	684	0	correct_rejection	NA	0
33	Nonet	142	790	952	8	0	0	820255	683	0	correct_rejection	NA	0
33	Nonet	143	791	953	9	0	0	820971	684	0	correct_rejection	NA	0
33	Nonet	144	792	954	0	1	3	821688	684	1	hit	428	0
33	Nonet	145	793	955	7	0	0	822405	683	0	correct_rejection	NA	0
33	Nonet	146	794	956	8	0	0	823121	684	0	correct_rejection	NA	0
33	Nonet	147	795	957	9	0	0	823838	683	0	correct_rejection	NA	0
33	Nonet	148	796	958	7	0	0	824555	683	0	correct_rejection	NA	0
33	Nonet	149	797	959	8	0	0	825271	684	0	correct_rejection	NA	0
33	Nonet	150	798	960	9	0	0	825988	683	0	correct_rejection	NA	0
33	Nonet	151	799	961	7	0	0	826705	683	0	correct_rejection	NA	0
33	Nonet	152	800	962	8	0	0	827421	684	0	correct_rejection	NA	0
33	Nonet	153	801	963	9	0	0	828138	683	0	correct_rejection	NA	0
33	Nonet	154	802	964	9	0	0	828855	683	0	correct_rejection	NA	0
33	Nonet	155	803	965	8	0	0	829571	684	0	correct_rejection	NA	0
33	Nonet	156	804	966	7	0	0	830288	683	0	correct_rejection	NA	0
33	Nonet	157	805	967	9	0	0	831005	683	0	correct_rejection	NA	0
33	Nonet	158	806	968	8	0	0	831721	684	0	correct_rejection	NA	0
33	Nonet	159	807	969	7	0	0	832438	683	0	correct_rejection	NA	0
33	Nonet	160	808	970	9	0	0	833155	683	0	correct_rejection	NA	0
33	Nonet	161	809	971	8	0	0	833871	684	0	correct_rejection	NA	0
33	Nonet	162	810	972	7	0	0	834588	683	0	correct_rejection	NA	0
33	Single	1	649	973	8	0	0	843721	684	0	correct_rejection	NA	7337
33	Single	2	650	974	9	0	0	844438	683	0	correct_rejection	NA	0
33	Single	3	651	975	8	0	0	845154	684	0	correct_rejection	NA	0
33	Single	4	652	976	5	0	0	845871	684	0	correct_rejection	NA	0
33	Single	5	653	977	4	0	0	846588	683	0	correct_rejection	NA	0
33	Single	6	654	978	4	0	0	847304	684	0	correct_rejection	NA	0
33	Single	7	655	979	9	0	0	848021	683	0	correct_rejection	NA	0
33	Single	8	656	980	9	0	0	848738	683	0	correct_rejection	NA	0
33	Single	9	657	981	4	0	0	849454	684	0	correct_rejection	NA	0
33	Single	10	658	982	7	0	0	850171	683	0	correct_rejection	NA	0
33	Single	11	659	983	4	0	0	850888	683	0	correct_rejection	NA	0
33	Single	12	660	984	5	0	0	851604	684	0	correct_rejection	NA	0
33	Single	13	661	985	7	0	0	852321	683	0	correct_rejection	NA	0
33	Single	14	662	986	6	0	0	853038	683	0	correct_rejection	NA	0
33	Single	15	663	987	8	0	0	853754	684	0	correct_rejection	NA	0
33	Single	16	664	988	7	0	0	854471	683	0	correct_rejection	NA	0
33	Single	17	665	989	5	0	0	855188	683	0	correct_rejection	NA	0
33	Single	18	666	990	5	0	0	855904	684	0	correct_rejection	NA	0
33	Single	19	667	991	9	0	0	856621	683	0	correct_rejection	NA	0
33	Single	20	668	992	5	0	0	857338	683	0	correct_rejection	NA	0
33	Single	21	669	993	0	1	1	858054	684	1	hit	551	0
33	Single	22	670	994	8	0	0	858771	683	0	correct_rejection	NA	0
33	Single	23	671	995	6	0	0	859488	683	0	correct_rejection	NA	0
33	Single	24	672	996	5	0	0	860204	684	0	correct_rejection	NA	0
33	Single	25	673	997	6	0	0	860921	683	0	correct_rejection	NA	0
33	Single	26	674	998	6	0	0	861638	683	0	correct_rejection	NA	0
33	Single	27	675	999	7	0	0	862354	684	0	correct_rejection	NA	0
33	Single	28	676	1000	9	0	0	863071	683	0	correct_rejection	NA	0
33	Single	29	677	1001	6	0	0	863788	683	0	correct_rejection	NA	0
33	Single	30	678	1002	9	0	0	864504	684	0	correct_rejection	NA	0
33	Single	31	679	1003	7	0	0	865221	683	0	correct_rejection	NA	0
33	Single	32	680	1004	7	0	0	865938	683	0	correct_rejection	NA	0
33	Single	33	681	1005	0	1	1	866654	684	1	hit	536	0
33	Single	34	682	1006	8	0	0	867371	683	0	correct_rejection	NA	0
33	Single	35	683	1007	8	0	0	868088	683	0	correct_rejection	NA	0
33	Single	36	684	1008	4	0	0	868804	684	0	correct_rejection	NA	0
33	Single	37	685	1009	6	0	0	869521	683	0	correct_rejection	NA	0
33	Single	38	686	1010	4	0	0	870237	684	0	correct_rejection	NA	0
33	Single	39	687	1011	7	0	0	870954	683	0	correct_rejection	NA	0
33	Single	40	688	1012	9	0	0	871671	683	0	correct_rejection	NA	0
33	Single	41	689	1013	5	0	0	872387	684	0	correct_rejection	NA	0
33	Single	42	690	1014	9	0	0	873104	683	0	correct_rejection	NA	0
33	Single	43	691	1015	4	0	0	873821	683	0	correct_rejection	NA	0
33	Single	44	692	1016	8	0	0	874537	684	0	correct_rejection	NA	0
33	Single	45	693	1017	4	0	0	875254	683	0	correct_rejection	NA	0
33	Single	46	694	1018	9	0	0	875971	683	0	correct_rejection	NA	0
33	Single	47	695	1019	7	0	0	876687	684	0	correct_rejection	NA	0
33	Single	48	696	1020	8	0	0	877404	683	0	correct_rejection	NA	0
33	Single	49	697	1021	9	0	0	878121	683	0	correct_rejection	NA	0
33	Single	50	698	1022	6	0	0	878837	684	0	correct_rejection	NA	0
33	Single	51	699	1023	8	0	0	879554	683	0	correct_rejection	NA	0
33	Single	52	700	1024	8	0	0	880271	683	0	correct_rejection	NA	0
33	Single	53	701	1025	5	0	0	880987	684	0	correct_rejection	NA	0
33	Single	54	702	1026	8	0	0	881704	683	0	correct_rejection	NA	0
33	Single	55	703	1027	7	0	0	882421	683	0	correct_rejection	NA	0
33	Single	56	704	1028	7	0	0	883137	684	0	correct_rejection	NA	0
33	Single	57	705	1029	4	0	0	883854	683	0	correct_rejection	NA	0
33	Single	58	706	1030	0	1	1	884571	683	1	hit	400	0
33	Single	59	707	1031	4	0	0	885287	684	0	correct_rejection	NA	0
33	Single	60	708	1032	6	0	0	886004	683	0	correct_rejection	NA	0
33	Single	61	709	1033	5	0	0	886721	683	0	correct_rejection	NA	0
33	Single	62	710	1034	4	0	0	887437	684	0	correct_rejection	NA	0
33	Single	63	711	1035	7	0	0	888154	683	0	correct_rejection	NA	0
33	Single	64	712	1036	6	0	0	888871	683	0	correct_rejection	NA	0
33	Single	65	713	1037	6	0	0	889587	684	0	correct_rejection	NA	0
33	Single	66	714	1038	9	0	0	890304	683	0	correct_rejection	NA	0
33	Single	67	715	1039	0	1	1	891021	683	1	hit	441	0
33	Single	68	716	1040	9	0	0	891737	684	0	correct_rejection	NA	0
33	Single	69	717	1041	8	0	0	892454	683	0	correct_rejection	NA	0
33	Single	70	718	1042	0	1	1	893170	684	1	hit	397	0
33	Single	71	719	1043	6	0	0	893887	684	0	correct_rejection	NA	0
33	Single	72	720	1044	4	0	0	894604	683	0	correct_rejection	NA	0
33	Single	73	721	1045	5	0	0	895320	684	0	correct_rejection	NA	0
33	Single	74	722	1046	5	0	0	896037	683	0	correct_rejection	NA	0
33	Single	75	723	1047	0	1	1	896754	683	1	hit	437	0
33	Single	76	724	1048	6	0	0	897470	684	0	correct_rejection	NA	0
33	Single	77	725	1049	7	0	0	898187	683	0	correct_rejection	NA	0
33	Single	78	726	1050	0	1	1	898904	683	1	hit	421	0
33	Single	79	727	1051	5	0	0	899620	684	0	correct_rejection	NA	0
33	Single	80	728	1052	5	0	0	900337	683	0	correct_rejection	NA	0
33	Single	81	729	1053	4	0	0	901054	683	0	correct_rejection	NA	0
33	Single	82	730	1054	0	1	1	901770	684	1	hit	426	0
33	Single	83	731	1055	9	0	0	902487	683	0	correct_rejection	NA	0
33	Single	84	732	1056	5	0	0	903204	683	0	correct_rejection	NA	0
33	Single	85	733	1057	6	0	0	903920	684	0	correct_rejection	NA	0
33	Single	86	734	1058	4	0	0	904637	683	0	correct_rejection	NA	0
33	Single	87	735	1059	0	1	1	905354	683	1	hit	428	0
33	Single	88	736	1060	7	0	0	906070	684	0	correct_rejection	NA	0
33	Single	89	737	1061	9	0	0	906787	683	0	correct_rejection	NA	0
33	Single	90	738	1062	8	0	0	907504	683	0	correct_rejection	NA	0
33	Single	91	739	1063	8	0	0	908220	684	0	correct_rejection	NA	0
33	Single	92	740	1064	7	0	0	908937	683	0	correct_rejection	NA	0
33	Single	93	741	1065	8	0	0	909654	683	0	correct_rejection	NA	0
33	Single	94	742	1066	0	1	1	910370	684	1	hit	386	0
33	Single	95	743	1067	4	0	0	911087	683	0	correct_rejection	NA	0
33	Single	96	744	1068	8	0	0	911804	683	0	correct_rejection	NA	0
33	Single	97	745	1069	5	0	0	912520	684	0	correct_rejection	NA	0
33	Single	98	746	1070	5	0	0	913237	683	0	correct_rejection	NA	0
33	Single	99	747	1071	8	0	0	913954	683	0	correct_rejection	NA	0
33	Single	100	748	1072	9	0	0	914670	684	0	correct_rejection	NA	0
33	Single	101	749	1073	4	0	0	915387	683	0	correct_rejection	NA	0
33	Single	102	750	1074	4	0	0	916104	683	0	correct_rejection	NA	0
33	Single	103	751	1075	0	1	1	916820	684	1	hit	374	0
33	Single	104	752	1076	5	0	0	917537	683	0	correct_rejection	NA	0
33	Single	105	753	1077	9	0	0	918253	684	0	correct_rejection	NA	0
33	Single	106	754	1078	9	0	0	918970	683	0	correct_rejection	NA	0
33	Single	107	755	1079	7	0	0	919687	683	0	correct_rejection	NA	0
33	Single	108	756	1080	6	0	0	920403	684	0	correct_rejection	NA	0
33	Single	109	757	1081	7	0	0	921120	683	0	correct_rejection	NA	0
33	Single	110	758	1082	7	0	0	921837	683	0	correct_rejection	NA	0
33	Single	111	759	1083	5	0	0	922553	684	0	correct_rejection	NA	0
33	Single	112	760	1084	0	1	1	923270	683	0	miss	NA	0
33	Single	113	761	1085	7	0	0	923987	683	1	false_alarm	260	0
33	Single	114	762	1086	4	0	0	924703	684	0	correct_rejection	NA	0
33	Single	115	763	1087	6	0	0	925420	683	0	correct_rejection	NA	0
33	Single	116	764	1088	9	0	0	926137	683	0	correct_rejection	NA	0
33	Single	117	765	1089	6	0	0	926853	684	0	correct_rejection	NA	0
33	Single	118	766	1090	6	0	0	927570	683	0	correct_rejection	NA	0
33	Single	119	767	1091	8	0	0	928287	683	0	correct_rejection	NA	0
33	Single	120	768	1092	6	0	0	929003	684	0	correct_rejection	NA	0
33	Single	121	769	1093	0	1	1	929720	683	1	hit	371	0
33	Single	122	770	1094	7	0	0	930437	683	0	correct_rejection	NA	0
33	Single	123	771	1095	7	0	0	931153	684	0	correct_rejection	NA	0
33	Single	124	772	1096	8	0	0	931870	683	0	correct_rejection	NA	0
33	Single	125	773	1097	7	0	0	932587	683	0	correct_rejection	NA	0
33	Single	126	774	1098	6	0	0	933303	684	0	correct_rejection	NA	0
33	Single	127	775	1099	9	0	0	934020	683	0	correct_rejection	NA	0
33	Single	128	776	1100	7	0	0	934737	683	0	correct_rejection	NA	0
33	Single	129	777	1101	0	1	1	935453	684	1	hit	348	0
33	Single	130	778	1102	4	0	0	936170	683	0	correct_rejection	NA	0
33	Single	131	779	1103	9	0	0	936887	683	0	correct_rejection	NA	0
33	Single	132	780	1104	6	0	0	937603	684	0	correct_rejection	NA	0
33	Single	133	781	1105	5	0	0	938320	683	0	correct_rejection	NA	0
33	Single	134	782	1106	6	0	0	939037	683	0	correct_rejection	NA	0
33	Single	135	783	1107	0	1	1	939753	684	1	hit	524	0
33	Single	136	784	1108	6	0	0	940470	683	0	correct_rejection	NA	0
33	Single	137	785	1109	7	0	0	941186	684	0	correct_rejection	NA	0
33	Single	138	786	1110	9	0	0	941903	684	0	correct_rejection	NA	0
33	Single	139	787	1111	9	0	0	942620	683	0	correct_rejection	NA	0
33	Single	140	788	1112	4	0	0	943336	684	0	correct_rejection	NA	0
33	Single	141	789	1113	5	0	0	944053	683	0	correct_rejection	NA	0
33	Single	142	790	1114	8	0	0	944770	683	0	correct_rejection	NA	0
33	Single	143	791	1115	6	0	0	945486	684	0	correct_rejection	NA	0
33	Single	144	792	1116	8	0	0	946203	683	0	correct_rejection	NA	0
33	Single	145	793	1117	9	0	0	946920	683	0	correct_rejection	NA	0
33	Single	146	794	1118	5	0	0	947636	684	0	correct_rejection	NA	0
33	Single	147	795	1119	7	0	0	948353	683	0	correct_rejection	NA	0
33	Single	148	796	1120	5	0	0	949070	683	0	correct_rejection	NA	0
33	Single	149	797	1121	5	0	0	949786	684	0	correct_rejection	NA	0
33	Single	150	798	1122	9	0	0	950503	683	0	correct_rejection	NA	0
33	Single	151	799	1123	8	0	0	951220	683	0	correct_rejection	NA	0
33	Single	152	800	1124	0	1	1	951936	684	1	hit	491	0
33	Single	153	801	1125	5	0	0	952653	683	0	correct_rejection	NA	0
33	Single	154	802	1126	4	0	0	953370	683	0	correct_rejection	NA	0
33	Single	155	803	1127	6	0	0	954086	684	0	correct_rejection	NA	0
33	Single	156	804	1128	0	1	1	954803	683	1	hit	458	0
33	Single	157	805	1129	4	0	0	955520	683	0	correct_rejection	NA	0
33	Single	158	806	1130	4	0	0	956236	684	0	correct_rejection	NA	0
33	Single	159	807	1131	8	0	0	956953	683	0	correct_rejection	NA	0
33	Single	160	808	1132	0	1	1	957670	683	1	hit	463	0
33	Single	161	809	1133	8	0	0	958386	684	0	correct_rejection	NA	0
33	Single	162	810	1134	4	0	0	959103	683	0	correct_rejection	NA	0
33	Correct	1	325	1135	4	0	0	969186	683	0	correct_rejection	NA	7807
33	Correct	2	326	1136	5	0	0	969903	683	0	correct_rejection	NA	0
33	Correct	3	327	1137	6	0	0	970619	684	0	correct_rejection	NA	0
33	Correct	4	328	1138	4	0	0	971336	683	0	correct_rejection	NA	0
33	Correct	5	329	1139	5	0	0	972053	683	0	correct_rejection	NA	0
33	Correct	6	330	1140	6	0	0	972769	684	0	correct_rejection	NA	0
33	Correct	7	331	1141	4	0	0	973486	683	0	correct_rejection	NA	0
33	Correct	8	332	1142	5	0	0	974203	683	0	correct_rejection	NA	0
33	Correct	9	333	1143	6	0	0	974919	684	0	correct_rejection	NA	0
33	Correct	10	334	1144	0	1	3	975636	683	1	hit	478	0
33	Correct	11	335	1145	6	0	0	976353	683	0	correct_rejection	NA	0
33	Correct	12	336	1146	5	0	0	977069	684	0	correct_rejection	NA	0
33	Correct	13	337	1147	4	0	0	977786	683	0	correct_rejection	NA	0
33	Correct	14	338	1148	6	0	0	978503	683	0	correct_rejection	NA	0
33	Correct	15	339	1149	5	0	0	979219	684	0	correct_rejection	NA	0
33	Correct	16	340	1150	4	0	0	979936	683	0	correct_rejection	NA	0
33	Correct	17	341	1151	6	0	0	980653	683	0	correct_rejection	NA	0
33	Correct	18	342	1152	0	1	1	981369	684	1	hit	403	0
33	Correct	19	343	1153	5	0	0	982086	683	0	correct_rejection	NA	0
33	Correct	20	344	1154	4	0	0	982803	683	0	correct_rejection	NA	0
33	Correct	21	345	1155	9	0	0	983519	684	0	correct_rejection	NA	0
33	Correct	22	346	1156	8	0	0	984236	683	0	correct_rejection	NA	0
33	Correct	23	347	1157	7	0	0	984953	683	0	correct_rejection	NA	0
33	Correct	24	348	1158	0	1	2	985669	684	1	hit	393	0
33	Correct	25	349	1159	9	0	0	986386	683	0	correct_rejection	NA	0
33	Correct	26	350	1160	8	0	0	987103	683	0	correct_rejection	NA	0
33	Correct	27	351	1161	7	0	0	987819	684	0	correct_rejection	NA	0
33	Correct	28	352	1162	9	0	0	988536	683	0	correct_rejection	NA	0
33	Correct	29	353	1163	8	0	0	989253	683	0	correct_rejection	NA	0
33	Correct	30	354	1164	7	0	0	989969	684	0	correct_rejection	NA	0
33	Correct	31	355	1165	7	0	0	990686	683	0	correct_rejection	NA	0
33	Correct	32	356	1166	8	0	0	991402	684	0	correct_rejection	NA	0
33	Correct	33	357	1167	9	0	0	992119	683	0	correct_rejection	NA	0
33	Correct	34	358	1168	7	0	0	992836	683	0	correct_rejection	NA	0
33	Correct	35	359	1169	8	0	0	993552	684	0	correct_rejection	NA	0
33	Correct	36	360	1170	9	0	0	994269	683	0	correct_rejection	NA	0
33	Correct	37	361	1171	7	0	0	994986	683	0	correct_rejection	NA	0
33	Correct	38	362	1172	0	1	1	995702	684	1	hit	427	0
33	Correct	39	363	1173	8	0	0	996419	683	0	correct_rejection	NA	0
33	Correct	40	364	1174	9	0	0	997136	683	0	correct_rejection	NA	0
33	Correct	41	365	1175	4	0	0	997852	684	0	correct_rejection	NA	0
33	Correct	42	366	1176	5	0	0	998569	683	0	correct_rejection	NA	0
33	Correct	43	367	1177	6	0	0	999286	683	0	correct_rejection	NA	0
33	Correct	44	368	1178	4	0	0	1000002	684	0	correct_rejection	NA	0
33	Correct	45	369	1179	5	0	0	1000719	683	0	correct_rejection	NA	0
33	Correct	46	370	1180	6	0	0	1001436	683	0	correct_rejection	NA	0
33	Correct	47	371	1181	4	0	0	1002152	684	0	correct_rejection	NA	0
33	Correct	48	372	1182	0	1	1	1002869	683	1	hit	375	0
33	Correct	49	373	1183	5	0	0	1003586	683	0	correct_rejection	NA	0
33	Correct	50	374	1184	6	0	0	1004302	684	0	correct_rejection	NA	0
33	Correct	51	375	1185	6	0	0	1005019	683	0	correct_rejection	NA	0
33	Correct	52	376	1186	5	0	0	1005736	683	0	correct_rejection	NA	0
33	Correct	53	377	1187	4	0	0	1006452	684	0	correct_rejection	NA	0
33	Correct	54	378	1188	6	0	0	1007169	683	0	correct_rejection	NA	0
33	Correct	55	379	1189	5	0	0	1007886	683	0	correct_rejection	NA	0
33	Correct	56	380	1190	4	0	0	1008602	684	0	correct_rejection	NA	0
33	Correct	57	381	1191	6	0	0	1009319	683	0	correct_rejection	NA	0
33	Correct	58	382	1192	5	0	0	1010036	683	0	correct_rejection	NA	0
33	Correct	59	383	1193	4	0	0	1010752	684	0	correct_rejection	NA	0
33	Correct	60	384	1194	9	0	0	1011469	683	0	correct_rejection	NA	0
33	Correct	61	385	1195	8	0	0	1012186	683	0	correct_rejection	NA	0
33	Correct	62	386	1196	7	0	0	1012902	684	0	correct_rejection	NA	0
33	Correct	63	387	1197	9	0	0	1013619	683	0	correct_rejection	NA	0
33	Correct	64	388	1198	8	0	0	1014336	683	0	correct_rejection	NA	0
33	Correct	65	389	1199	0	1	1	1015052	683	1	hit	491	0
33	Correct	66	390	1200	7	0	0	1015769	683	0	correct_rejection	NA	0
33	Correct	67	391	1201	9	0	0	1016485	684	0	correct_rejection	NA	0
33	Correct	68	392	1202	8	0	0	1017202	683	0	correct_rejection	NA	0
33	Correct	69	393	1203	7	0	0	1017919	683	0	correct_rejection	NA	0
33	Correct	70	394	1204	7	0	0	1018635	684	0	correct_rejection	NA	0
33	Correct	71	395	1205	8	0	0	1019352	683	0	correct_rejection	NA	0
33	Correct	72	396	1206	9	0	0	1020069	683	0	correct_rejection	NA	0
33	Correct	73	397	1207	0	1	2	1020785	684	1	hit	467	0
33	Correct	74	398	1208	7	0	0	1021502	683	0	correct_rejection	NA	0
33	Correct	75	399	1209	8	0	0	1022219	683	0	correct_rejection	NA	0
33	Correct	76	400	1210	0	1	1	1022935	684	1	hit	559	0
33	Correct	77	401	1211	9	0	0	1023652	683	0	correct_rejection	NA	0
33	Correct	78	402	1212	7	0	0	1024369	683	0	correct_rejection	NA	0
33	Correct	79	403	1213	8	0	0	1025085	684	0	correct_rejection	NA	0
33	Correct	80	404	1214	0	1	1	1025802	683	1	hit	539	0
33	Correct	81	405	1215	9	0	0	1026519	683	0	correct_rejection	NA	0
33	Correct	82	406	1216	4	0	0	1027235	684	0	correct_rejection	NA	0
33	Correct	83	407	1217	5	0	0	1027952	683	0	correct_rejection	NA	0
33	Correct	84	408	1218	0	1	1	1028669	683	1	hit	389	0
33	Correct	85	409	1219	6	0	0	1029385	684	0	correct_rejection	NA	0
33	Correct	86	410	1220	4	0	0	1030102	683	0	correct_rejection	NA	0
33	Correct	87	411	1221	5	0	0	1030819	683	0	correct_rejection	NA	0
33	Correct	88	412	1222	6	0	0	1031535	684	0	correct_rejection	NA	0
33	Correct	89	413	1223	4	0	0	1032252	683	0	correct_rejection	NA	0
33	Correct	90	414	1224	5	0	0	1032969	683	0	correct_rejection	NA	0
33	Correct	91	415	1225	6	0	0	1033685	684	0	correct_rejection	NA	0
33	Correct	92	416	1226	6	0	0	1034402	683	0	correct_rejection	NA	0
33	Correct	93	417	1227	5	0	0	1035119	683	0	correct_rejection	NA	0
33	Correct	94	418	1228	4	0	0	1035835	684	0	correct_rejection	NA	0
33	Correct	95	419	1229	6	0	0	1036552	683	0	correct_rejection	NA	0
33	Correct	96	420	1230	5	0	0	1037269	683	0	correct_rejection	NA	0
33	Correct	97	421	1231	4	0	0	1037985	684	0	correct_rejection	NA	0
33	Correct	98	422	1232	6	0	0	1038702	683	0	correct_rejection	NA	0
33	Correct	99	423	1233	5	0	0	1039418	684	0	correct_rejection	NA	0
33	Correct	100	424	1234	4	0	0	1040135	684	0	correct_rejection	NA	0
33	Correct	101	425	1235	9	0	0	1040852	683	0	correct_rejection	NA	0
33	Correct	102	426	1236	8	0	0	1041568	684	0	correct_rejection	NA	0
33	Correct	103	427	1237	7	0	0	1042285	683	0	correct_rejection	NA	0
33	Correct	104	428	1238	0	1	2	1043002	683	1	hit	447	0
33	Correct	105	429	1239	9	0	0	1043718	684	0	correct_rejection	NA	0
33	Correct	106	430	1240	8	0	0	1044435	683	0	correct_rejection	NA	0
33	Correct	107	431	1241	7	0	0	1045152	683	0	correct_rejection	NA	0
33	Correct	108	432	1242	9	0	0	1045868	684	0	correct_rejection	NA	0
33	Correct	109	433	1243	8	0	0	1046585	683	0	correct_rejection	NA	0
33	Correct	110	434	1244	7	0	0	1047302	683	0	correct_rejection	NA	0
33	Correct	111	435	1245	0	1	3	1048018	684	1	hit	420	0
33	Correct	112	436	1246	7	0	0	1048735	683	0	correct_rejection	NA	0
33	Correct	113	437	1247	8	0	0	1049452	683	0	correct_rejection	NA	0
33	Correct	114	438	1248	9	0	0	1050168	684	0	correct_rejection	NA	0
33	Correct	115	439	1249	7	0	0	1050885	683	0	correct_rejection	NA	0
33	Correct	116	440	1250	0	1	1	1051602	683	1	hit	634	0
33	Correct	117	441	1251	8	0	0	1052318	684	0	correct_rejection	NA	0
33	Correct	118	442	1252	9	0	0	1053035	683	0	correct_rejection	NA	0
33	Correct	119	443	1253	7	0	0	1053752	683	0	correct_rejection	NA	0
33	Correct	120	444	1254	0	1	1	1054468	684	1	hit	384	0
33	Correct	121	445	1255	8	0	0	1055185	683	0	correct_rejection	NA	0
33	Correct	122	446	1256	9	0	0	1055902	683	0	correct_rejection	NA	0
33	Correct	123	447	1257	4	0	0	1056618	684	0	correct_rejection	NA	0
33	Correct	124	448	1258	5	0	0	1057335	683	0	correct_rejection	NA	0
33	Correct	125	449	1259	6	0	0	1058052	683	0	correct_rejection	NA	0
33	Correct	126	450	1260	4	0	0	1058768	684	0	correct_rejection	NA	0
33	Correct	127	451	1261	0	1	1	1059485	683	1	hit	440	0
33	Correct	128	452	1262	5	0	0	1060202	683	0	correct_rejection	NA	0
33	Correct	129	453	1263	6	0	0	1060918	684	0	correct_rejection	NA	0
33	Correct	130	454	1264	4	0	0	1061635	683	0	correct_rejection	NA	0
33	Correct	131	455	1265	5	0	0	1062352	683	0	correct_rejection	NA	0
33	Correct	132	456	1266	6	0	0	1063068	684	0	correct_rejection	NA	0
33	Correct	133	457	1267	6	0	0	1063785	683	0	correct_rejection	NA	0
33	Correct	134	458	1268	5	0	0	1064501	684	0	correct_rejection	NA	0
33	Correct	135	459	1269	0	1	1	1065218	683	1	hit	487	0
33	Correct	136	460	1270	4	0	0	1065935	683	0	correct_rejection	NA	0
33	Correct	137	461	1271	6	0	0	1066651	684	0	correct_rejection	NA	0
33	Correct	138	462	1272	5	0	0	1067368	683	0	correct_rejection	NA	0
33	Correct	139	463	1273	4	0	0	1068085	683	0	correct_rejection	NA	0
33	Correct	140	464	1274	6	0	0	1068801	684	0	correct_rejection	NA	0
33	Correct	141	465	1275	5	0	0	1069518	683	0	correct_rejection	NA	0
33	Correct	142	466	1276	4	0	0	1070235	683	0	correct_rejection	NA	0
33	Correct	143	467	1277	9	0	0	1070951	684	0	correct_rejection	NA	0
33	Correct	144	468	1278	8	0	0	1071668	683	0	correct_rejection	NA	0
33	Correct	145	469	1279	7	0	0	1072385	683	0	correct_rejection	NA	0
33	Correct	146	470	1280	9	0	0	1073101	684	0	correct_rejection	NA	0
33	Correct	147	471	1281	0	1	1	1073818	683	1	hit	431	0
33	Correct	148	472	1282	8	0	0	1074535	683	0	correct_rejection	NA	0
33	Correct	149	473	1283	7	0	0	1075251	684	0	correct_rejection	NA	0
33	Correct	150	474	1284	9	0	0	1075968	683	0	correct_rejection	NA	0
33	Correct	151	475	1285	8	0	0	1076685	683	0	correct_rejection	NA	0
33	Correct	152	476	1286	7	0	0	1077401	684	0	correct_rejection	NA	0
33	Correct	153	477	1287	7	0	0	1078118	683	0	correct_rejection	NA	0
33	Correct	154	478	1288	8	0	0	1078835	683	0	correct_rejection	NA	0
33	Correct	155	479	1289	9	0	0	1079551	684	0	correct_rejection	NA	0
33	Correct	156	480	1290	0	1	2	1080268	683	1	hit	419	0
33	Correct	157	481	1291	7	0	0	1080985	683	0	correct_rejection	NA	0
33	Correct	158	482	1292	8	0	0	1081701	684	0	correct_rejection	NA	0
33	Correct	159	483	1293	9	0	0	1082418	683	0	correct_rejection	NA	0
33	Correct	160	484	1294	7	0	0	1083135	683	0	correct_rejection	NA	0
33	Correct	161	485	1295	8	0	0	1083851	684	0	correct_rejection	NA	0
33	Correct	162	486	1296	9	0	0	1084568	683	0	correct_rejection	NA	0
33	Single	1	487	1297	7	0	0	1093518	683	0	correct_rejection	NA	7156
33	Single	2	488	1298	4	0	0	1094234	684	0	correct_rejection	NA	0
33	Single	3	489	1299	5	0	0	1094951	683	0	correct_rejection	NA	0
33	Single	4	490	1300	0	1	1	1095668	683	1	hit	417	0
33	Single	5	491	1301	5	0	0	1096384	684	0	correct_rejection	NA	0
33	Single	6	492	1302	7	0	0	1097101	683	0	correct_rejection	NA	0
33	Single	7	493	1303	6	0	0	1097818	683	0	correct_rejection	NA	0
33	Single	8	494	1304	4	0	0	1098534	684	0	correct_rejection	NA	0
33	Single	9	495	1305	9	0	0	1099251	683	0	correct_rejection	NA	0
33	Single	10	496	1306	0	1	1	1099968	683	1	hit	505	0
33	Single	11	497	1307	5	0	0	1100684	684	0	correct_rejection	NA	0
33	Single	12	498	1308	9	0	0	1101401	683	0	correct_rejection	NA	0
33	Single	13	499	1309	0	1	1	1102118	683	1	hit	397	0
33	Single	14	500	1310	4	0	0	1102834	684	0	correct_rejection	NA	0
33	Single	15	501	1311	8	0	0	1103551	683	0	correct_rejection	NA	0
33	Single	16	502	1312	5	0	0	1104268	683	0	correct_rejection	NA	0
33	Single	17	503	1313	8	0	0	1104984	684	0	correct_rejection	NA	0
33	Single	18	504	1314	4	0	0	1105701	683	0	correct_rejection	NA	0
33	Single	19	505	1315	7	0	0	1106418	683	0	correct_rejection	NA	0
33	Single	20	506	1316	8	0	0	1107134	684	0	correct_rejection	NA	0
33	Single	21	507	1317	6	0	0	1107851	683	0	correct_rejection	NA	0
33	Single	22	508	1318	8	0	0	1108568	683	0	correct_rejection	NA	0
33	Single	23	509	1319	9	0	0	1109284	684	0	correct_rejection	NA	0
33	Single	24	510	1320	7	0	0	1110001	683	0	correct_rejection	NA	0
33	Single	25	511	1321	0	1	1	1110717	684	1	hit	426	0
33	Single	26	512	1322	5	0	0	1111434	684	0	correct_rejection	NA	0
33	Single	27	513	1323	6	0	0	1112151	683	0	correct_rejection	NA	0
33	Single	28	514	1324	9	0	0	1112867	684	0	correct_rejection	NA	0
33	Single	29	515	1325	6	0	0	1113584	683	0	correct_rejection	NA	0
33	Single	30	516	1326	6	0	0	1114301	683	0	correct_rejection	NA	0
33	Single	31	517	1327	5	0	0	1115017	684	0	correct_rejection	NA	0
33	Single	32	518	1328	4	0	0	1115734	683	0	correct_rejection	NA	0
33	Single	33	519	1329	4	0	0	1116451	683	0	correct_rejection	NA	0
33	Single	34	520	1330	0	1	1	1117167	684	1	hit	444	0
33	Single	35	521	1331	6	0	0	1117884	683	0	correct_rejection	NA	0
33	Single	36	522	1332	7	0	0	1118601	683	0	correct_rejection	NA	0
33	Single	37	523	1333	7	0	0	1119317	684	0	correct_rejection	NA	0
33	Single	38	524	1334	9	0	0	1120034	683	0	correct_rejection	NA	0
33	Single	39	525	1335	9	0	0	1120751	683	0	correct_rejection	NA	0
33	Single	40	526	1336	8	0	0	1121467	684	0	correct_rejection	NA	0
33	Single	41	527	1337	8	0	0	1122184	683	0	correct_rejection	NA	0
33	Single	42	528	1338	5	0	0	1122901	683	0	correct_rejection	NA	0
33	Single	43	529	1339	9	0	0	1123617	684	0	correct_rejection	NA	0
33	Single	44	530	1340	9	0	0	1124334	683	0	correct_rejection	NA	0
33	Single	45	531	1341	7	0	0	1125051	683	0	correct_rejection	NA	0
33	Single	46	532	1342	0	1	1	1125767	684	1	hit	444	0
33	Single	47	533	1343	9	0	0	1126484	683	0	correct_rejection	NA	0
33	Single	48	534	1344	5	0	0	1127201	683	0	correct_rejection	NA	0
33	Single	49	535	1345	5	0	0	1127917	684	0	correct_rejection	NA	0
33	Single	50	536	1346	0	1	1	1128634	683	1	hit	653	0
33	Single	51	537	1347	8	0	0	1129351	683	0	correct_rejection	NA	0
33	Single	52	538	1348	7	0	0	1130067	684	0	correct_rejection	NA	0
33	Single	53	539	1349	5	0	0	1130784	683	0	correct_rejection	NA	0
33	Single	54	540	1350	4	0	0	1131501	683	0	correct_rejection	NA	0
33	Single	55	541	1351	5	0	0	1132217	684	0	correct_rejection	NA	0
33	Single	56	542	1352	7	0	0	1132934	683	0	correct_rejection	NA	0
33	Single	57	543	1353	7	0	0	1133651	683	0	correct_rejection	NA	0
33	Single	58	544	1354	4	0	0	1134367	684	0	correct_rejection	NA	0
33	Single	59	545	1355	9	0	0	1135084	683	0	correct_rejection	NA	0
33	Single	60	546	1356	6	0	0	1135800	684	0	correct_rejection	NA	0
33	Single	61	547	1357	7	0	0	1136517	683	0	correct_rejection	NA	0
33	Single	62	548	1358	8	0	0	1137234	683	0	correct_rejection	NA	0
33	Single	63	549	1359	4	0	0	1137950	684	0	correct_rejection	NA	0
33	Single	64	550	1360	6	0	0	1138667	683	0	correct_rejection	NA	0
33	Single	65	551	1361	5	0	0	1139384	683	0	correct_rejection	NA	0
33	Single	66	552	1362	6	0	0	1140100	684	0	correct_rejection	NA	0
33	Single	67	553	1363	6	0	0	1140817	683	0	correct_rejection	NA	0
33	Single	68	554	1364	9	0	0	1141534	683	0	correct_rejection	NA	0
33	Single	69	555	1365	8	0	0	1142250	684	0	correct_rejection	NA	0
33	Single	70	556	1366	9	0	0	1142967	683	0	correct_rejection	NA	0
33	Single	71	557	1367	4	0	0	1143684	683	0	correct_rejection	NA	0
33	Single	72	558	1368	4	0	0	1144400	684	0	correct_rejection	NA	0
33	Single	73	559	1369	8	0	0	1145117	683	0	correct_rejection	NA	0
33	Single	74	560	1370	6	0	0	1145834	683	0	correct_rejection	NA	0
33	Single	75	561	1371	4	0	0	1146550	684	0	correct_rejection	NA	0
33	Single	76	562	1372	7	0	0	1147267	683	0	correct_rejection	NA	0
33	Single	77	563	1373	6	0	0	1147984	683	0	correct_rejection	NA	0
33	Single	78	564	1374	8	0	0	1148700	684	0	correct_rejection	NA	0
33	Single	79	565	1375	8	0	0	1149417	683	0	correct_rejection	NA	0
33	Single	80	566	1376	4	0	0	1150134	683	0	correct_rejection	NA	0
33	Single	81	567	1377	7	0	0	1150850	684	0	correct_rejection	NA	0
33	Single	82	568	1378	5	0	0	1151567	683	0	correct_rejection	NA	0
33	Single	83	569	1379	5	0	0	1152284	683	0	correct_rejection	NA	0
33	Single	84	570	1380	4	0	0	1153000	684	0	correct_rejection	NA	0
33	Single	85	571	1381	0	1	1	1153717	683	1	hit	467	0
33	Single	86	572	1382	8	0	0	1154434	683	0	correct_rejection	NA	0
33	Single	87	573	1383	9	0	0	1155150	684	0	correct_rejection	NA	0
33	Single	88	574	1384	0	1	1	1155867	683	1	hit	616	0
33	Single	89	575	1385	6	0	0	1156584	683	0	correct_rejection	NA	0
33	Single	90	576	1386	9	0	0	1157300	684	0	correct_rejection	NA	0
33	Single	91	577	1387	9	0	0	1158017	683	0	correct_rejection	NA	0
33	Single	92	578	1388	5	0	0	1158734	683	0	correct_rejection	NA	0
33	Single	93	579	1389	8	0	0	1159450	684	0	correct_rejection	NA	0
33	Single	94	580	1390	5	0	0	1160167	683	0	correct_rejection	NA	0
33	Single	95	581	1391	6	0	0	1160883	684	0	correct_rejection	NA	0
33	Single	96	582	1392	7	0	0	1161600	683	0	correct_rejection	NA	0
33	Single	97	583	1393	9	0	0	1162317	683	0	correct_rejection	NA	0
33	Single	98	584	1394	4	0	0	1163033	684	0	correct_rejection	NA	0
33	Single	99	585	1395	6	0	0	1163750	683	0	correct_rejection	NA	0
33	Single	100	586	1396	8	0	0	1164467	683	0	correct_rejection	NA	0
33	Single	101	587	1397	0	1	1	1165183	684	1	hit	389	0
33	Single	102	588	1398	4	0	0	1165900	683	0	correct_rejection	NA	0
33	Single	103	589	1399	5	0	0	1166617	683	0	correct_rejection	NA	0
33	Single	104	590	1400	9	0	0	1167333	684	0	correct_rejection	NA	0
33	Single	105	591	1401	8	0	0	1168050	683	0	correct_rejection	NA	0
33	Single	106	592	1402	7	0	0	1168767	683	0	correct_rejection	NA	0
33	Single	107	593	1403	0	1	1	1169483	684	0	miss	NA	0
33	Single	108	594	1404	6	0	0	1170200	683	1	false_alarm	0	0
33	Single	109	595	1405	6	0	0	1170917	683	0	correct_rejection	NA	0
33	Single	110	596	1406	4	0	0	1171633	684	0	correct_rejection	NA	0
33	Single	111	597	1407	0	1	1	1172350	683	1	hit	370	0
33	Single	112	598	1408	4	0	0	1173067	683	0	correct_rejection	NA	0
33	Single	113	599	1409	9	0	0	1173783	684	0	correct_rejection	NA	0
33	Single	114	600	1410	7	0	0	1174500	683	0	correct_rejection	NA	0
33	Single	115	601	1411	7	0	0	1175217	683	0	correct_rejection	NA	0
33	Single	116	602	1412	0	1	1	1175933	684	1	hit	501	0
33	Single	117	603	1413	8	0	0	1176650	683	0	correct_rejection	NA	0
33	Single	118	604	1414	8	0	0	1177367	683	0	correct_rejection	NA	0
33	Single	119	605	1415	6	0	0	1178083	684	0	correct_rejection	NA	0
33	Single	120	606	1416	5	0	0	1178800	683	0	correct_rejection	NA	0
33	Single	121	607	1417	7	0	0	1179517	683	0	correct_rejection	NA	0
33	Single	122	608	1418	0	1	1	1180233	684	1	hit	468	0
33	Single	123	609	1419	7	0	0	1180950	683	0	correct_rejection	NA	0
33	Single	124	610	1420	8	0	0	1181667	683	0	correct_rejection	NA	0
33	Single	125	611	1421	5	0	0	1182383	684	0	correct_rejection	NA	0
33	Single	126	612	1422	0	1	1	1183100	683	1	hit	583	0
33	Single	127	613	1423	7	0	0	1183816	684	0	correct_rejection	NA	0
33	Single	128	614	1424	6	0	0	1184533	684	0	correct_rejection	NA	0
33	Single	129	615	1425	4	0	0	1185250	683	0	correct_rejection	NA	0
33	Single	130	616	1426	5	0	0	1185966	684	0	correct_rejection	NA	0
33	Single	131	617	1427	5	0	0	1186683	683	0	correct_rejection	NA	0
33	Single	132	618	1428	6	0	0	1187400	683	0	correct_rejection	NA	0
33	Single	133	619	1429	8	0	0	1188116	684	0	correct_rejection	NA	0
33	Single	134	620	1430	0	1	1	1188833	683	1	hit	409	0
33	Single	135	621	1431	6	0	0	1189550	683	0	correct_rejection	NA	0
33	Single	136	622	1432	9	0	0	1190266	684	0	correct_rejection	NA	0
33	Single	137	623	1433	4	0	0	1190983	683	0	correct_rejection	NA	0
33	Single	138	624	1434	8	0	0	1191700	683	0	correct_rejection	NA	0
33	Single	139	625	1435	7	0	0	1192416	684	0	correct_rejection	NA	0
33	Single	140	626	1436	0	1	1	1193133	683	1	hit	577	0
33	Single	141	627	1437	4	0	0	1193850	683	0	correct_rejection	NA	0
33	Single	142	628	1438	6	0	0	1194566	684	0	correct_rejection	NA	0
33	Single	143	629	1439	6	0	0	1195283	683	0	correct_rejection	NA	0
33	Single	144	630	1440	7	0	0	1196000	683	0	correct_rejection	NA	0
33	Single	145	631	1441	5	0	0	1196716	684	0	correct_rejection	NA	0
33	Single	146	632	1442	8	0	0	1197433	683	0	correct_rejection	NA	0
33	Single	147	633	1443	9	0	0	1198150	683	0	correct_rejection	NA	0
33	Single	148	634	1444	8	0	0	1198866	684	0	correct_rejection	NA	0
33	Single	149	635	1445	8	0	0	1199583	683	0	correct_rejection	NA	0
33	Single	150	636	1446	4	0	0	1200300	683	0	correct_rejection	NA	0
33	Single	151	637	1447	9	0	0	1201016	684	0	correct_rejection	NA	0
33	Single	152	638	1448	5	0	0	1201733	683	0	correct_rejection	NA	0
33	Single	153	639	1449	4	0	0	1202450	683	0	correct_rejection	NA	0
33	Single	154	640	1450	4	0	0	1203166	684	0	correct_rejection	NA	0
33	Single	155	641	1451	7	0	0	1203883	683	0	correct_rejection	NA	0
33	Single	156	642	1452	9	0	0	1204600	683	0	correct_rejection	NA	0
33	Single	157	643	1453	9	0	0	1205316	684	0	correct_rejection	NA	0
33	Single	158	644	1454	6	0	0	1206033	683	0	correct_rejection	NA	0
33	Single	159	645	1455	5	0	0	1206750	683	0	correct_rejection	NA	0
33	Single	160	646	1456	0	1	1	1207466	684	1	hit	522	0
33	Single	161	647	1457	9	0	0	1208183	683	0	correct_rejection	NA	0
33	Single	162	648	1458	7	0	0	1208899	684	0	correct_rejection	NA	0
33	Triplet	1	1	1459	9	0	0	1219199	684	0	correct_rejection	NA	7837
33	Triplet	2	2	1460	8	0	0	1219916	683	0	correct_rejection	NA	0
33	Triplet	3	3	1461	7	0	0	1220633	683	0	correct_rejection	NA	0
33	Triplet	4	4	1462	6	0	0	1221349	684	0	correct_rejection	NA	0
33	Triplet	5	5	1463	5	0	0	1222066	683	0	correct_rejection	NA	0
33	Triplet	6	6	1464	4	0	0	1222783	683	0	correct_rejection	NA	0
33	Triplet	7	7	1465	7	0	0	1223499	684	0	correct_rejection	NA	0
33	Triplet	8	8	1466	8	0	0	1224216	683	0	correct_rejection	NA	0
33	Triplet	9	9	1467	9	0	0	1224933	683	0	correct_rejection	NA	0
33	Triplet	10	10	1468	7	0	0	1225649	684	0	correct_rejection	NA	0
33	Triplet	11	11	1469	8	0	0	1226366	683	0	correct_rejection	NA	0
33	Triplet	12	12	1470	9	0	0	1227083	683	0	correct_rejection	NA	0
33	Triplet	13	13	1471	0	1	2	1227799	684	1	hit	425	0
33	Triplet	14	14	1472	4	0	0	1228516	683	0	correct_rejection	NA	0
33	Triplet	15	15	1473	5	0	0	1229233	683	0	correct_rejection	NA	0
33	Triplet	16	16	1474	0	1	1	1229949	684	1	hit	585	0
33	Triplet	17	17	1475	6	0	0	1230666	683	0	correct_rejection	NA	0
33	Triplet	18	18	1476	6	0	0	1231382	684	0	correct_rejection	NA	0
33	Triplet	19	19	1477	0	1	1	1232099	684	1	hit	426	0
33	Triplet	20	20	1478	5	0	0	1232816	683	0	correct_rejection	NA	0
33	Triplet	21	21	1479	4	0	0	1233532	684	0	correct_rejection	NA	0
33	Triplet	22	22	1480	4	0	0	1234249	683	0	correct_rejection	NA	0
33	Triplet	23	23	1481	5	0	0	1234966	683	0	correct_rejection	NA	0
33	Triplet	24	24	1482	6	0	0	1235682	684	0	correct_rejection	NA	0
33	Triplet	25	25	1483	0	1	2	1236399	683	1	hit	457	0
33	Triplet	26	26	1484	7	0	0	1237116	683	0	correct_rejection	NA	0
33	Triplet	27	27	1485	8	0	0	1237832	684	0	correct_rejection	NA	0
33	Triplet	28	28	1486	9	0	0	1238549	683	0	correct_rejection	NA	0
33	Triplet	29	29	1487	9	0	0	1239266	683	0	correct_rejection	NA	0
33	Triplet	30	30	1488	8	0	0	1239982	684	0	correct_rejection	NA	0
33	Triplet	31	31	1489	7	0	0	1240699	683	0	correct_rejection	NA	0
33	Triplet	32	32	1490	7	0	0	1241416	683	0	correct_rejection	NA	0
33	Triplet	33	33	1491	8	0	0	1242132	684	0	correct_rejection	NA	0
33	Triplet	34	34	1492	9	0	0	1242849	683	0	correct_rejection	NA	0
33	Triplet	35	35	1493	6	0	0	1243566	683	0	correct_rejection	NA	0
33	Triplet	36	36	1494	5	0	0	1244282	684	0	correct_rejection	NA	0
33	Triplet	37	37	1495	4	0	0	1244999	683	0	correct_rejection	NA	0
33	Triplet	38	38	1496	6	0	0	1245716	683	0	correct_rejection	NA	0
33	Triplet	39	39	1497	5	0	0	1246432	684	0	correct_rejection	NA	0
33	Triplet	40	40	1498	4	0	0	1247149	683	0	correct_rejection	NA	0
33	Triplet	41	41	1499	9	0	0	1247866	683	0	correct_rejection	NA	0
33	Triplet	42	42	1500	8	0	0	1248582	684	0	correct_rejection	NA	0
33	Triplet	43	43	1501	7	0	0	1249299	683	0	correct_rejection	NA	0
33	Triplet	44	44	1502	9	0	0	1250016	683	0	correct_rejection	NA	0
33	Triplet	45	45	1503	8	0	0	1250732	684	0	correct_rejection	NA	0
33	Triplet	46	46	1504	7	0	0	1251449	683	0	correct_rejection	NA	0
33	Triplet	47	47	1505	0	1	2	1252166	683	1	hit	406	0
33	Triplet	48	48	1506	4	0	0	1252882	684	0	correct_rejection	NA	0
33	Triplet	49	49	1507	5	0	0	1253599	683	0	correct_rejection	NA	0
33	Triplet	50	50	1508	0	1	1	1254316	683	1	hit	497	0
33	Triplet	51	51	1509	6	0	0	1255032	684	0	correct_rejection	NA	0
33	Triplet	52	52	1510	4	0	0	1255749	683	0	correct_rejection	NA	0
33	Triplet	53	53	1511	5	0	0	1256465	684	0	correct_rejection	NA	0
33	Triplet	54	54	1512	6	0	0	1257182	683	0	correct_rejection	NA	0
33	Triplet	55	55	1513	9	0	0	1257899	683	0	correct_rejection	NA	0
33	Triplet	56	56	1514	8	0	0	1258615	684	0	correct_rejection	NA	0
33	Triplet	57	57	1515	7	0	0	1259332	683	0	correct_rejection	NA	0
33	Triplet	58	58	1516	4	0	0	1260049	683	0	correct_rejection	NA	0
33	Triplet	59	59	1517	5	0	0	1260765	684	0	correct_rejection	NA	0
33	Triplet	60	60	1518	6	0	0	1261482	683	0	correct_rejection	NA	0
33	Triplet	61	61	1519	0	1	2	1262199	683	1	hit	463	0
33	Triplet	62	62	1520	6	0	0	1262915	684	0	correct_rejection	NA	0
33	Triplet	63	63	1521	5	0	0	1263632	683	0	correct_rejection	NA	0
33	Triplet	64	64	1522	0	1	1	1264349	683	1	hit	583	0
33	Triplet	65	65	1523	4	0	0	1265065	684	0	correct_rejection	NA	0
33	Triplet	66	66	1524	6	0	0	1265782	683	0	correct_rejection	NA	0
33	Triplet	67	67	1525	5	0	0	1266499	683	0	correct_rejection	NA	0
33	Triplet	68	68	1526	4	0	0	1267215	684	0	correct_rejection	NA	0
33	Triplet	69	69	1527	0	1	2	1267932	683	1	hit	557	0
33	Triplet	70	70	1528	7	0	0	1268649	683	0	correct_rejection	NA	0
33	Triplet	71	71	1529	8	0	0	1269365	684	0	correct_rejection	NA	0
33	Triplet	72	72	1530	0	1	1	1270082	683	1	hit	564	0
33	Triplet	73	73	1531	9	0	0	1270799	683	0	correct_rejection	NA	0
33	Triplet	74	74	1532	4	0	0	1271515	684	0	correct_rejection	NA	0
33	Triplet	75	75	1533	0	1	1	1272232	683	1	hit	497	0
33	Triplet	76	76	1534	5	0	0	1272949	683	0	correct_rejection	NA	0
33	Triplet	77	77	1535	6	0	0	1273665	684	0	correct_rejection	NA	0
33	Triplet	78	78	1536	9	0	0	1274382	683	0	correct_rejection	NA	0
33	Triplet	79	79	1537	8	0	0	1275099	683	0	correct_rejection	NA	0
33	Triplet	80	80	1538	7	0	0	1275815	684	0	correct_rejection	NA	0
33	Triplet	81	81	1539	7	0	0	1276532	683	0	correct_rejection	NA	0
33	Triplet	82	82	1540	8	0	0	1277249	683	0	correct_rejection	NA	0
33	Triplet	83	83	1541	9	0	0	1277965	684	0	correct_rejection	NA	0
33	Triplet	84	84	1542	0	1	2	1278682	683	1	hit	408	0
33	Triplet	85	85	1543	9	0	0	1279399	683	0	correct_rejection	NA	0
33	Triplet	86	86	1544	8	0	0	1280115	684	0	correct_rejection	NA	0
33	Triplet	87	87	1545	7	0	0	1280832	683	0	correct_rejection	NA	0
33	Triplet	88	88	1546	6	0	0	1281548	684	0	correct_rejection	NA	0
33	Triplet	89	89	1547	5	0	0	1282265	683	0	correct_rejection	NA	0
33	Triplet	90	90	1548	4	0	0	1282982	683	0	correct_rejection	NA	0
33	Triplet	91	91	1549	4	0	0	1283698	684	0	correct_rejection	NA	0
33	Triplet	92	92	1550	5	0	0	1284415	683	0	correct_rejection	NA	0
33	Triplet	93	93	1551	6	0	0	1285132	683	0	correct_rejection	NA	0
33	Triplet	94	94	1552	4	0	0	1285848	684	0	correct_rejection	NA	0
33	Triplet	95	95	1553	0	1	1	1286565	683	1	hit	478	0
33	Triplet	96	96	1554	5	0	0	1287282	683	0	correct_rejection	NA	0
33	Triplet	97	97	1555	6	0	0	1287998	684	0	correct_rejection	NA	0
33	Triplet	98	98	1556	7	0	0	1288715	683	0	correct_rejection	NA	0
33	Triplet	99	99	1557	8	0	0	1289432	683	0	correct_rejection	NA	0
33	Triplet	100	100	1558	9	0	0	1290148	684	0	correct_rejection	NA	0
33	Triplet	101	101	1559	7	0	0	1290865	683	0	correct_rejection	NA	0
33	Triplet	102	102	1560	8	0	0	1291582	683	0	correct_rejection	NA	0
33	Triplet	103	103	1561	9	0	0	1292298	684	0	correct_rejection	NA	0
33	Triplet	104	104	1562	6	0	0	1293015	683	0	correct_rejection	NA	0
33	Triplet	105	105	1563	5	0	0	1293732	683	0	correct_rejection	NA	0
33	Triplet	106	106	1564	4	0	0	1294448	684	0	correct_rejection	NA	0
33	Triplet	107	107	1565	9	0	0	1295165	683	0	correct_rejection	NA	0
33	Triplet	108	108	1566	8	0	0	1295882	683	0	correct_rejection	NA	0
33	Triplet	109	109	1567	0	1	1	1296598	684	1	hit	499	0
33	Triplet	110	110	1568	7	0	0	1297315	683	0	correct_rejection	NA	0
33	Triplet	111	111	1569	7	0	0	1298032	683	0	correct_rejection	NA	0
33	Triplet	112	112	1570	8	0	0	1298748	684	0	correct_rejection	NA	0
33	Triplet	113	113	1571	9	0	0	1299465	683	0	correct_rejection	NA	0
33	Triplet	114	114	1572	4	0	0	1300182	683	0	correct_rejection	NA	0
33	Triplet	115	115	1573	5	0	0	1300898	684	0	correct_rejection	NA	0
33	Triplet	116	116	1574	6	0	0	1301615	683	0	correct_rejection	NA	0
33	Triplet	117	117	1575	4	0	0	1302332	683	0	correct_rejection	NA	0
33	Triplet	118	118	1576	5	0	0	1303048	684	0	correct_rejection	NA	0
33	Triplet	119	119	1577	6	0	0	1303765	683	0	correct_rejection	NA	0
33	Triplet	120	120	1578	0	1	2	1304481	684	1	hit	554	0
33	Triplet	121	121	1579	9	0	0	1305198	684	0	correct_rejection	NA	0
33	Triplet	122	122	1580	8	0	0	1305915	683	0	correct_rejection	NA	0
33	Triplet	123	123	1581	7	0	0	1306631	684	0	correct_rejection	NA	0
33	Triplet	124	124	1582	4	0	0	1307348	683	0	correct_rejection	NA	0
33	Triplet	125	125	1583	5	0	0	1308065	683	0	correct_rejection	NA	0
33	Triplet	126	126	1584	6	0	0	1308781	684	0	correct_rejection	NA	0
33	Triplet	127	127	1585	7	0	0	1309498	683	0	correct_rejection	NA	0
33	Triplet	128	128	1586	8	0	0	1310215	683	0	correct_rejection	NA	0
33	Triplet	129	129	1587	0	1	1	1310931	684	0	miss	NA	0
33	Triplet	130	130	1588	9	0	0	1311648	683	0	correct_rejection	NA	0
33	Triplet	131	131	1589	6	0	0	1312365	683	0	correct_rejection	NA	0
33	Triplet	132	132	1590	5	0	0	1313081	684	0	correct_rejection	NA	0
33	Triplet	133	133	1591	4	0	0	1313798	683	0	correct_rejection	NA	0
33	Triplet	134	134	1592	0	1	2	1314515	683	1	hit	536	0
33	Triplet	135	135	1593	4	0	0	1315231	684	0	correct_rejection	NA	0
33	Triplet	136	136	1594	5	0	0	1315948	683	0	correct_rejection	NA	0
