ID	block	trial_block	trial_cat	trial_total	number	violation	level_violation	onset	duration	Response	Hit_Miss	RT	pre_trial_fixcross_ISI
first_trigger_at: 11181
trigger nr 3 at 13181
34	Triplet	1	325	1	6	0	0	19649	684	0	correct_rejection	NA	6387
34	Triplet	2	326	2	5	0	0	20366	683	0	correct_rejection	NA	0
34	Triplet	3	327	3	4	0	0	21082	684	0	correct_rejection	NA	0
34	Triplet	4	328	4	6	0	0	21799	683	0	correct_rejection	NA	0
34	Triplet	5	329	5	5	0	0	22516	683	0	correct_rejection	NA	0
34	Triplet	6	330	6	4	0	0	23232	684	0	correct_rejection	NA	0
34	Triplet	7	331	7	9	0	0	23949	683	0	correct_rejection	NA	0
34	Triplet	8	332	8	8	0	0	24666	683	0	correct_rejection	NA	0
34	Triplet	9	333	9	7	0	0	25382	684	0	correct_rejection	NA	0
34	Triplet	10	334	10	9	0	0	26099	683	0	correct_rejection	NA	0
34	Triplet	11	335	11	8	0	0	26816	683	0	correct_rejection	NA	0
34	Triplet	12	336	12	7	0	0	27532	684	0	correct_rejection	NA	0
34	Triplet	13	337	13	7	0	0	28249	683	0	correct_rejection	NA	0
34	Triplet	14	338	14	0	1	1	28966	683	1	hit	412	0
34	Triplet	15	339	15	8	0	0	29682	684	0	correct_rejection	NA	0
34	Triplet	16	340	16	9	0	0	30399	683	0	correct_rejection	NA	0
34	Triplet	17	341	17	9	0	0	31116	683	0	correct_rejection	NA	0
34	Triplet	18	342	18	8	0	0	31832	684	0	correct_rejection	NA	0
34	Triplet	19	343	19	7	0	0	32549	683	0	correct_rejection	NA	0
34	Triplet	20	344	20	6	0	0	33266	683	0	correct_rejection	NA	0
34	Triplet	21	345	21	5	0	0	33982	684	0	correct_rejection	NA	0
34	Triplet	22	346	22	4	0	0	34699	683	0	correct_rejection	NA	0
34	Triplet	23	347	23	7	0	0	35416	683	0	correct_rejection	NA	0
34	Triplet	24	348	24	8	0	0	36132	684	0	correct_rejection	NA	0
34	Triplet	25	349	25	9	0	0	36849	683	0	correct_rejection	NA	0
34	Triplet	26	350	26	4	0	0	37566	683	0	correct_rejection	NA	0
34	Triplet	27	351	27	5	0	0	38282	684	0	correct_rejection	NA	0
34	Triplet	28	352	28	6	0	0	38999	683	0	correct_rejection	NA	0
34	Triplet	29	353	29	6	0	0	39716	683	0	correct_rejection	NA	0
34	Triplet	30	354	30	0	1	1	40432	684	1	hit	562	0
34	Triplet	31	355	31	5	0	0	41149	683	0	correct_rejection	NA	0
34	Triplet	32	356	32	4	0	0	41865	684	0	correct_rejection	NA	0
34	Triplet	33	357	33	4	0	0	42582	683	0	correct_rejection	NA	0
34	Triplet	34	358	34	5	0	0	43299	683	0	correct_rejection	NA	0
34	Triplet	35	359	35	6	0	0	44015	684	0	correct_rejection	NA	0
34	Triplet	36	360	36	9	0	0	44732	683	0	correct_rejection	NA	0
34	Triplet	37	361	37	8	0	0	45449	683	0	correct_rejection	NA	0
34	Triplet	38	362	38	7	0	0	46165	684	0	correct_rejection	NA	0
34	Triplet	39	363	39	4	0	0	46882	683	0	correct_rejection	NA	0
34	Triplet	40	364	40	5	0	0	47599	683	0	correct_rejection	NA	0
34	Triplet	41	365	41	6	0	0	48315	684	0	correct_rejection	NA	0
34	Triplet	42	366	42	4	0	0	49032	683	0	correct_rejection	NA	0
34	Triplet	43	367	43	0	1	1	49749	683	1	hit	512	0
34	Triplet	44	368	44	5	0	0	50465	684	0	correct_rejection	NA	0
34	Triplet	45	369	45	6	0	0	51182	683	0	correct_rejection	NA	0
34	Triplet	46	370	46	7	0	0	51899	683	0	correct_rejection	NA	0
34	Triplet	47	371	47	8	0	0	52615	684	0	correct_rejection	NA	0
34	Triplet	48	372	48	9	0	0	53332	683	0	correct_rejection	NA	0
34	Triplet	49	373	49	7	0	0	54049	683	0	correct_rejection	NA	0
34	Triplet	50	374	50	8	0	0	54765	684	0	correct_rejection	NA	0
34	Triplet	51	375	51	9	0	0	55482	683	0	correct_rejection	NA	0
34	Triplet	52	376	52	0	1	2	56199	683	1	hit	591	0
34	Triplet	53	377	53	6	0	0	56915	684	0	correct_rejection	NA	0
34	Triplet	54	378	54	5	0	0	57632	683	0	correct_rejection	NA	0
34	Triplet	55	379	55	4	0	0	58349	683	0	correct_rejection	NA	0
34	Triplet	56	380	56	0	1	2	59065	684	1	hit	467	0
34	Triplet	57	381	57	7	0	0	59782	683	0	correct_rejection	NA	0
34	Triplet	58	382	58	8	0	0	60499	683	0	correct_rejection	NA	0
34	Triplet	59	383	59	9	0	0	61215	684	0	correct_rejection	NA	0
34	Triplet	60	384	60	9	0	0	61932	683	0	correct_rejection	NA	0
34	Triplet	61	385	61	8	0	0	62649	683	0	correct_rejection	NA	0
34	Triplet	62	386	62	7	0	0	63365	684	0	correct_rejection	NA	0
34	Triplet	63	387	63	4	0	0	64082	683	0	correct_rejection	NA	0
34	Triplet	64	388	64	5	0	0	64798	684	0	correct_rejection	NA	0
34	Triplet	65	389	65	6	0	0	65515	683	0	correct_rejection	NA	0
34	Triplet	66	390	66	7	0	0	66232	683	0	correct_rejection	NA	0
34	Triplet	67	391	67	8	0	0	66948	684	0	correct_rejection	NA	0
34	Triplet	68	392	68	0	1	1	67665	683	1	hit	461	0
34	Triplet	69	393	69	9	0	0	68382	683	0	correct_rejection	NA	0
34	Triplet	70	394	70	4	0	0	69098	684	0	correct_rejection	NA	0
34	Triplet	71	395	71	5	0	0	69815	683	0	correct_rejection	NA	0
34	Triplet	72	396	72	0	1	1	70532	683	1	hit	501	0
34	Triplet	73	397	73	6	0	0	71248	684	0	correct_rejection	NA	0
34	Triplet	74	398	74	4	0	0	71965	683	0	correct_rejection	NA	0
34	Triplet	75	399	75	0	1	1	72682	683	1	hit	514	0
34	Triplet	76	400	76	5	0	0	73398	684	0	correct_rejection	NA	0
34	Triplet	77	401	77	6	0	0	74115	683	0	correct_rejection	NA	0
34	Triplet	78	402	78	9	0	0	74832	683	0	correct_rejection	NA	0
34	Triplet	79	403	79	0	1	1	75548	684	1	hit	336	0
34	Triplet	80	404	80	8	0	0	76265	683	0	correct_rejection	NA	0
34	Triplet	81	405	81	7	0	0	76982	683	0	correct_rejection	NA	0
34	Triplet	82	406	82	9	0	0	77698	684	0	correct_rejection	NA	0
34	Triplet	83	407	83	8	0	0	78415	683	0	correct_rejection	NA	0
34	Triplet	84	408	84	7	0	0	79132	683	0	correct_rejection	NA	0
34	Triplet	85	409	85	6	0	0	79848	684	0	correct_rejection	NA	0
34	Triplet	86	410	86	5	0	0	80565	683	0	correct_rejection	NA	0
34	Triplet	87	411	87	4	0	0	81282	683	0	correct_rejection	NA	0
34	Triplet	88	412	88	4	0	0	81998	684	0	correct_rejection	NA	0
34	Triplet	89	413	89	5	0	0	82715	683	0	correct_rejection	NA	0
34	Triplet	90	414	90	6	0	0	83432	683	0	correct_rejection	NA	0
34	Triplet	91	415	91	6	0	0	84148	684	0	correct_rejection	NA	0
34	Triplet	92	416	92	5	0	0	84865	683	0	correct_rejection	NA	0
34	Triplet	93	417	93	4	0	0	85581	684	0	correct_rejection	NA	0
34	Triplet	94	418	94	9	0	0	86298	683	0	correct_rejection	NA	0
34	Triplet	95	419	95	8	0	0	87015	683	0	correct_rejection	NA	0
34	Triplet	96	420	96	7	0	0	87731	684	0	correct_rejection	NA	0
34	Triplet	97	421	97	0	1	2	88448	683	1	hit	441	0
34	Triplet	98	422	98	7	0	0	89165	683	0	correct_rejection	NA	0
34	Triplet	99	423	99	8	0	0	89881	684	0	correct_rejection	NA	0
34	Triplet	100	424	100	9	0	0	90598	683	0	correct_rejection	NA	0
34	Triplet	101	425	101	7	0	0	91315	683	0	correct_rejection	NA	0
34	Triplet	102	426	102	8	0	0	92031	684	0	correct_rejection	NA	0
34	Triplet	103	427	103	9	0	0	92748	683	0	correct_rejection	NA	0
34	Triplet	104	428	104	6	0	0	93465	683	0	correct_rejection	NA	0
34	Triplet	105	429	105	5	0	0	94181	684	0	correct_rejection	NA	0
34	Triplet	106	430	106	4	0	0	94898	683	0	correct_rejection	NA	0
34	Triplet	107	431	107	0	1	2	95615	683	1	hit	418	0
34	Triplet	108	432	108	6	0	0	96331	684	0	correct_rejection	NA	0
34	Triplet	109	433	109	5	0	0	97048	683	0	correct_rejection	NA	0
34	Triplet	110	434	110	0	1	1	97765	683	1	hit	540	0
34	Triplet	111	435	111	4	0	0	98481	684	0	correct_rejection	NA	0
34	Triplet	112	436	112	9	0	0	99198	683	0	correct_rejection	NA	0
34	Triplet	113	437	113	8	0	0	99915	683	0	correct_rejection	NA	0
34	Triplet	114	438	114	7	0	0	100631	684	0	correct_rejection	NA	0
34	Triplet	115	439	115	4	0	0	101348	683	0	correct_rejection	NA	0
34	Triplet	116	440	116	5	0	0	102065	683	0	correct_rejection	NA	0
34	Triplet	117	441	117	6	0	0	102781	684	0	correct_rejection	NA	0
34	Triplet	118	442	118	9	0	0	103498	683	0	correct_rejection	NA	0
34	Triplet	119	443	119	8	0	0	104215	683	0	correct_rejection	NA	0
34	Triplet	120	444	120	7	0	0	104931	684	0	correct_rejection	NA	0
34	Triplet	121	445	121	7	0	0	105648	683	0	correct_rejection	NA	0
34	Triplet	122	446	122	8	0	0	106364	684	0	correct_rejection	NA	0
34	Triplet	123	447	123	9	0	0	107081	683	0	correct_rejection	NA	0
34	Triplet	124	448	124	6	0	0	107798	683	0	correct_rejection	NA	0
34	Triplet	125	449	125	5	0	0	108514	684	0	correct_rejection	NA	0
34	Triplet	126	450	126	4	0	0	109231	683	0	correct_rejection	NA	0
34	Triplet	127	451	127	4	0	0	109948	683	0	correct_rejection	NA	0
34	Triplet	128	452	128	0	1	1	110664	684	1	hit	475	0
34	Triplet	129	453	129	5	0	0	111381	683	0	correct_rejection	NA	0
34	Triplet	130	454	130	6	0	0	112098	683	0	correct_rejection	NA	0
34	Triplet	131	455	131	0	1	2	112814	684	1	hit	541	0
34	Triplet	132	456	132	4	0	0	113531	683	0	correct_rejection	NA	0
34	Triplet	133	457	133	5	0	0	114248	683	0	correct_rejection	NA	0
34	Triplet	134	458	134	6	0	0	114964	684	0	correct_rejection	NA	0
34	Triplet	135	459	135	6	0	0	115681	683	0	correct_rejection	NA	0
34	Triplet	136	460	136	5	0	0	116398	683	0	correct_rejection	NA	0
34	Triplet	137	461	137	4	0	0	117114	684	0	correct_rejection	NA	0
34	Triplet	138	462	138	6	0	0	117831	683	0	correct_rejection	NA	0
34	Triplet	139	463	139	5	0	0	118548	683	0	correct_rejection	NA	0
34	Triplet	140	464	140	0	1	1	119264	684	1	hit	491	0
34	Triplet	141	465	141	4	0	0	119981	683	0	correct_rejection	NA	0
34	Triplet	142	466	142	7	0	0	120698	683	0	correct_rejection	NA	0
34	Triplet	143	467	143	8	0	0	121414	684	0	correct_rejection	NA	0
34	Triplet	144	468	144	9	0	0	122131	683	0	correct_rejection	NA	0
34	Triplet	145	469	145	7	0	0	122848	683	0	correct_rejection	NA	0
34	Triplet	146	470	146	8	0	0	123564	684	0	correct_rejection	NA	0
34	Triplet	147	471	147	9	0	0	124281	683	0	correct_rejection	NA	0
34	Triplet	148	472	148	4	0	0	124998	683	0	correct_rejection	NA	0
34	Triplet	149	473	149	5	0	0	125714	684	0	correct_rejection	NA	0
34	Triplet	150	474	150	6	0	0	126431	683	0	correct_rejection	NA	0
34	Triplet	151	475	151	0	1	2	127147	684	1	hit	413	0
34	Triplet	152	476	152	7	0	0	127864	684	0	correct_rejection	NA	0
34	Triplet	153	477	153	8	0	0	128581	683	0	correct_rejection	NA	0
34	Triplet	154	478	154	0	1	1	129297	684	1	hit	531	0
34	Triplet	155	479	155	9	0	0	130014	683	0	correct_rejection	NA	0
34	Triplet	156	480	156	9	0	0	130731	683	0	correct_rejection	NA	0
34	Triplet	157	481	157	8	0	0	131447	684	0	correct_rejection	NA	0
34	Triplet	158	482	158	7	0	0	132164	683	0	correct_rejection	NA	0
34	Triplet	159	483	159	9	0	0	132881	683	0	correct_rejection	NA	0
34	Triplet	160	484	160	0	1	1	133597	684	1	hit	495	0
34	Triplet	161	485	161	8	0	0	134314	683	0	correct_rejection	NA	0
34	Triplet	162	486	162	7	0	0	135031	683	0	correct_rejection	NA	0
34	Nonet	1	1	163	9	0	0	143681	683	0	correct_rejection	NA	6436
34	Nonet	2	2	164	8	0	0	144397	684	0	correct_rejection	NA	0
34	Nonet	3	3	165	7	0	0	145114	683	0	correct_rejection	NA	0
34	Nonet	4	4	166	9	0	0	145831	683	0	correct_rejection	NA	0
34	Nonet	5	5	167	8	0	0	146547	684	0	correct_rejection	NA	0
34	Nonet	6	6	168	7	0	0	147264	683	0	correct_rejection	NA	0
34	Nonet	7	7	169	9	0	0	147981	683	0	correct_rejection	NA	0
34	Nonet	8	8	170	8	0	0	148697	684	0	correct_rejection	NA	0
34	Nonet	9	9	171	7	0	0	149414	683	0	correct_rejection	NA	0
34	Nonet	10	10	172	6	0	0	150130	684	0	correct_rejection	NA	0
34	Nonet	11	11	173	5	0	0	150847	683	0	correct_rejection	NA	0
34	Nonet	12	12	174	4	0	0	151564	683	0	correct_rejection	NA	0
34	Nonet	13	13	175	6	0	0	152280	684	0	correct_rejection	NA	0
34	Nonet	14	14	176	5	0	0	152997	683	0	correct_rejection	NA	0
34	Nonet	15	15	177	4	0	0	153714	683	0	correct_rejection	NA	0
34	Nonet	16	16	178	6	0	0	154430	684	0	correct_rejection	NA	0
34	Nonet	17	17	179	0	1	1	155147	683	1	hit	479	0
34	Nonet	18	18	180	5	0	0	155864	683	0	correct_rejection	NA	0
34	Nonet	19	19	181	4	0	0	156580	684	0	correct_rejection	NA	0
34	Nonet	20	20	182	6	0	0	157297	683	0	correct_rejection	NA	0
34	Nonet	21	21	183	5	0	0	158014	683	0	correct_rejection	NA	0
34	Nonet	22	22	184	0	1	1	158730	684	1	hit	450	0
34	Nonet	23	23	185	4	0	0	159447	683	0	correct_rejection	NA	0
34	Nonet	24	24	186	6	0	0	160164	683	0	correct_rejection	NA	0
34	Nonet	25	25	187	5	0	0	160880	684	0	correct_rejection	NA	0
34	Nonet	26	26	188	4	0	0	161597	683	0	correct_rejection	NA	0
34	Nonet	27	27	189	6	0	0	162314	683	0	correct_rejection	NA	0
34	Nonet	28	28	190	5	0	0	163030	684	0	correct_rejection	NA	0
34	Nonet	29	29	191	4	0	0	163747	683	0	correct_rejection	NA	0
34	Nonet	30	30	192	9	0	0	164464	683	0	correct_rejection	NA	0
34	Nonet	31	31	193	8	0	0	165180	684	0	correct_rejection	NA	0
34	Nonet	32	32	194	0	1	1	165897	683	1	hit	442	0
34	Nonet	33	33	195	7	0	0	166614	683	0	correct_rejection	NA	0
34	Nonet	34	34	196	9	0	0	167330	684	0	correct_rejection	NA	0
34	Nonet	35	35	197	8	0	0	168047	683	0	correct_rejection	NA	0
34	Nonet	36	36	198	7	0	0	168764	683	0	correct_rejection	NA	0
34	Nonet	37	37	199	9	0	0	169480	684	0	correct_rejection	NA	0
34	Nonet	38	38	200	8	0	0	170197	683	0	correct_rejection	NA	0
34	Nonet	39	39	201	7	0	0	170913	684	0	correct_rejection	NA	0
34	Nonet	40	40	202	4	0	0	171630	683	0	correct_rejection	NA	0
34	Nonet	41	41	203	5	0	0	172347	683	0	correct_rejection	NA	0
34	Nonet	42	42	204	6	0	0	173063	684	0	correct_rejection	NA	0
34	Nonet	43	43	205	0	1	2	173780	683	1	hit	477	0
34	Nonet	44	44	206	4	0	0	174497	683	0	correct_rejection	NA	0
34	Nonet	45	45	207	5	0	0	175213	684	0	correct_rejection	NA	0
34	Nonet	46	46	208	6	0	0	175930	683	0	correct_rejection	NA	0
34	Nonet	47	47	209	0	1	2	176647	683	1	hit	589	0
34	Nonet	48	48	210	4	0	0	177363	684	0	correct_rejection	NA	0
34	Nonet	49	49	211	5	0	0	178080	683	0	correct_rejection	NA	0
34	Nonet	50	50	212	6	0	0	178797	683	0	correct_rejection	NA	0
34	Nonet	51	51	213	4	0	0	179513	684	0	correct_rejection	NA	0
34	Nonet	52	52	214	5	0	0	180230	683	0	correct_rejection	NA	0
34	Nonet	53	53	215	0	1	1	180947	683	1	hit	523	0
34	Nonet	54	54	216	6	0	0	181663	684	0	correct_rejection	NA	0
34	Nonet	55	55	217	4	0	0	182380	683	0	correct_rejection	NA	0
34	Nonet	56	56	218	5	0	0	183097	683	0	correct_rejection	NA	0
34	Nonet	57	57	219	6	0	0	183813	684	0	correct_rejection	NA	0
34	Nonet	58	58	220	4	0	0	184530	683	0	correct_rejection	NA	0
34	Nonet	59	59	221	5	0	0	185247	683	0	correct_rejection	NA	0
34	Nonet	60	60	222	6	0	0	185963	684	0	correct_rejection	NA	0
34	Nonet	61	61	223	7	0	0	186680	683	0	correct_rejection	NA	0
34	Nonet	62	62	224	8	0	0	187397	683	0	correct_rejection	NA	0
34	Nonet	63	63	225	9	0	0	188113	684	0	correct_rejection	NA	0
34	Nonet	64	64	226	7	0	0	188830	683	0	correct_rejection	NA	0
34	Nonet	65	65	227	8	0	0	189547	683	0	correct_rejection	NA	0
34	Nonet	66	66	228	0	1	1	190263	684	1	hit	482	0
34	Nonet	67	67	229	9	0	0	190980	683	0	correct_rejection	NA	0
34	Nonet	68	68	230	7	0	0	191696	684	0	correct_rejection	NA	0
34	Nonet	69	69	231	8	0	0	192413	683	0	correct_rejection	NA	0
34	Nonet	70	70	232	9	0	0	193130	683	0	correct_rejection	NA	0
34	Nonet	71	71	233	4	0	0	193846	684	0	correct_rejection	NA	0
34	Nonet	72	72	234	5	0	0	194563	683	0	correct_rejection	NA	0
34	Nonet	73	73	235	6	0	0	195280	683	0	correct_rejection	NA	0
34	Nonet	74	74	236	4	0	0	195996	684	0	correct_rejection	NA	0
34	Nonet	75	75	237	5	0	0	196713	683	0	correct_rejection	NA	0
34	Nonet	76	76	238	6	0	0	197430	683	0	correct_rejection	NA	0
34	Nonet	77	77	239	4	0	0	198146	684	0	correct_rejection	NA	0
34	Nonet	78	78	240	5	0	0	198863	683	0	correct_rejection	NA	0
34	Nonet	79	79	241	6	0	0	199580	683	0	correct_rejection	NA	0
34	Nonet	80	80	242	9	0	0	200296	684	0	correct_rejection	NA	0
34	Nonet	81	81	243	8	0	0	201013	683	0	correct_rejection	NA	0
34	Nonet	82	82	244	0	1	1	201730	683	1	hit	475	0
34	Nonet	83	83	245	7	0	0	202446	684	0	correct_rejection	NA	0
34	Nonet	84	84	246	9	0	0	203163	683	0	correct_rejection	NA	0
34	Nonet	85	85	247	8	0	0	203880	683	0	correct_rejection	NA	0
34	Nonet	86	86	248	0	1	1	204596	684	1	hit	487	0
34	Nonet	87	87	249	7	0	0	205313	683	0	correct_rejection	NA	0
34	Nonet	88	88	250	9	0	0	206030	683	0	correct_rejection	NA	0
34	Nonet	89	89	251	8	0	0	206746	684	0	correct_rejection	NA	0
34	Nonet	90	90	252	7	0	0	207463	683	0	correct_rejection	NA	0
34	Nonet	91	91	253	0	1	3	208180	683	1	hit	493	0
34	Nonet	92	92	254	9	0	0	208896	684	0	correct_rejection	NA	0
34	Nonet	93	93	255	8	0	0	209613	683	0	correct_rejection	NA	0
34	Nonet	94	94	256	7	0	0	210330	683	0	correct_rejection	NA	0
34	Nonet	95	95	257	9	0	0	211046	684	0	correct_rejection	NA	0
34	Nonet	96	96	258	8	0	0	211763	683	0	correct_rejection	NA	0
34	Nonet	97	97	259	7	0	0	212479	684	0	correct_rejection	NA	0
34	Nonet	98	98	260	9	0	0	213196	684	0	correct_rejection	NA	0
34	Nonet	99	99	261	8	0	0	213913	683	0	correct_rejection	NA	0
34	Nonet	100	100	262	7	0	0	214629	684	0	correct_rejection	NA	0
34	Nonet	101	101	263	7	0	0	215346	683	0	correct_rejection	NA	0
34	Nonet	102	102	264	0	1	1	216063	683	0	miss	NA	0
34	Nonet	103	103	265	8	0	0	216779	684	0	correct_rejection	NA	0
34	Nonet	104	104	266	9	0	0	217496	683	0	correct_rejection	NA	0
34	Nonet	105	105	267	7	0	0	218213	683	0	correct_rejection	NA	0
34	Nonet	106	106	268	8	0	0	218929	684	0	correct_rejection	NA	0
34	Nonet	107	107	269	9	0	0	219646	683	0	correct_rejection	NA	0
34	Nonet	108	108	270	7	0	0	220363	683	0	correct_rejection	NA	0
34	Nonet	109	109	271	8	0	0	221079	684	0	correct_rejection	NA	0
34	Nonet	110	110	272	9	0	0	221796	683	0	correct_rejection	NA	0
34	Nonet	111	111	273	6	0	0	222513	683	0	correct_rejection	NA	0
34	Nonet	112	112	274	5	0	0	223229	684	0	correct_rejection	NA	0
34	Nonet	113	113	275	0	1	1	223946	683	1	hit	524	0
34	Nonet	114	114	276	4	0	0	224663	683	0	correct_rejection	NA	0
34	Nonet	115	115	277	6	0	0	225379	684	0	correct_rejection	NA	0
34	Nonet	116	116	278	5	0	0	226096	683	0	correct_rejection	NA	0
34	Nonet	117	117	279	4	0	0	226813	683	0	correct_rejection	NA	0
34	Nonet	118	118	280	0	1	2	227529	684	1	hit	453	0
34	Nonet	119	119	281	6	0	0	228246	683	0	correct_rejection	NA	0
34	Nonet	120	120	282	5	0	0	228963	683	0	correct_rejection	NA	0
34	Nonet	121	121	283	4	0	0	229679	684	0	correct_rejection	NA	0
34	Nonet	122	122	284	4	0	0	230396	683	0	correct_rejection	NA	0
34	Nonet	123	123	285	5	0	0	231113	683	0	correct_rejection	NA	0
34	Nonet	124	124	286	6	0	0	231829	684	0	correct_rejection	NA	0
34	Nonet	125	125	287	4	0	0	232546	683	0	correct_rejection	NA	0
34	Nonet	126	126	288	5	0	0	233262	684	0	correct_rejection	NA	0
34	Nonet	127	127	289	0	1	1	233979	684	1	hit	462	0
34	Nonet	128	128	290	6	0	0	234696	683	0	correct_rejection	NA	0
34	Nonet	129	129	291	4	0	0	235412	684	0	correct_rejection	NA	0
34	Nonet	130	130	292	0	1	1	236129	683	1	hit	571	0
34	Nonet	131	131	293	5	0	0	236846	683	0	correct_rejection	NA	0
34	Nonet	132	132	294	6	0	0	237562	684	0	correct_rejection	NA	0
34	Nonet	133	133	295	6	0	0	238279	683	0	correct_rejection	NA	0
34	Nonet	134	134	296	5	0	0	238996	683	0	correct_rejection	NA	0
34	Nonet	135	135	297	4	0	0	239712	684	0	correct_rejection	NA	0
34	Nonet	136	136	298	6	0	0	240429	683	0	correct_rejection	NA	0
34	Nonet	137	137	299	5	0	0	241146	683	0	correct_rejection	NA	0
34	Nonet	138	138	300	4	0	0	241862	684	0	correct_rejection	NA	0
34	Nonet	139	139	301	6	0	0	242579	683	0	correct_rejection	NA	0
34	Nonet	140	140	302	5	0	0	243296	683	0	correct_rejection	NA	0
34	Nonet	141	141	303	4	0	0	244012	684	0	correct_rejection	NA	0
34	Nonet	142	142	304	7	0	0	244729	683	0	correct_rejection	NA	0
34	Nonet	143	143	305	8	0	0	245446	683	0	correct_rejection	NA	0
34	Nonet	144	144	306	0	1	1	246162	684	1	hit	484	0
34	Nonet	145	145	307	9	0	0	246879	683	0	correct_rejection	NA	0
34	Nonet	146	146	308	7	0	0	247596	683	0	correct_rejection	NA	0
34	Nonet	147	147	309	8	0	0	248312	684	0	correct_rejection	NA	0
34	Nonet	148	148	310	9	0	0	249029	683	0	correct_rejection	NA	0
34	Nonet	149	149	311	0	1	2	249746	683	1	hit	457	0
34	Nonet	150	150	312	7	0	0	250462	684	0	correct_rejection	NA	0
34	Nonet	151	151	313	8	0	0	251179	683	0	correct_rejection	NA	0
34	Nonet	152	152	314	9	0	0	251896	683	0	correct_rejection	NA	0
34	Nonet	153	153	315	7	0	0	252612	684	0	correct_rejection	NA	0
34	Nonet	154	154	316	8	0	0	253329	683	0	correct_rejection	NA	0
34	Nonet	155	155	317	9	0	0	254046	683	0	correct_rejection	NA	0
34	Nonet	156	156	318	7	0	0	254762	684	0	correct_rejection	NA	0
34	Nonet	157	157	319	8	0	0	255479	683	0	correct_rejection	NA	0
34	Nonet	158	158	320	9	0	0	256195	684	0	correct_rejection	NA	0
34	Nonet	159	159	321	0	1	2	256912	683	1	hit	429	0
34	Nonet	160	160	322	7	0	0	257629	683	0	correct_rejection	NA	0
34	Nonet	161	161	323	8	0	0	258345	684	0	correct_rejection	NA	0
34	Nonet	162	162	324	9	0	0	259062	683	0	correct_rejection	NA	0
34	Single	1	163	325	8	0	0	268245	684	0	correct_rejection	NA	7007
34	Single	2	164	326	6	0	0	268962	683	0	correct_rejection	NA	0
34	Single	3	165	327	7	0	0	269679	683	0	correct_rejection	NA	0
34	Single	4	166	328	5	0	0	270395	684	0	correct_rejection	NA	0
34	Single	5	167	329	0	1	1	271112	683	1	hit	477	0
34	Single	6	168	330	5	0	0	271829	683	0	correct_rejection	NA	0
34	Single	7	169	331	7	0	0	272545	684	0	correct_rejection	NA	0
34	Single	8	170	332	6	0	0	273262	683	0	correct_rejection	NA	0
34	Single	9	171	333	0	1	1	273979	683	1	hit	481	0
34	Single	10	172	334	8	0	0	274695	684	0	correct_rejection	NA	0
34	Single	11	173	335	7	0	0	275412	683	0	correct_rejection	NA	0
34	Single	12	174	336	7	0	0	276128	684	0	correct_rejection	NA	0
34	Single	13	175	337	8	0	0	276845	684	0	correct_rejection	NA	0
34	Single	14	176	338	8	0	0	277562	683	0	correct_rejection	NA	0
34	Single	15	177	339	4	0	0	278278	684	0	correct_rejection	NA	0
34	Single	16	178	340	7	0	0	278995	683	0	correct_rejection	NA	0
34	Single	17	179	341	0	1	1	279712	683	1	hit	456	0
34	Single	18	180	342	9	0	0	280428	684	0	correct_rejection	NA	0
34	Single	19	181	343	6	0	0	281145	683	0	correct_rejection	NA	0
34	Single	20	182	344	5	0	0	281862	683	0	correct_rejection	NA	0
34	Single	21	183	345	9	0	0	282578	684	0	correct_rejection	NA	0
34	Single	22	184	346	7	0	0	283295	683	0	correct_rejection	NA	0
34	Single	23	185	347	4	0	0	284012	683	0	correct_rejection	NA	0
34	Single	24	186	348	4	0	0	284728	684	0	correct_rejection	NA	0
34	Single	25	187	349	0	1	1	285445	683	1	hit	508	0
34	Single	26	188	350	6	0	0	286162	683	0	correct_rejection	NA	0
34	Single	27	189	351	9	0	0	286878	684	0	correct_rejection	NA	0
34	Single	28	190	352	9	0	0	287595	683	0	correct_rejection	NA	0
34	Single	29	191	353	5	0	0	288312	683	0	correct_rejection	NA	0
34	Single	30	192	354	6	0	0	289028	684	0	correct_rejection	NA	0
34	Single	31	193	355	6	0	0	289745	683	0	correct_rejection	NA	0
34	Single	32	194	356	0	1	1	290462	683	1	hit	645	0
34	Single	33	195	357	4	0	0	291178	684	0	correct_rejection	NA	0
34	Single	34	196	358	8	0	0	291895	683	0	correct_rejection	NA	0
34	Single	35	197	359	5	0	0	292612	683	0	correct_rejection	NA	0
34	Single	36	198	360	4	0	0	293328	684	0	correct_rejection	NA	0
34	Single	37	199	361	9	0	0	294045	683	0	correct_rejection	NA	0
34	Single	38	200	362	4	0	0	294762	683	0	correct_rejection	NA	0
34	Single	39	201	363	5	0	0	295478	684	0	correct_rejection	NA	0
34	Single	40	202	364	8	0	0	296195	683	0	correct_rejection	NA	0
34	Single	41	203	365	9	0	0	296912	683	0	correct_rejection	NA	0
34	Single	42	204	366	9	0	0	297628	683	0	correct_rejection	NA	0
34	Single	43	205	367	7	0	0	298345	683	0	correct_rejection	NA	0
34	Single	44	206	368	6	0	0	299061	684	0	correct_rejection	NA	0
34	Single	45	207	369	9	0	0	299778	683	0	correct_rejection	NA	0
34	Single	46	208	370	6	0	0	300495	683	0	correct_rejection	NA	0
34	Single	47	209	371	8	0	0	301211	684	0	correct_rejection	NA	0
34	Single	48	210	372	0	1	1	301928	683	1	hit	510	0
34	Single	49	211	373	4	0	0	302645	683	0	correct_rejection	NA	0
34	Single	50	212	374	8	0	0	303361	684	0	correct_rejection	NA	0
34	Single	51	213	375	8	0	0	304078	683	0	correct_rejection	NA	0
34	Single	52	214	376	0	1	1	304795	683	1	hit	532	0
34	Single	53	215	377	5	0	0	305511	684	0	correct_rejection	NA	0
34	Single	54	216	378	7	0	0	306228	683	0	correct_rejection	NA	0
34	Single	55	217	379	7	0	0	306945	683	0	correct_rejection	NA	0
34	Single	56	218	380	5	0	0	307661	684	0	correct_rejection	NA	0
34	Single	57	219	381	6	0	0	308378	683	0	correct_rejection	NA	0
34	Single	58	220	382	4	0	0	309095	683	0	correct_rejection	NA	0
34	Single	59	221	383	7	0	0	309811	684	0	correct_rejection	NA	0
34	Single	60	222	384	0	1	1	310528	683	1	hit	463	0
34	Single	61	223	385	4	0	0	311245	683	0	correct_rejection	NA	0
34	Single	62	224	386	6	0	0	311961	684	0	correct_rejection	NA	0
34	Single	63	225	387	5	0	0	312678	683	0	correct_rejection	NA	0
34	Single	64	226	388	5	0	0	313395	683	0	correct_rejection	NA	0
34	Single	65	227	389	8	0	0	314111	684	0	correct_rejection	NA	0
34	Single	66	228	390	0	1	1	314828	683	1	hit	480	0
34	Single	67	229	391	7	0	0	315545	683	0	correct_rejection	NA	0
34	Single	68	230	392	8	0	0	316261	684	0	correct_rejection	NA	0
34	Single	69	231	393	9	0	0	316978	683	0	correct_rejection	NA	0
34	Single	70	232	394	0	1	1	317695	683	1	hit	637	0
34	Single	71	233	395	4	0	0	318411	684	0	correct_rejection	NA	0
34	Single	72	234	396	9	0	0	319128	683	0	correct_rejection	NA	0
34	Single	73	235	397	5	0	0	319844	684	0	correct_rejection	NA	0
34	Single	74	236	398	4	0	0	320561	683	0	correct_rejection	NA	0
34	Single	75	237	399	4	0	0	321278	683	0	correct_rejection	NA	0
34	Single	76	238	400	5	0	0	321994	684	0	correct_rejection	NA	0
34	Single	77	239	401	0	1	1	322711	683	1	hit	498	0
34	Single	78	240	402	9	0	0	323428	683	0	correct_rejection	NA	0
34	Single	79	241	403	9	0	0	324144	684	0	correct_rejection	NA	0
34	Single	80	242	404	8	0	0	324861	683	0	correct_rejection	NA	0
34	Single	81	243	405	6	0	0	325578	683	0	correct_rejection	NA	0
34	Single	82	244	406	6	0	0	326294	684	0	correct_rejection	NA	0
34	Single	83	245	407	7	0	0	327011	683	0	correct_rejection	NA	0
34	Single	84	246	408	7	0	0	327728	683	0	correct_rejection	NA	0
34	Single	85	247	409	5	0	0	328444	684	0	correct_rejection	NA	0
34	Single	86	248	410	7	0	0	329161	683	0	correct_rejection	NA	0
34	Single	87	249	411	9	0	0	329878	683	0	correct_rejection	NA	0
34	Single	88	250	412	9	0	0	330594	684	0	correct_rejection	NA	0
34	Single	89	251	413	7	0	0	331311	683	0	correct_rejection	NA	0
34	Single	90	252	414	7	0	0	332028	683	0	correct_rejection	NA	0
34	Single	91	253	415	4	0	0	332744	684	0	correct_rejection	NA	0
34	Single	92	254	416	8	0	0	333461	683	0	correct_rejection	NA	0
34	Single	93	255	417	7	0	0	334178	683	0	correct_rejection	NA	0
34	Single	94	256	418	6	0	0	334894	684	0	correct_rejection	NA	0
34	Single	95	257	419	5	0	0	335611	683	0	correct_rejection	NA	0
34	Single	96	258	420	6	0	0	336328	683	0	correct_rejection	NA	0
34	Single	97	259	421	7	0	0	337044	684	0	correct_rejection	NA	0
34	Single	98	260	422	8	0	0	337761	683	0	correct_rejection	NA	0
34	Single	99	261	423	5	0	0	338478	683	0	correct_rejection	NA	0
34	Single	100	262	424	9	0	0	339194	684	0	correct_rejection	NA	0
34	Single	101	263	425	4	0	0	339911	683	0	correct_rejection	NA	0
34	Single	102	264	426	4	0	0	340627	684	0	correct_rejection	NA	0
34	Single	103	265	427	9	0	0	341344	683	0	correct_rejection	NA	0
34	Single	104	266	428	0	1	1	342061	683	1	hit	571	0
34	Single	105	267	429	8	0	0	342777	684	0	correct_rejection	NA	0
34	Single	106	268	430	9	0	0	343494	683	0	correct_rejection	NA	0
34	Single	107	269	431	6	0	0	344211	683	0	correct_rejection	NA	0
34	Single	108	270	432	9	0	0	344927	684	0	correct_rejection	NA	0
34	Single	109	271	433	0	1	1	345644	683	1	hit	593	0
34	Single	110	272	434	5	0	0	346361	683	0	correct_rejection	NA	0
34	Single	111	273	435	8	0	0	347077	684	0	correct_rejection	NA	0
34	Single	112	274	436	4	0	0	347794	683	0	correct_rejection	NA	0
34	Single	113	275	437	5	0	0	348511	683	0	correct_rejection	NA	0
34	Single	114	276	438	5	0	0	349227	684	0	correct_rejection	NA	0
34	Single	115	277	439	4	0	0	349944	683	0	correct_rejection	NA	0
34	Single	116	278	440	6	0	0	350661	683	0	correct_rejection	NA	0
34	Single	117	279	441	6	0	0	351377	684	0	correct_rejection	NA	0
34	Single	118	280	442	8	0	0	352094	683	0	correct_rejection	NA	0
34	Single	119	281	443	8	0	0	352811	683	0	correct_rejection	NA	0
34	Single	120	282	444	6	0	0	353527	684	0	correct_rejection	NA	0
34	Single	121	283	445	4	0	0	354244	683	0	correct_rejection	NA	0
34	Single	122	284	446	8	0	0	354961	683	0	correct_rejection	NA	0
34	Single	123	285	447	4	0	0	355677	684	0	correct_rejection	NA	0
34	Single	124	286	448	6	0	0	356394	683	0	correct_rejection	NA	0
34	Single	125	287	449	0	1	1	357111	683	1	hit	675	0
34	Single	126	288	450	9	0	0	357827	684	0	correct_rejection	NA	0
34	Single	127	289	451	8	0	0	358544	683	0	correct_rejection	NA	0
34	Single	128	290	452	8	0	0	359261	683	0	correct_rejection	NA	0
34	Single	129	291	453	0	1	1	359977	684	1	hit	525	0
34	Single	130	292	454	9	0	0	360694	683	0	correct_rejection	NA	0
34	Single	131	293	455	5	0	0	361410	684	0	correct_rejection	NA	0
34	Single	132	294	456	9	0	0	362127	683	0	correct_rejection	NA	0
34	Single	133	295	457	7	0	0	362844	683	0	correct_rejection	NA	0
34	Single	134	296	458	5	0	0	363560	684	0	correct_rejection	NA	0
34	Single	135	297	459	8	0	0	364277	683	0	correct_rejection	NA	0
34	Single	136	298	460	5	0	0	364994	683	0	correct_rejection	NA	0
34	Single	137	299	461	5	0	0	365710	684	0	correct_rejection	NA	0
34	Single	138	300	462	6	0	0	366427	683	0	correct_rejection	NA	0
34	Single	139	301	463	8	0	0	367144	683	0	correct_rejection	NA	0
34	Single	140	302	464	0	1	1	367860	684	1	hit	563	0
34	Single	141	303	465	6	0	0	368577	683	0	correct_rejection	NA	0
34	Single	142	304	466	7	0	0	369294	683	0	correct_rejection	NA	0
34	Single	143	305	467	9	0	0	370010	684	0	correct_rejection	NA	0
34	Single	144	306	468	6	0	0	370727	683	0	correct_rejection	NA	0
34	Single	145	307	469	0	1	1	371444	683	1	hit	679	0
34	Single	146	308	470	5	0	0	372160	684	0	correct_rejection	NA	0
34	Single	147	309	471	4	0	0	372877	683	0	correct_rejection	NA	0
34	Single	148	310	472	0	1	1	373594	683	1	hit	515	0
34	Single	149	311	473	5	0	0	374310	684	0	correct_rejection	NA	0
34	Single	150	312	474	7	0	0	375027	683	0	correct_rejection	NA	0
34	Single	151	313	475	8	0	0	375744	683	0	correct_rejection	NA	0
34	Single	152	314	476	7	0	0	376460	684	0	correct_rejection	NA	0
34	Single	153	315	477	4	0	0	377177	683	0	correct_rejection	NA	0
34	Single	154	316	478	4	0	0	377894	683	0	correct_rejection	NA	0
34	Single	155	317	479	7	0	0	378610	684	0	correct_rejection	NA	0
34	Single	156	318	480	7	0	0	379327	683	0	correct_rejection	NA	0
34	Single	157	319	481	6	0	0	380044	683	0	correct_rejection	NA	0
34	Single	158	320	482	6	0	0	380760	684	0	correct_rejection	NA	0
34	Single	159	321	483	4	0	0	381477	683	0	correct_rejection	NA	0
34	Single	160	322	484	9	0	0	382193	684	0	correct_rejection	NA	0
34	Single	161	323	485	9	0	0	382910	684	0	correct_rejection	NA	0
34	Single	162	324	486	4	0	0	383627	683	0	correct_rejection	NA	0
34	Nonet	1	325	487	4	0	0	393777	683	0	correct_rejection	NA	7536
34	Nonet	2	326	488	5	0	0	394493	684	0	correct_rejection	NA	0
34	Nonet	3	327	489	6	0	0	395210	683	0	correct_rejection	NA	0
34	Nonet	4	328	490	4	0	0	395927	683	0	correct_rejection	NA	0
34	Nonet	5	329	491	5	0	0	396643	684	0	correct_rejection	NA	0
34	Nonet	6	330	492	6	0	0	397360	683	0	correct_rejection	NA	0
34	Nonet	7	331	493	0	1	2	398077	683	1	hit	493	0
34	Nonet	8	332	494	4	0	0	398793	684	0	correct_rejection	NA	0
34	Nonet	9	333	495	5	0	0	399510	683	0	correct_rejection	NA	0
34	Nonet	10	334	496	6	0	0	400227	683	0	correct_rejection	NA	0
34	Nonet	11	335	497	6	0	0	400943	684	0	correct_rejection	NA	0
34	Nonet	12	336	498	0	1	1	401660	683	1	hit	581	0
34	Nonet	13	337	499	5	0	0	402376	684	0	correct_rejection	NA	0
34	Nonet	14	338	500	4	0	0	403093	683	0	correct_rejection	NA	0
34	Nonet	15	339	501	6	0	0	403810	683	0	correct_rejection	NA	0
34	Nonet	16	340	502	5	0	0	404526	684	0	correct_rejection	NA	0
34	Nonet	17	341	503	4	0	0	405243	683	0	correct_rejection	NA	0
34	Nonet	18	342	504	6	0	0	405960	683	0	correct_rejection	NA	0
34	Nonet	19	343	505	5	0	0	406676	684	0	correct_rejection	NA	0
34	Nonet	20	344	506	4	0	0	407393	683	0	correct_rejection	NA	0
34	Nonet	21	345	507	4	0	0	408110	683	0	correct_rejection	NA	0
34	Nonet	22	346	508	5	0	0	408826	684	0	correct_rejection	NA	0
34	Nonet	23	347	509	6	0	0	409543	683	0	correct_rejection	NA	0
34	Nonet	24	348	510	4	0	0	410260	683	0	correct_rejection	NA	0
34	Nonet	25	349	511	0	1	1	410976	684	1	hit	458	0
34	Nonet	26	350	512	5	0	0	411693	683	0	correct_rejection	NA	0
34	Nonet	27	351	513	6	0	0	412410	683	0	correct_rejection	NA	0
34	Nonet	28	352	514	4	0	0	413126	684	0	correct_rejection	NA	0
34	Nonet	29	353	515	5	0	0	413843	683	0	correct_rejection	NA	0
34	Nonet	30	354	516	6	0	0	414560	683	0	correct_rejection	NA	0
34	Nonet	31	355	517	9	0	0	415276	684	0	correct_rejection	NA	0
34	Nonet	32	356	518	8	0	0	415993	683	0	correct_rejection	NA	0
34	Nonet	33	357	519	7	0	0	416710	683	0	correct_rejection	NA	0
34	Nonet	34	358	520	9	0	0	417426	684	0	correct_rejection	NA	0
34	Nonet	35	359	521	8	0	0	418143	683	0	correct_rejection	NA	0
34	Nonet	36	360	522	7	0	0	418860	683	0	correct_rejection	NA	0
34	Nonet	37	361	523	9	0	0	419576	684	0	correct_rejection	NA	0
34	Nonet	38	362	524	8	0	0	420293	683	0	correct_rejection	NA	0
34	Nonet	39	363	525	7	0	0	421010	683	0	correct_rejection	NA	0
34	Nonet	40	364	526	4	0	0	421726	684	0	correct_rejection	NA	0
34	Nonet	41	365	527	5	0	0	422443	683	0	correct_rejection	NA	0
34	Nonet	42	366	528	6	0	0	423160	683	0	correct_rejection	NA	0
34	Nonet	43	367	529	4	0	0	423876	684	0	correct_rejection	NA	0
34	Nonet	44	368	530	5	0	0	424593	683	0	correct_rejection	NA	0
34	Nonet	45	369	531	0	1	1	425309	684	0	miss	NA	0
34	Nonet	46	370	532	6	0	0	426026	683	1	false_alarm	0	0
34	Nonet	47	371	533	4	0	0	426743	683	0	correct_rejection	NA	0
34	Nonet	48	372	534	5	0	0	427459	684	0	correct_rejection	NA	0
34	Nonet	49	373	535	6	0	0	428176	683	0	correct_rejection	NA	0
34	Nonet	50	374	536	7	0	0	428893	683	0	correct_rejection	NA	0
34	Nonet	51	375	537	0	1	1	429609	684	1	hit	534	0
34	Nonet	52	376	538	8	0	0	430326	683	0	correct_rejection	NA	0
34	Nonet	53	377	539	9	0	0	431043	683	0	correct_rejection	NA	0
34	Nonet	54	378	540	7	0	0	431759	684	0	correct_rejection	NA	0
34	Nonet	55	379	541	8	0	0	432476	683	0	correct_rejection	NA	0
34	Nonet	56	380	542	9	0	0	433193	683	0	correct_rejection	NA	0
34	Nonet	57	381	543	7	0	0	433909	684	0	correct_rejection	NA	0
34	Nonet	58	382	544	8	0	0	434626	683	0	correct_rejection	NA	0
34	Nonet	59	383	545	9	0	0	435343	683	0	correct_rejection	NA	0
34	Nonet	60	384	546	9	0	0	436059	684	0	correct_rejection	NA	0
34	Nonet	61	385	547	8	0	0	436776	683	0	correct_rejection	NA	0
34	Nonet	62	386	548	7	0	0	437493	683	0	correct_rejection	NA	0
34	Nonet	63	387	549	9	0	0	438209	684	0	correct_rejection	NA	0
34	Nonet	64	388	550	8	0	0	438926	683	0	correct_rejection	NA	0
34	Nonet	65	389	551	0	1	1	439643	683	1	hit	594	0
34	Nonet	66	390	552	7	0	0	440359	684	0	correct_rejection	NA	0
34	Nonet	67	391	553	9	0	0	441076	683	0	correct_rejection	NA	0
34	Nonet	68	392	554	8	0	0	441793	683	0	correct_rejection	NA	0
34	Nonet	69	393	555	7	0	0	442509	684	0	correct_rejection	NA	0
34	Nonet	70	394	556	0	1	3	443226	683	1	hit	484	0
34	Nonet	71	395	557	9	0	0	443943	683	0	correct_rejection	NA	0
34	Nonet	72	396	558	8	0	0	444659	684	0	correct_rejection	NA	0
34	Nonet	73	397	559	7	0	0	445376	683	0	correct_rejection	NA	0
34	Nonet	74	398	560	9	0	0	446092	684	0	correct_rejection	NA	0
34	Nonet	75	399	561	8	0	0	446809	683	0	correct_rejection	NA	0
34	Nonet	76	400	562	7	0	0	447526	683	0	correct_rejection	NA	0
34	Nonet	77	401	563	9	0	0	448242	684	0	correct_rejection	NA	0
34	Nonet	78	402	564	0	1	1	448959	683	1	hit	529	0
34	Nonet	79	403	565	8	0	0	449676	683	0	correct_rejection	NA	0
34	Nonet	80	404	566	7	0	0	450392	684	0	correct_rejection	NA	0
34	Nonet	81	405	567	6	0	0	451109	683	0	correct_rejection	NA	0
34	Nonet	82	406	568	5	0	0	451826	683	0	correct_rejection	NA	0
34	Nonet	83	407	569	4	0	0	452542	684	0	correct_rejection	NA	0
34	Nonet	84	408	570	0	1	2	453259	683	1	hit	657	0
34	Nonet	85	409	571	6	0	0	453976	683	0	correct_rejection	NA	0
34	Nonet	86	410	572	5	0	0	454692	684	0	correct_rejection	NA	0
34	Nonet	87	411	573	4	0	0	455409	683	0	correct_rejection	NA	0
34	Nonet	88	412	574	6	0	0	456126	683	0	correct_rejection	NA	0
34	Nonet	89	413	575	5	0	0	456842	684	0	correct_rejection	NA	0
34	Nonet	90	414	576	4	0	0	457559	683	0	correct_rejection	NA	0
34	Nonet	91	415	577	7	0	0	458276	683	0	correct_rejection	NA	0
34	Nonet	92	416	578	8	0	0	458992	684	0	correct_rejection	NA	0
34	Nonet	93	417	579	9	0	0	459709	683	0	correct_rejection	NA	0
34	Nonet	94	418	580	7	0	0	460426	683	0	correct_rejection	NA	0
34	Nonet	95	419	581	8	0	0	461142	684	0	correct_rejection	NA	0
34	Nonet	96	420	582	9	0	0	461859	683	0	correct_rejection	NA	0
34	Nonet	97	421	583	7	0	0	462576	683	0	correct_rejection	NA	0
34	Nonet	98	422	584	8	0	0	463292	684	0	correct_rejection	NA	0
34	Nonet	99	423	585	9	0	0	464009	683	0	correct_rejection	NA	0
34	Nonet	100	424	586	6	0	0	464726	683	0	correct_rejection	NA	0
34	Nonet	101	425	587	0	1	1	465442	684	1	hit	503	0
34	Nonet	102	426	588	5	0	0	466159	683	0	correct_rejection	NA	0
34	Nonet	103	427	589	4	0	0	466875	684	0	correct_rejection	NA	0
34	Nonet	104	428	590	6	0	0	467592	684	0	correct_rejection	NA	0
34	Nonet	105	429	591	5	0	0	468309	683	0	correct_rejection	NA	0
34	Nonet	106	430	592	4	0	0	469025	684	0	correct_rejection	NA	0
34	Nonet	107	431	593	6	0	0	469742	683	0	correct_rejection	NA	0
34	Nonet	108	432	594	5	0	0	470459	683	0	correct_rejection	NA	0
34	Nonet	109	433	595	4	0	0	471175	684	0	correct_rejection	NA	0
34	Nonet	110	434	596	0	1	3	471892	683	1	hit	548	0
34	Nonet	111	435	597	6	0	0	472609	683	0	correct_rejection	NA	0
34	Nonet	112	436	598	5	0	0	473325	684	0	correct_rejection	NA	0
34	Nonet	113	437	599	0	1	1	474042	683	1	hit	563	0
34	Nonet	114	438	600	4	0	0	474759	683	0	correct_rejection	NA	0
34	Nonet	115	439	601	6	0	0	475475	684	0	correct_rejection	NA	0
34	Nonet	116	440	602	5	0	0	476192	683	0	correct_rejection	NA	0
34	Nonet	117	441	603	4	0	0	476909	683	0	correct_rejection	NA	0
34	Nonet	118	442	604	6	0	0	477625	684	0	correct_rejection	NA	0
34	Nonet	119	443	605	5	0	0	478342	683	0	correct_rejection	NA	0
34	Nonet	120	444	606	4	0	0	479059	683	0	correct_rejection	NA	0
34	Nonet	121	445	607	9	0	0	479775	684	0	correct_rejection	NA	0
34	Nonet	122	446	608	8	0	0	480492	683	0	correct_rejection	NA	0
34	Nonet	123	447	609	0	1	1	481209	683	1	hit	644	0
34	Nonet	124	448	610	7	0	0	481925	684	0	correct_rejection	NA	0
34	Nonet	125	449	611	9	0	0	482642	683	0	correct_rejection	NA	0
34	Nonet	126	450	612	8	0	0	483359	683	0	correct_rejection	NA	0
34	Nonet	127	451	613	7	0	0	484075	684	0	correct_rejection	NA	0
34	Nonet	128	452	614	9	0	0	484792	683	0	correct_rejection	NA	0
34	Nonet	129	453	615	8	0	0	485509	683	0	correct_rejection	NA	0
34	Nonet	130	454	616	7	0	0	486225	684	0	correct_rejection	NA	0
34	Nonet	131	455	617	0	1	3	486942	683	1	hit	488	0
34	Nonet	132	456	618	7	0	0	487659	683	0	correct_rejection	NA	0
34	Nonet	133	457	619	8	0	0	488375	684	0	correct_rejection	NA	0
34	Nonet	134	458	620	9	0	0	489092	683	0	correct_rejection	NA	0
34	Nonet	135	459	621	7	0	0	489808	684	0	correct_rejection	NA	0
34	Nonet	136	460	622	8	0	0	490525	683	0	correct_rejection	NA	0
34	Nonet	137	461	623	0	1	1	491242	683	1	hit	432	0
34	Nonet	138	462	624	9	0	0	491958	684	0	correct_rejection	NA	0
34	Nonet	139	463	625	7	0	0	492675	683	0	correct_rejection	NA	0
34	Nonet	140	464	626	8	0	0	493392	683	0	correct_rejection	NA	0
34	Nonet	141	465	627	9	0	0	494108	684	0	correct_rejection	NA	0
34	Nonet	142	466	628	0	1	3	494825	683	1	hit	543	0
34	Nonet	143	467	629	7	0	0	495542	683	0	correct_rejection	NA	0
34	Nonet	144	468	630	8	0	0	496258	684	0	correct_rejection	NA	0
34	Nonet	145	469	631	9	0	0	496975	683	0	correct_rejection	NA	0
34	Nonet	146	470	632	7	0	0	497692	683	0	correct_rejection	NA	0
34	Nonet	147	471	633	8	0	0	498408	684	0	correct_rejection	NA	0
34	Nonet	148	472	634	9	0	0	499125	683	0	correct_rejection	NA	0
34	Nonet	149	473	635	7	0	0	499842	683	0	correct_rejection	NA	0
34	Nonet	150	474	636	8	0	0	500558	684	0	correct_rejection	NA	0
34	Nonet	151	475	637	9	0	0	501275	683	0	correct_rejection	NA	0
34	Nonet	152	476	638	4	0	0	501992	683	0	correct_rejection	NA	0
34	Nonet	153	477	639	5	0	0	502708	684	0	correct_rejection	NA	0
34	Nonet	154	478	640	0	1	1	503425	683	1	hit	545	0
34	Nonet	155	479	641	6	0	0	504142	683	0	correct_rejection	NA	0
34	Nonet	156	480	642	4	0	0	504858	684	0	correct_rejection	NA	0
34	Nonet	157	481	643	0	1	1	505575	683	1	hit	515	0
34	Nonet	158	482	644	5	0	0	506292	683	0	correct_rejection	NA	0
34	Nonet	159	483	645	6	0	0	507008	684	0	correct_rejection	NA	0
34	Nonet	160	484	646	4	0	0	507725	683	0	correct_rejection	NA	0
34	Nonet	161	485	647	5	0	0	508442	683	0	correct_rejection	NA	0
34	Nonet	162	486	648	6	0	0	509158	684	0	correct_rejection	NA	0
34	Correct	1	325	649	4	0	0	519041	684	0	correct_rejection	NA	7807
34	Correct	2	326	650	5	0	0	519758	683	0	correct_rejection	NA	0
34	Correct	3	327	651	6	0	0	520475	683	0	correct_rejection	NA	0
34	Correct	4	328	652	4	0	0	521191	684	0	correct_rejection	NA	0
34	Correct	5	329	653	5	0	0	521908	683	0	correct_rejection	NA	0
34	Correct	6	330	654	6	0	0	522625	683	0	correct_rejection	NA	0
34	Correct	7	331	655	4	0	0	523341	684	0	correct_rejection	NA	0
34	Correct	8	332	656	5	0	0	524058	683	0	correct_rejection	NA	0
34	Correct	9	333	657	6	0	0	524775	683	0	correct_rejection	NA	0
34	Correct	10	334	658	0	1	3	525491	684	1	hit	544	0
34	Correct	11	335	659	6	0	0	526208	683	0	correct_rejection	NA	0
34	Correct	12	336	660	5	0	0	526925	683	0	correct_rejection	NA	0
34	Correct	13	337	661	4	0	0	527641	684	0	correct_rejection	NA	0
34	Correct	14	338	662	6	0	0	528358	683	0	correct_rejection	NA	0
34	Correct	15	339	663	5	0	0	529075	683	0	correct_rejection	NA	0
34	Correct	16	340	664	4	0	0	529791	684	0	correct_rejection	NA	0
34	Correct	17	341	665	6	0	0	530508	683	0	correct_rejection	NA	0
34	Correct	18	342	666	0	1	1	531224	684	1	hit	592	0
34	Correct	19	343	667	5	0	0	531941	683	0	correct_rejection	NA	0
34	Correct	20	344	668	4	0	0	532658	683	0	correct_rejection	NA	0
34	Correct	21	345	669	9	0	0	533374	684	0	correct_rejection	NA	0
34	Correct	22	346	670	8	0	0	534091	683	0	correct_rejection	NA	0
34	Correct	23	347	671	7	0	0	534808	683	0	correct_rejection	NA	0
34	Correct	24	348	672	0	1	2	535524	684	1	hit	543	0
34	Correct	25	349	673	9	0	0	536241	683	0	correct_rejection	NA	0
34	Correct	26	350	674	8	0	0	536958	683	0	correct_rejection	NA	0
34	Correct	27	351	675	7	0	0	537674	684	0	correct_rejection	NA	0
34	Correct	28	352	676	9	0	0	538391	683	0	correct_rejection	NA	0
34	Correct	29	353	677	8	0	0	539108	683	0	correct_rejection	NA	0
34	Correct	30	354	678	7	0	0	539824	684	0	correct_rejection	NA	0
34	Correct	31	355	679	7	0	0	540541	683	0	correct_rejection	NA	0
34	Correct	32	356	680	8	0	0	541258	683	0	correct_rejection	NA	0
34	Correct	33	357	681	9	0	0	541974	684	0	correct_rejection	NA	0
34	Correct	34	358	682	7	0	0	542691	683	0	correct_rejection	NA	0
34	Correct	35	359	683	8	0	0	543408	683	0	correct_rejection	NA	0
34	Correct	36	360	684	9	0	0	544124	684	0	correct_rejection	NA	0
34	Correct	37	361	685	7	0	0	544841	683	0	correct_rejection	NA	0
34	Correct	38	362	686	0	1	1	545558	683	1	hit	434	0
34	Correct	39	363	687	8	0	0	546274	684	0	correct_rejection	NA	0
34	Correct	40	364	688	9	0	0	546991	683	0	correct_rejection	NA	0
34	Correct	41	365	689	4	0	0	547708	683	0	correct_rejection	NA	0
34	Correct	42	366	690	5	0	0	548424	684	0	correct_rejection	NA	0
34	Correct	43	367	691	6	0	0	549141	683	0	correct_rejection	NA	0
34	Correct	44	368	692	4	0	0	549858	683	0	correct_rejection	NA	0
34	Correct	45	369	693	5	0	0	550574	684	0	correct_rejection	NA	0
34	Correct	46	370	694	6	0	0	551291	683	0	correct_rejection	NA	0
34	Correct	47	371	695	4	0	0	552007	684	0	correct_rejection	NA	0
34	Correct	48	372	696	0	1	1	552724	684	1	hit	665	0
34	Correct	49	373	697	5	0	0	553441	683	0	correct_rejection	NA	0
34	Correct	50	374	698	6	0	0	554157	684	0	correct_rejection	NA	0
34	Correct	51	375	699	6	0	0	554874	683	0	correct_rejection	NA	0
34	Correct	52	376	700	5	0	0	555591	683	0	correct_rejection	NA	0
34	Correct	53	377	701	4	0	0	556307	684	0	correct_rejection	NA	0
34	Correct	54	378	702	6	0	0	557024	683	0	correct_rejection	NA	0
34	Correct	55	379	703	5	0	0	557741	683	0	correct_rejection	NA	0
34	Correct	56	380	704	4	0	0	558457	684	0	correct_rejection	NA	0
34	Correct	57	381	705	6	0	0	559174	683	0	correct_rejection	NA	0
34	Correct	58	382	706	5	0	0	559891	683	0	correct_rejection	NA	0
34	Correct	59	383	707	4	0	0	560607	684	0	correct_rejection	NA	0
34	Correct	60	384	708	9	0	0	561324	683	0	correct_rejection	NA	0
34	Correct	61	385	709	8	0	0	562041	683	0	correct_rejection	NA	0
34	Correct	62	386	710	7	0	0	562757	684	0	correct_rejection	NA	0
34	Correct	63	387	711	9	0	0	563474	683	0	correct_rejection	NA	0
34	Correct	64	388	712	8	0	0	564191	683	0	correct_rejection	NA	0
34	Correct	65	389	713	0	1	1	564907	684	0	miss	NA	0
34	Correct	66	390	714	7	0	0	565624	683	0	correct_rejection	NA	0
34	Correct	67	391	715	9	0	0	566341	683	0	correct_rejection	NA	0
34	Correct	68	392	716	8	0	0	567057	684	0	correct_rejection	NA	0
34	Correct	69	393	717	7	0	0	567774	683	0	correct_rejection	NA	0
34	Correct	70	394	718	7	0	0	568491	683	0	correct_rejection	NA	0
34	Correct	71	395	719	8	0	0	569207	684	0	correct_rejection	NA	0
34	Correct	72	396	720	9	0	0	569924	683	0	correct_rejection	NA	0
34	Correct	73	397	721	0	1	2	570641	683	1	hit	556	0
34	Correct	74	398	722	7	0	0	571357	684	0	correct_rejection	NA	0
34	Correct	75	399	723	8	0	0	572074	683	0	correct_rejection	NA	0
34	Correct	76	400	724	0	1	1	572790	684	1	hit	529	0
34	Correct	77	401	725	9	0	0	573507	684	0	correct_rejection	NA	0
34	Correct	78	402	726	7	0	0	574224	683	0	correct_rejection	NA	0
34	Correct	79	403	727	8	0	0	574940	684	0	correct_rejection	NA	0
34	Correct	80	404	728	0	1	1	575657	683	1	hit	407	0
34	Correct	81	405	729	9	0	0	576374	683	0	correct_rejection	NA	0
34	Correct	82	406	730	4	0	0	577090	684	0	correct_rejection	NA	0
34	Correct	83	407	731	5	0	0	577807	683	0	correct_rejection	NA	0
34	Correct	84	408	732	0	1	1	578524	683	1	hit	409	0
34	Correct	85	409	733	6	0	0	579240	684	0	correct_rejection	NA	0
34	Correct	86	410	734	4	0	0	579957	683	0	correct_rejection	NA	0
34	Correct	87	411	735	5	0	0	580674	683	0	correct_rejection	NA	0
34	Correct	88	412	736	6	0	0	581390	684	0	correct_rejection	NA	0
34	Correct	89	413	737	4	0	0	582107	683	0	correct_rejection	NA	0
34	Correct	90	414	738	5	0	0	582824	683	0	correct_rejection	NA	0
34	Correct	91	415	739	6	0	0	583540	684	0	correct_rejection	NA	0
34	Correct	92	416	740	6	0	0	584257	683	0	correct_rejection	NA	0
34	Correct	93	417	741	5	0	0	584974	683	0	correct_rejection	NA	0
34	Correct	94	418	742	4	0	0	585690	684	0	correct_rejection	NA	0
34	Correct	95	419	743	6	0	0	586407	683	0	correct_rejection	NA	0
34	Correct	96	420	744	5	0	0	587124	683	0	correct_rejection	NA	0
34	Correct	97	421	745	4	0	0	587840	684	0	correct_rejection	NA	0
34	Correct	98	422	746	6	0	0	588557	683	0	correct_rejection	NA	0
34	Correct	99	423	747	5	0	0	589274	683	0	correct_rejection	NA	0
34	Correct	100	424	748	4	0	0	589990	684	0	correct_rejection	NA	0
34	Correct	101	425	749	9	0	0	590707	683	0	correct_rejection	NA	0
34	Correct	102	426	750	8	0	0	591424	683	0	correct_rejection	NA	0
34	Correct	103	427	751	7	0	0	592140	684	0	correct_rejection	NA	0
34	Correct	104	428	752	0	1	2	592857	683	1	hit	507	0
34	Correct	105	429	753	9	0	0	593574	683	0	correct_rejection	NA	0
34	Correct	106	430	754	8	0	0	594290	684	0	correct_rejection	NA	0
34	Correct	107	431	755	7	0	0	595007	683	0	correct_rejection	NA	0
34	Correct	108	432	756	9	0	0	595723	684	0	correct_rejection	NA	0
34	Correct	109	433	757	8	0	0	596440	683	0	correct_rejection	NA	0
34	Correct	110	434	758	7	0	0	597157	683	0	correct_rejection	NA	0
34	Correct	111	435	759	0	1	3	597873	684	1	hit	574	0
34	Correct	112	436	760	7	0	0	598590	683	0	correct_rejection	NA	0
34	Correct	113	437	761	8	0	0	599307	683	0	correct_rejection	NA	0
34	Correct	114	438	762	9	0	0	600023	684	0	correct_rejection	NA	0
34	Correct	115	439	763	7	0	0	600740	683	0	correct_rejection	NA	0
34	Correct	116	440	764	0	1	1	601457	683	1	hit	524	0
34	Correct	117	441	765	8	0	0	602173	684	0	correct_rejection	NA	0
34	Correct	118	442	766	9	0	0	602890	683	0	correct_rejection	NA	0
34	Correct	119	443	767	7	0	0	603607	683	0	correct_rejection	NA	0
34	Correct	120	444	768	0	1	1	604323	684	1	hit	514	0
34	Correct	121	445	769	8	0	0	605040	683	0	correct_rejection	NA	0
34	Correct	122	446	770	9	0	0	605757	683	0	correct_rejection	NA	0
34	Correct	123	447	771	4	0	0	606473	684	0	correct_rejection	NA	0
34	Correct	124	448	772	5	0	0	607190	683	0	correct_rejection	NA	0
34	Correct	125	449	773	6	0	0	607907	683	0	correct_rejection	NA	0
34	Correct	126	450	774	4	0	0	608623	684	0	correct_rejection	NA	0
34	Correct	127	451	775	0	1	1	609340	683	1	hit	486	0
34	Correct	128	452	776	5	0	0	610057	683	0	correct_rejection	NA	0
34	Correct	129	453	777	6	0	0	610773	684	0	correct_rejection	NA	0
34	Correct	130	454	778	4	0	0	611490	683	0	correct_rejection	NA	0
34	Correct	131	455	779	5	0	0	612207	683	0	correct_rejection	NA	0
34	Correct	132	456	780	6	0	0	612923	684	0	correct_rejection	NA	0
34	Correct	133	457	781	6	0	0	613640	683	0	correct_rejection	NA	0
34	Correct	134	458	782	5	0	0	614357	683	0	correct_rejection	NA	0
34	Correct	135	459	783	0	1	1	615073	684	1	hit	519	0
34	Correct	136	460	784	4	0	0	615790	683	0	correct_rejection	NA	0
34	Correct	137	461	785	6	0	0	616506	684	0	correct_rejection	NA	0
34	Correct	138	462	786	5	0	0	617223	683	0	correct_rejection	NA	0
34	Correct	139	463	787	4	0	0	617940	683	0	correct_rejection	NA	0
34	Correct	140	464	788	6	0	0	618656	684	0	correct_rejection	NA	0
34	Correct	141	465	789	5	0	0	619373	683	0	correct_rejection	NA	0
34	Correct	142	466	790	4	0	0	620090	683	0	correct_rejection	NA	0
34	Correct	143	467	791	9	0	0	620806	684	0	correct_rejection	NA	0
34	Correct	144	468	792	8	0	0	621523	683	0	correct_rejection	NA	0
34	Correct	145	469	793	7	0	0	622240	683	0	correct_rejection	NA	0
34	Correct	146	470	794	9	0	0	622956	684	0	correct_rejection	NA	0
34	Correct	147	471	795	0	1	1	623673	683	1	hit	571	0
34	Correct	148	472	796	8	0	0	624390	683	0	correct_rejection	NA	0
34	Correct	149	473	797	7	0	0	625106	684	0	correct_rejection	NA	0
34	Correct	150	474	798	9	0	0	625823	683	0	correct_rejection	NA	0
34	Correct	151	475	799	8	0	0	626540	683	0	correct_rejection	NA	0
34	Correct	152	476	800	7	0	0	627256	684	0	correct_rejection	NA	0
34	Correct	153	477	801	7	0	0	627973	683	0	correct_rejection	NA	0
34	Correct	154	478	802	8	0	0	628690	683	0	correct_rejection	NA	0
34	Correct	155	479	803	9	0	0	629406	684	0	correct_rejection	NA	0
34	Correct	156	480	804	0	1	2	630123	683	0	miss	NA	0
34	Correct	157	481	805	7	0	0	630840	683	1	false_alarm	53	0
34	Correct	158	482	806	8	0	0	631556	684	0	correct_rejection	NA	0
34	Correct	159	483	807	9	0	0	632273	683	0	correct_rejection	NA	0
34	Correct	160	484	808	7	0	0	632990	683	0	correct_rejection	NA	0
34	Correct	161	485	809	8	0	0	633706	684	0	correct_rejection	NA	0
34	Correct	162	486	810	9	0	0	634423	683	0	correct_rejection	NA	0
trigger nr 626 at 636164
trigger nr 629 at 709905
34	Single	1	1	811	9	0	0	717955	683	0	correct_rejection	NA	7967
34	Single	2	2	812	5	0	0	718672	683	0	correct_rejection	NA	0
34	Single	3	3	813	4	0	0	719388	684	0	correct_rejection	NA	0
34	Single	4	4	814	7	0	0	720105	683	0	correct_rejection	NA	0
34	Single	5	5	815	9	0	0	720822	683	0	correct_rejection	NA	0
34	Single	6	6	816	4	0	0	721538	684	0	correct_rejection	NA	0
34	Single	7	7	817	4	0	0	722255	683	0	correct_rejection	NA	0
34	Single	8	8	818	5	0	0	722971	684	0	correct_rejection	NA	0
34	Single	9	9	819	0	1	1	723688	683	1	hit	458	0
34	Single	10	10	820	8	0	0	724405	683	0	correct_rejection	NA	0
34	Single	11	11	821	7	0	0	725121	684	0	correct_rejection	NA	0
34	Single	12	12	822	5	0	0	725838	683	0	correct_rejection	NA	0
34	Single	13	13	823	7	0	0	726555	683	0	correct_rejection	NA	0
34	Single	14	14	824	0	1	1	727271	684	1	hit	417	0
34	Single	15	15	825	7	0	0	727988	683	0	correct_rejection	NA	0
34	Single	16	16	826	8	0	0	728705	683	0	correct_rejection	NA	0
34	Single	17	17	827	9	0	0	729421	684	0	correct_rejection	NA	0
34	Single	18	18	828	8	0	0	730138	683	0	correct_rejection	NA	0
34	Single	19	19	829	6	0	0	730855	683	0	correct_rejection	NA	0
34	Single	20	20	830	4	0	0	731571	684	0	correct_rejection	NA	0
34	Single	21	21	831	0	1	1	732288	683	1	hit	460	0
34	Single	22	22	832	9	0	0	733005	683	0	correct_rejection	NA	0
34	Single	23	23	833	9	0	0	733721	684	0	correct_rejection	NA	0
34	Single	24	24	834	7	0	0	734438	683	0	correct_rejection	NA	0
34	Single	25	25	835	0	1	1	735155	683	1	hit	540	0
34	Single	26	26	836	6	0	0	735871	684	0	correct_rejection	NA	0
34	Single	27	27	837	6	0	0	736588	683	0	correct_rejection	NA	0
34	Single	28	28	838	8	0	0	737305	683	0	correct_rejection	NA	0
34	Single	29	29	839	5	0	0	738021	684	0	correct_rejection	NA	0
34	Single	30	30	840	6	0	0	738738	683	0	correct_rejection	NA	0
34	Single	31	31	841	0	1	1	739455	683	1	hit	595	0
34	Single	32	32	842	7	0	0	740171	684	0	correct_rejection	NA	0
34	Single	33	33	843	4	0	0	740888	683	0	correct_rejection	NA	0
34	Single	34	34	844	8	0	0	741605	683	0	correct_rejection	NA	0
34	Single	35	35	845	8	0	0	742321	684	0	correct_rejection	NA	0
34	Single	36	36	846	4	0	0	743038	683	0	correct_rejection	NA	0
34	Single	37	37	847	6	0	0	743754	684	0	correct_rejection	NA	0
34	Single	38	38	848	5	0	0	744471	684	0	correct_rejection	NA	0
34	Single	39	39	849	5	0	0	745188	683	0	correct_rejection	NA	0
34	Single	40	40	850	9	0	0	745904	684	0	correct_rejection	NA	0
34	Single	41	41	851	6	0	0	746621	683	0	correct_rejection	NA	0
34	Single	42	42	852	4	0	0	747338	683	0	correct_rejection	NA	0
34	Single	43	43	853	9	0	0	748054	684	0	correct_rejection	NA	0
34	Single	44	44	854	8	0	0	748771	683	0	correct_rejection	NA	0
34	Single	45	45	855	8	0	0	749488	683	0	correct_rejection	NA	0
34	Single	46	46	856	6	0	0	750204	684	0	correct_rejection	NA	0
34	Single	47	47	857	9	0	0	750921	683	0	correct_rejection	NA	0
34	Single	48	48	858	6	0	0	751638	683	0	correct_rejection	NA	0
34	Single	49	49	859	6	0	0	752354	684	0	correct_rejection	NA	0
34	Single	50	50	860	7	0	0	753071	683	0	correct_rejection	NA	0
34	Single	51	51	861	5	0	0	753788	683	0	correct_rejection	NA	0
34	Single	52	52	862	6	0	0	754504	684	0	correct_rejection	NA	0
34	Single	53	53	863	5	0	0	755221	683	0	correct_rejection	NA	0
34	Single	54	54	864	8	0	0	755938	683	0	correct_rejection	NA	0
34	Single	55	55	865	4	0	0	756654	684	0	correct_rejection	NA	0
34	Single	56	56	866	5	0	0	757371	683	0	correct_rejection	NA	0
34	Single	57	57	867	4	0	0	758088	683	0	correct_rejection	NA	0
34	Single	58	58	868	8	0	0	758804	684	0	correct_rejection	NA	0
34	Single	59	59	869	7	0	0	759521	683	0	correct_rejection	NA	0
34	Single	60	60	870	7	0	0	760238	683	0	correct_rejection	NA	0
34	Single	61	61	871	6	0	0	760954	684	0	correct_rejection	NA	0
34	Single	62	62	872	8	0	0	761671	683	0	correct_rejection	NA	0
34	Single	63	63	873	9	0	0	762388	683	0	correct_rejection	NA	0
34	Single	64	64	874	7	0	0	763104	684	0	correct_rejection	NA	0
34	Single	65	65	875	9	0	0	763821	683	0	correct_rejection	NA	0
34	Single	66	66	876	5	0	0	764537	684	0	correct_rejection	NA	0
34	Single	67	67	877	5	0	0	765254	684	0	correct_rejection	NA	0
34	Single	68	68	878	7	0	0	765971	683	0	correct_rejection	NA	0
34	Single	69	69	879	4	0	0	766687	684	0	correct_rejection	NA	0
34	Single	70	70	880	6	0	0	767404	683	0	correct_rejection	NA	0
34	Single	71	71	881	4	0	0	768121	683	0	correct_rejection	NA	0
34	Single	72	72	882	0	1	1	768837	684	1	hit	654	0
34	Single	73	73	883	4	0	0	769554	683	0	correct_rejection	NA	0
34	Single	74	74	884	7	0	0	770271	683	0	correct_rejection	NA	0
34	Single	75	75	885	0	1	1	770987	684	1	hit	572	0
34	Single	76	76	886	8	0	0	771704	683	0	correct_rejection	NA	0
34	Single	77	77	887	5	0	0	772421	683	0	correct_rejection	NA	0
34	Single	78	78	888	9	0	0	773137	684	0	correct_rejection	NA	0
34	Single	79	79	889	9	0	0	773854	683	0	correct_rejection	NA	0
34	Single	80	80	890	4	0	0	774571	683	0	correct_rejection	NA	0
34	Single	81	81	891	9	0	0	775287	684	0	correct_rejection	NA	0
34	Single	82	82	892	0	1	1	776004	683	1	hit	444	0
34	Single	83	83	893	6	0	0	776721	683	0	correct_rejection	NA	0
34	Single	84	84	894	4	0	0	777437	684	0	correct_rejection	NA	0
34	Single	85	85	895	6	0	0	778154	683	0	correct_rejection	NA	0
34	Single	86	86	896	8	0	0	778871	683	0	correct_rejection	NA	0
34	Single	87	87	897	0	1	1	779587	684	1	hit	628	0
34	Single	88	88	898	8	0	0	780304	683	0	correct_rejection	NA	0
34	Single	89	89	899	5	0	0	781021	683	0	correct_rejection	NA	0
34	Single	90	90	900	7	0	0	781737	684	0	correct_rejection	NA	0
34	Single	91	91	901	8	0	0	782454	683	0	correct_rejection	NA	0
34	Single	92	92	902	6	0	0	783171	683	0	correct_rejection	NA	0
34	Single	93	93	903	7	0	0	783887	684	0	correct_rejection	NA	0
34	Single	94	94	904	9	0	0	784604	683	0	correct_rejection	NA	0
34	Single	95	95	905	8	0	0	785321	683	0	correct_rejection	NA	0
34	Single	96	96	906	7	0	0	786037	684	0	correct_rejection	NA	0
34	Single	97	97	907	6	0	0	786754	683	0	correct_rejection	NA	0
34	Single	98	98	908	9	0	0	787470	684	0	correct_rejection	NA	0
34	Single	99	99	909	0	1	1	788187	683	1	hit	554	0
34	Single	100	100	910	7	0	0	788904	683	0	correct_rejection	NA	0
34	Single	101	101	911	7	0	0	789620	684	0	correct_rejection	NA	0
34	Single	102	102	912	4	0	0	790337	683	0	correct_rejection	NA	0
34	Single	103	103	913	5	0	0	791054	683	0	correct_rejection	NA	0
34	Single	104	104	914	5	0	0	791770	684	0	correct_rejection	NA	0
34	Single	105	105	915	8	0	0	792487	683	0	correct_rejection	NA	0
34	Single	106	106	916	9	0	0	793204	683	0	correct_rejection	NA	0
34	Single	107	107	917	0	1	1	793920	684	1	hit	617	0
34	Single	108	108	918	9	0	0	794637	683	0	correct_rejection	NA	0
34	Single	109	109	919	4	0	0	795354	683	0	correct_rejection	NA	0
34	Single	110	110	920	0	1	1	796070	684	1	hit	532	0
34	Single	111	111	921	8	0	0	796787	683	0	correct_rejection	NA	0
34	Single	112	112	922	4	0	0	797504	683	0	correct_rejection	NA	0
34	Single	113	113	923	0	1	1	798220	684	1	hit	558	0
34	Single	114	114	924	7	0	0	798937	683	0	correct_rejection	NA	0
34	Single	115	115	925	5	0	0	799654	683	0	correct_rejection	NA	0
34	Single	116	116	926	9	0	0	800370	684	0	correct_rejection	NA	0
34	Single	117	117	927	5	0	0	801087	683	0	correct_rejection	NA	0
34	Single	118	118	928	6	0	0	801804	683	0	correct_rejection	NA	0
34	Single	119	119	929	6	0	0	802520	684	0	correct_rejection	NA	0
34	Single	120	120	930	5	0	0	803237	683	0	correct_rejection	NA	0
34	Single	121	121	931	0	1	1	803954	683	1	hit	620	0
34	Single	122	122	932	4	0	0	804670	684	0	correct_rejection	NA	0
34	Single	123	123	933	9	0	0	805387	683	0	correct_rejection	NA	0
34	Single	124	124	934	7	0	0	806104	683	0	correct_rejection	NA	0
34	Single	125	125	935	6	0	0	806820	684	0	correct_rejection	NA	0
34	Single	126	126	936	4	0	0	807537	683	0	correct_rejection	NA	0
34	Single	127	127	937	9	0	0	808253	684	0	correct_rejection	NA	0
34	Single	128	128	938	4	0	0	808970	684	0	correct_rejection	NA	0
34	Single	129	129	939	4	0	0	809687	683	0	correct_rejection	NA	0
34	Single	130	130	940	8	0	0	810403	684	0	correct_rejection	NA	0
34	Single	131	131	941	5	0	0	811120	683	0	correct_rejection	NA	0
34	Single	132	132	942	8	0	0	811837	683	0	correct_rejection	NA	0
34	Single	133	133	943	6	0	0	812553	684	0	correct_rejection	NA	0
34	Single	134	134	944	8	0	0	813270	683	0	correct_rejection	NA	0
34	Single	135	135	945	4	0	0	813987	683	0	correct_rejection	NA	0
34	Single	136	136	946	6	0	0	814703	684	0	correct_rejection	NA	0
34	Single	137	137	947	0	1	1	815420	683	1	hit	677	0
34	Single	138	138	948	6	0	0	816137	683	0	correct_rejection	NA	0
34	Single	139	139	949	9	0	0	816853	684	0	correct_rejection	NA	0
34	Single	140	140	950	5	0	0	817570	683	0	correct_rejection	NA	0
34	Single	141	141	951	4	0	0	818287	683	0	correct_rejection	NA	0
34	Single	142	142	952	5	0	0	819003	684	0	correct_rejection	NA	0
34	Single	143	143	953	0	1	1	819720	683	1	hit	477	0
34	Single	144	144	954	6	0	0	820437	683	0	correct_rejection	NA	0
34	Single	145	145	955	7	0	0	821153	684	0	correct_rejection	NA	0
34	Single	146	146	956	8	0	0	821870	683	0	correct_rejection	NA	0
34	Single	147	147	957	8	0	0	822587	683	0	correct_rejection	NA	0
34	Single	148	148	958	7	0	0	823303	684	0	correct_rejection	NA	0
34	Single	149	149	959	4	0	0	824020	683	0	correct_rejection	NA	0
34	Single	150	150	960	7	0	0	824737	683	0	correct_rejection	NA	0
34	Single	151	151	961	9	0	0	825453	684	0	correct_rejection	NA	0
34	Single	152	152	962	6	0	0	826170	683	0	correct_rejection	NA	0
34	Single	153	153	963	5	0	0	826887	683	0	correct_rejection	NA	0
34	Single	154	154	964	0	1	1	827603	684	1	hit	528	0
34	Single	155	155	965	7	0	0	828320	683	0	correct_rejection	NA	0
34	Single	156	156	966	7	0	0	829036	684	0	correct_rejection	NA	0
34	Single	157	157	967	0	1	1	829753	684	1	hit	629	0
34	Single	158	158	968	5	0	0	830470	683	0	correct_rejection	NA	0
34	Single	159	159	969	5	0	0	831186	684	0	correct_rejection	NA	0
34	Single	160	160	970	9	0	0	831903	683	0	correct_rejection	NA	0
34	Single	161	161	971	8	0	0	832620	683	0	correct_rejection	NA	0
34	Single	162	162	972	9	0	0	833336	684	0	correct_rejection	NA	0
34	Triplet	1	163	973	6	0	0	843886	684	0	correct_rejection	NA	7907
34	Triplet	2	164	974	5	0	0	844603	683	0	correct_rejection	NA	0
34	Triplet	3	165	975	4	0	0	845320	683	0	correct_rejection	NA	0
34	Triplet	4	166	976	0	1	2	846036	684	1	hit	568	0
34	Triplet	5	167	977	6	0	0	846753	683	0	correct_rejection	NA	0
34	Triplet	6	168	978	5	0	0	847470	683	0	correct_rejection	NA	0
34	Triplet	7	169	979	0	1	1	848186	684	1	hit	530	0
34	Triplet	8	170	980	4	0	0	848903	683	0	correct_rejection	NA	0
34	Triplet	9	171	981	4	0	0	849620	683	0	correct_rejection	NA	0
34	Triplet	10	172	982	5	0	0	850336	684	0	correct_rejection	NA	0
34	Triplet	11	173	983	0	1	1	851053	683	1	hit	511	0
34	Triplet	12	174	984	6	0	0	851769	684	0	correct_rejection	NA	0
34	Triplet	13	175	985	9	0	0	852486	683	0	correct_rejection	NA	0
34	Triplet	14	176	986	8	0	0	853203	683	0	correct_rejection	NA	0
34	Triplet	15	177	987	7	0	0	853919	684	0	correct_rejection	NA	0
34	Triplet	16	178	988	6	0	0	854636	683	0	correct_rejection	NA	0
34	Triplet	17	179	989	0	1	1	855353	683	1	hit	526	0
34	Triplet	18	180	990	5	0	0	856069	684	0	correct_rejection	NA	0
34	Triplet	19	181	991	4	0	0	856786	683	0	correct_rejection	NA	0
34	Triplet	20	182	992	9	0	0	857503	683	0	correct_rejection	NA	0
34	Triplet	21	183	993	8	0	0	858219	684	0	correct_rejection	NA	0
34	Triplet	22	184	994	7	0	0	858936	683	0	correct_rejection	NA	0
34	Triplet	23	185	995	0	1	2	859653	683	0	miss	NA	0
34	Triplet	24	186	996	7	0	0	860369	684	0	correct_rejection	NA	0
34	Triplet	25	187	997	8	0	0	861086	683	0	correct_rejection	NA	0
34	Triplet	26	188	998	9	0	0	861803	683	0	correct_rejection	NA	0
34	Triplet	27	189	999	6	0	0	862519	684	0	correct_rejection	NA	0
34	Triplet	28	190	1000	5	0	0	863236	683	0	correct_rejection	NA	0
34	Triplet	29	191	1001	0	1	1	863953	683	1	hit	466	0
34	Triplet	30	192	1002	4	0	0	864669	684	0	correct_rejection	NA	0
34	Triplet	31	193	1003	7	0	0	865386	683	0	correct_rejection	NA	0
34	Triplet	32	194	1004	8	0	0	866103	683	0	correct_rejection	NA	0
34	Triplet	33	195	1005	9	0	0	866819	684	0	correct_rejection	NA	0
34	Triplet	34	196	1006	7	0	0	867536	683	0	correct_rejection	NA	0
34	Triplet	35	197	1007	8	0	0	868253	683	0	correct_rejection	NA	0
34	Triplet	36	198	1008	9	0	0	868969	684	0	correct_rejection	NA	0
34	Triplet	37	199	1009	9	0	0	869686	683	0	correct_rejection	NA	0
34	Triplet	38	200	1010	8	0	0	870403	683	0	correct_rejection	NA	0
34	Triplet	39	201	1011	7	0	0	871119	684	0	correct_rejection	NA	0
34	Triplet	40	202	1012	9	0	0	871836	683	0	correct_rejection	NA	0
34	Triplet	41	203	1013	8	0	0	872552	684	0	correct_rejection	NA	0
34	Triplet	42	204	1014	0	1	1	873269	683	1	hit	506	0
34	Triplet	43	205	1015	7	0	0	873986	683	0	correct_rejection	NA	0
34	Triplet	44	206	1016	4	0	0	874702	684	0	correct_rejection	NA	0
34	Triplet	45	207	1017	5	0	0	875419	683	0	correct_rejection	NA	0
34	Triplet	46	208	1018	6	0	0	876136	683	0	correct_rejection	NA	0
34	Triplet	47	209	1019	4	0	0	876852	684	0	correct_rejection	NA	0
34	Triplet	48	210	1020	5	0	0	877569	683	0	correct_rejection	NA	0
34	Triplet	49	211	1021	6	0	0	878286	683	0	correct_rejection	NA	0
34	Triplet	50	212	1022	7	0	0	879002	684	0	correct_rejection	NA	0
34	Triplet	51	213	1023	8	0	0	879719	683	0	correct_rejection	NA	0
34	Triplet	52	214	1024	9	0	0	880436	683	0	correct_rejection	NA	0
34	Triplet	53	215	1025	4	0	0	881152	684	0	correct_rejection	NA	0
34	Triplet	54	216	1026	5	0	0	881869	683	0	correct_rejection	NA	0
34	Triplet	55	217	1027	6	0	0	882586	683	0	correct_rejection	NA	0
34	Triplet	56	218	1028	7	0	0	883302	684	0	correct_rejection	NA	0
34	Triplet	57	219	1029	0	1	1	884019	683	1	hit	635	0
34	Triplet	58	220	1030	8	0	0	884736	683	0	correct_rejection	NA	0
34	Triplet	59	221	1031	9	0	0	885452	684	0	correct_rejection	NA	0
34	Triplet	60	222	1032	0	1	2	886169	683	1	hit	543	0
34	Triplet	61	223	1033	6	0	0	886886	683	0	correct_rejection	NA	0
34	Triplet	62	224	1034	5	0	0	887602	684	0	correct_rejection	NA	0
34	Triplet	63	225	1035	4	0	0	888319	683	0	correct_rejection	NA	0
34	Triplet	64	226	1036	6	0	0	889036	683	0	correct_rejection	NA	0
34	Triplet	65	227	1037	5	0	0	889752	684	0	correct_rejection	NA	0
34	Triplet	66	228	1038	4	0	0	890469	683	0	correct_rejection	NA	0
34	Triplet	67	229	1039	9	0	0	891186	683	0	correct_rejection	NA	0
34	Triplet	68	230	1040	8	0	0	891902	684	0	correct_rejection	NA	0
34	Triplet	69	231	1041	7	0	0	892619	683	0	correct_rejection	NA	0
34	Triplet	70	232	1042	4	0	0	893335	684	0	correct_rejection	NA	0
34	Triplet	71	233	1043	0	1	1	894052	683	1	hit	672	0
34	Triplet	72	234	1044	5	0	0	894769	683	0	correct_rejection	NA	0
34	Triplet	73	235	1045	6	0	0	895485	684	0	correct_rejection	NA	0
34	Triplet	74	236	1046	7	0	0	896202	683	0	correct_rejection	NA	0
34	Triplet	75	237	1047	8	0	0	896919	683	0	correct_rejection	NA	0
34	Triplet	76	238	1048	9	0	0	897635	684	0	correct_rejection	NA	0
34	Triplet	77	239	1049	7	0	0	898352	683	0	correct_rejection	NA	0
34	Triplet	78	240	1050	8	0	0	899069	683	0	correct_rejection	NA	0
34	Triplet	79	241	1051	9	0	0	899785	684	0	correct_rejection	NA	0
34	Triplet	80	242	1052	4	0	0	900502	683	0	correct_rejection	NA	0
34	Triplet	81	243	1053	5	0	0	901219	683	0	correct_rejection	NA	0
34	Triplet	82	244	1054	6	0	0	901935	684	0	correct_rejection	NA	0
34	Triplet	83	245	1055	6	0	0	902652	683	0	correct_rejection	NA	0
34	Triplet	84	246	1056	5	0	0	903369	683	0	correct_rejection	NA	0
34	Triplet	85	247	1057	4	0	0	904085	684	0	correct_rejection	NA	0
34	Triplet	86	248	1058	7	0	0	904802	683	0	correct_rejection	NA	0
34	Triplet	87	249	1059	8	0	0	905519	683	0	correct_rejection	NA	0
34	Triplet	88	250	1060	9	0	0	906235	684	0	correct_rejection	NA	0
34	Triplet	89	251	1061	9	0	0	906952	683	0	correct_rejection	NA	0
34	Triplet	90	252	1062	8	0	0	907669	683	0	correct_rejection	NA	0
34	Triplet	91	253	1063	7	0	0	908385	684	0	correct_rejection	NA	0
34	Triplet	92	254	1064	6	0	0	909102	683	0	correct_rejection	NA	0
34	Triplet	93	255	1065	5	0	0	909819	683	0	correct_rejection	NA	0
34	Triplet	94	256	1066	4	0	0	910535	684	0	correct_rejection	NA	0
34	Triplet	95	257	1067	4	0	0	911252	683	0	correct_rejection	NA	0
34	Triplet	96	258	1068	5	0	0	911969	683	0	correct_rejection	NA	0
34	Triplet	97	259	1069	6	0	0	912685	684	0	correct_rejection	NA	0
34	Triplet	98	260	1070	4	0	0	913402	683	0	correct_rejection	NA	0
34	Triplet	99	261	1071	5	0	0	914118	684	0	correct_rejection	NA	0
34	Triplet	100	262	1072	6	0	0	914835	683	0	correct_rejection	NA	0
34	Triplet	101	263	1073	9	0	0	915552	683	0	correct_rejection	NA	0
34	Triplet	102	264	1074	8	0	0	916268	684	0	correct_rejection	NA	0
34	Triplet	103	265	1075	7	0	0	916985	683	0	correct_rejection	NA	0
34	Triplet	104	266	1076	0	1	2	917702	683	1	hit	615	0
34	Triplet	105	267	1077	9	0	0	918418	684	0	correct_rejection	NA	0
34	Triplet	106	268	1078	8	0	0	919135	683	0	correct_rejection	NA	0
34	Triplet	107	269	1079	7	0	0	919852	683	0	correct_rejection	NA	0
34	Triplet	108	270	1080	4	0	0	920568	684	0	correct_rejection	NA	0
34	Triplet	109	271	1081	5	0	0	921285	683	0	correct_rejection	NA	0
34	Triplet	110	272	1082	6	0	0	922002	683	0	correct_rejection	NA	0
34	Triplet	111	273	1083	4	0	0	922718	684	0	correct_rejection	NA	0
34	Triplet	112	274	1084	5	0	0	923435	683	0	correct_rejection	NA	0
34	Triplet	113	275	1085	6	0	0	924152	683	0	correct_rejection	NA	0
34	Triplet	114	276	1086	6	0	0	924868	684	0	correct_rejection	NA	0
34	Triplet	115	277	1087	0	1	1	925585	683	1	hit	676	0
34	Triplet	116	278	1088	5	0	0	926302	683	0	correct_rejection	NA	0
34	Triplet	117	279	1089	4	0	0	927018	684	0	correct_rejection	NA	0
34	Triplet	118	280	1090	9	0	0	927735	683	0	correct_rejection	NA	0
34	Triplet	119	281	1091	8	0	0	928452	683	0	correct_rejection	NA	0
34	Triplet	120	282	1092	0	1	1	929168	684	1	hit	525	0
34	Triplet	121	283	1093	7	0	0	929885	683	0	correct_rejection	NA	0
34	Triplet	122	284	1094	9	0	0	930602	683	0	correct_rejection	NA	0
34	Triplet	123	285	1095	0	1	1	931318	684	1	hit	625	0
34	Triplet	124	286	1096	8	0	0	932035	683	0	correct_rejection	NA	0
34	Triplet	125	287	1097	7	0	0	932752	683	0	correct_rejection	NA	0
34	Triplet	126	288	1098	6	0	0	933468	684	0	correct_rejection	NA	0
34	Triplet	127	289	1099	5	0	0	934185	683	0	correct_rejection	NA	0
34	Triplet	128	290	1100	4	0	0	934901	684	0	correct_rejection	NA	0
34	Triplet	129	291	1101	6	0	0	935618	684	0	correct_rejection	NA	0
34	Triplet	130	292	1102	5	0	0	936335	683	0	correct_rejection	NA	0
34	Triplet	131	293	1103	4	0	0	937051	684	0	correct_rejection	NA	0
34	Triplet	132	294	1104	7	0	0	937768	683	0	correct_rejection	NA	0
34	Triplet	133	295	1105	0	1	1	938485	683	1	hit	654	0
34	Triplet	134	296	1106	8	0	0	939201	684	0	correct_rejection	NA	0
34	Triplet	135	297	1107	9	0	0	939918	683	0	correct_rejection	NA	0
34	Triplet	136	298	1108	4	0	0	940635	683	0	correct_rejection	NA	0
34	Triplet	137	299	1109	5	0	0	941351	684	0	correct_rejection	NA	0
34	Triplet	138	300	1110	6	0	0	942068	683	0	correct_rejection	NA	0
34	Triplet	139	301	1111	7	0	0	942785	683	0	correct_rejection	NA	0
34	Triplet	140	302	1112	8	0	0	943501	684	0	correct_rejection	NA	0
34	Triplet	141	303	1113	0	1	1	944218	683	0	miss	NA	0
34	Triplet	142	304	1114	9	0	0	944935	683	1	false_alarm	43	0
34	Triplet	143	305	1115	9	0	0	945651	684	0	correct_rejection	NA	0
34	Triplet	144	306	1116	8	0	0	946368	683	0	correct_rejection	NA	0
34	Triplet	145	307	1117	7	0	0	947085	683	0	correct_rejection	NA	0
34	Triplet	146	308	1118	4	0	0	947801	684	0	correct_rejection	NA	0
34	Triplet	147	309	1119	5	0	0	948518	683	0	correct_rejection	NA	0
34	Triplet	148	310	1120	6	0	0	949235	683	0	correct_rejection	NA	0
34	Triplet	149	311	1121	9	0	0	949951	684	0	correct_rejection	NA	0
34	Triplet	150	312	1122	0	1	1	950668	683	1	hit	557	0
34	Triplet	151	313	1123	8	0	0	951385	683	0	correct_rejection	NA	0
34	Triplet	152	314	1124	7	0	0	952101	684	0	correct_rejection	NA	0
34	Triplet	153	315	1125	7	0	0	952818	683	0	correct_rejection	NA	0
34	Triplet	154	316	1126	8	0	0	953535	683	0	correct_rejection	NA	0
34	Triplet	155	317	1127	9	0	0	954251	684	0	correct_rejection	NA	0
34	Triplet	156	318	1128	7	0	0	954968	683	0	correct_rejection	NA	0
34	Triplet	157	319	1129	0	1	1	955685	683	0	miss	NA	0
34	Triplet	158	320	1130	8	0	0	956401	684	1	false_alarm	0	0
34	Triplet	159	321	1131	9	0	0	957118	683	0	correct_rejection	NA	0
34	Triplet	160	322	1132	6	0	0	957834	684	0	correct_rejection	NA	0
34	Triplet	161	323	1133	5	0	0	958551	683	0	correct_rejection	NA	0
34	Triplet	162	324	1134	4	0	0	959268	683	0	correct_rejection	NA	0
34	Correct	1	487	1135	4	0	0	969684	684	0	correct_rejection	NA	7717
34	Correct	2	488	1136	5	0	0	970401	683	0	correct_rejection	NA	0
34	Correct	3	489	1137	6	0	0	971118	683	0	correct_rejection	NA	0
34	Correct	4	490	1138	4	0	0	971834	684	0	correct_rejection	NA	0
34	Correct	5	491	1139	0	1	1	972551	683	1	hit	517	0
34	Correct	6	492	1140	5	0	0	973268	683	0	correct_rejection	NA	0
34	Correct	7	493	1141	6	0	0	973984	684	0	correct_rejection	NA	0
34	Correct	8	494	1142	0	1	2	974701	683	1	hit	512	0
34	Correct	9	495	1143	4	0	0	975418	683	0	correct_rejection	NA	0
34	Correct	10	496	1144	5	0	0	976134	684	0	correct_rejection	NA	0
34	Correct	11	497	1145	6	0	0	976851	683	0	correct_rejection	NA	0
34	Correct	12	498	1146	6	0	0	977567	684	0	correct_rejection	NA	0
34	Correct	13	499	1147	5	0	0	978284	684	0	correct_rejection	NA	0
34	Correct	14	500	1148	4	0	0	979001	683	0	correct_rejection	NA	0
34	Correct	15	501	1149	0	1	2	979717	684	1	hit	517	0
34	Correct	16	502	1150	6	0	0	980434	683	0	correct_rejection	NA	0
34	Correct	17	503	1151	5	0	0	981151	683	0	correct_rejection	NA	0
34	Correct	18	504	1152	4	0	0	981867	684	0	correct_rejection	NA	0
34	Correct	19	505	1153	6	0	0	982584	683	0	correct_rejection	NA	0
34	Correct	20	506	1154	0	1	1	983301	683	1	hit	449	0
34	Correct	21	507	1155	5	0	0	984017	684	0	correct_rejection	NA	0
34	Correct	22	508	1156	4	0	0	984734	683	0	correct_rejection	NA	0
34	Correct	23	509	1157	9	0	0	985451	683	0	correct_rejection	NA	0
34	Correct	24	510	1158	8	0	0	986167	684	0	correct_rejection	NA	0
34	Correct	25	511	1159	7	0	0	986884	683	0	correct_rejection	NA	0
34	Correct	26	512	1160	9	0	0	987601	683	0	correct_rejection	NA	0
34	Correct	27	513	1161	0	1	1	988317	684	0	miss	NA	0
34	Correct	28	514	1162	8	0	0	989034	683	1	false_alarm	133	0
34	Correct	29	515	1163	7	0	0	989751	683	0	correct_rejection	NA	0
34	Correct	30	516	1164	9	0	0	990467	684	0	correct_rejection	NA	0
34	Correct	31	517	1165	8	0	0	991184	683	0	correct_rejection	NA	0
34	Correct	32	518	1166	0	1	1	991901	683	1	hit	625	0
34	Correct	33	519	1167	7	0	0	992617	684	0	correct_rejection	NA	0
34	Correct	34	520	1168	7	0	0	993334	683	0	correct_rejection	NA	0
34	Correct	35	521	1169	8	0	0	994051	683	0	correct_rejection	NA	0
34	Correct	36	522	1170	9	0	0	994767	684	0	correct_rejection	NA	0
34	Correct	37	523	1171	7	0	0	995484	683	0	correct_rejection	NA	0
34	Correct	38	524	1172	8	0	0	996201	683	0	correct_rejection	NA	0
34	Correct	39	525	1173	9	0	0	996917	684	0	correct_rejection	NA	0
34	Correct	40	526	1174	7	0	0	997634	683	0	correct_rejection	NA	0
34	Correct	41	527	1175	8	0	0	998350	684	0	correct_rejection	NA	0
34	Correct	42	528	1176	9	0	0	999067	684	0	correct_rejection	NA	0
34	Correct	43	529	1177	4	0	0	999784	683	0	correct_rejection	NA	0
34	Correct	44	530	1178	5	0	0	1000500	684	0	correct_rejection	NA	0
34	Correct	45	531	1179	6	0	0	1001217	683	0	correct_rejection	NA	0
34	Correct	46	532	1180	4	0	0	1001934	683	0	correct_rejection	NA	0
34	Correct	47	533	1181	5	0	0	1002650	684	0	correct_rejection	NA	0
34	Correct	48	534	1182	6	0	0	1003367	683	0	correct_rejection	NA	0
34	Correct	49	535	1183	4	0	0	1004084	683	0	correct_rejection	NA	0
34	Correct	50	536	1184	5	0	0	1004800	684	0	correct_rejection	NA	0
34	Correct	51	537	1185	0	1	1	1005517	683	1	hit	558	0
34	Correct	52	538	1186	6	0	0	1006234	683	0	correct_rejection	NA	0
34	Correct	53	539	1187	6	0	0	1006950	684	0	correct_rejection	NA	0
34	Correct	54	540	1188	5	0	0	1007667	683	0	correct_rejection	NA	0
34	Correct	55	541	1189	4	0	0	1008384	683	0	correct_rejection	NA	0
34	Correct	56	542	1190	6	0	0	1009100	684	0	correct_rejection	NA	0
34	Correct	57	543	1191	5	0	0	1009817	683	0	correct_rejection	NA	0
34	Correct	58	544	1192	4	0	0	1010534	683	0	correct_rejection	NA	0
34	Correct	59	545	1193	0	1	2	1011250	684	1	hit	498	0
34	Correct	60	546	1194	6	0	0	1011967	683	0	correct_rejection	NA	0
34	Correct	61	547	1195	5	0	0	1012684	683	0	correct_rejection	NA	0
34	Correct	62	548	1196	0	1	1	1013400	684	1	hit	529	0
34	Correct	63	549	1197	4	0	0	1014117	683	0	correct_rejection	NA	0
34	Correct	64	550	1198	9	0	0	1014834	683	0	correct_rejection	NA	0
34	Correct	65	551	1199	0	1	1	1015550	684	1	hit	537	0
34	Correct	66	552	1200	8	0	0	1016267	683	0	correct_rejection	NA	0
34	Correct	67	553	1201	7	0	0	1016984	683	0	correct_rejection	NA	0
34	Correct	68	554	1202	9	0	0	1017700	684	0	correct_rejection	NA	0
34	Correct	69	555	1203	8	0	0	1018417	683	0	correct_rejection	NA	0
34	Correct	70	556	1204	0	1	1	1019134	683	0	miss	NA	0
34	Correct	71	557	1205	7	0	0	1019850	684	0	correct_rejection	NA	0
34	Correct	72	558	1206	9	0	0	1020567	683	0	correct_rejection	NA	0
34	Correct	73	559	1207	8	0	0	1021283	684	0	correct_rejection	NA	0
34	Correct	74	560	1208	7	0	0	1022000	683	0	correct_rejection	NA	0
34	Correct	75	561	1209	7	0	0	1022717	683	0	correct_rejection	NA	0
34	Correct	76	562	1210	8	0	0	1023433	684	0	correct_rejection	NA	0
34	Correct	77	563	1211	9	0	0	1024150	683	0	correct_rejection	NA	0
34	Correct	78	564	1212	7	0	0	1024867	683	0	correct_rejection	NA	0
34	Correct	79	565	1213	8	0	0	1025583	684	0	correct_rejection	NA	0
34	Correct	80	566	1214	9	0	0	1026300	683	0	correct_rejection	NA	0
34	Correct	81	567	1215	7	0	0	1027017	683	0	correct_rejection	NA	0
34	Correct	82	568	1216	8	0	0	1027733	684	0	correct_rejection	NA	0
34	Correct	83	569	1217	9	0	0	1028450	683	0	correct_rejection	NA	0
34	Correct	84	570	1218	4	0	0	1029167	683	0	correct_rejection	NA	0
34	Correct	85	571	1219	5	0	0	1029883	684	0	correct_rejection	NA	0
34	Correct	86	572	1220	6	0	0	1030600	683	0	correct_rejection	NA	0
34	Correct	87	573	1221	4	0	0	1031317	683	0	correct_rejection	NA	0
34	Correct	88	574	1222	5	0	0	1032033	684	0	correct_rejection	NA	0
34	Correct	89	575	1223	0	1	1	1032750	683	1	hit	567	0
34	Correct	90	576	1224	6	0	0	1033467	683	0	correct_rejection	NA	0
34	Correct	91	577	1225	4	0	0	1034183	684	0	correct_rejection	NA	0
34	Correct	92	578	1226	5	0	0	1034900	683	0	correct_rejection	NA	0
34	Correct	93	579	1227	6	0	0	1035617	683	0	correct_rejection	NA	0
34	Correct	94	580	1228	6	0	0	1036333	684	0	correct_rejection	NA	0
34	Correct	95	581	1229	0	1	1	1037050	683	1	hit	560	0
34	Correct	96	582	1230	5	0	0	1037767	683	0	correct_rejection	NA	0
34	Correct	97	583	1231	4	0	0	1038483	684	0	correct_rejection	NA	0
34	Correct	98	584	1232	6	0	0	1039200	683	0	correct_rejection	NA	0
34	Correct	99	585	1233	5	0	0	1039917	683	0	correct_rejection	NA	0
34	Correct	100	586	1234	4	0	0	1040633	684	0	correct_rejection	NA	0
34	Correct	101	587	1235	6	0	0	1041350	683	1	false_alarm	592	0
34	Correct	102	588	1236	5	0	0	1042066	684	0	correct_rejection	NA	0
34	Correct	103	589	1237	4	0	0	1042783	683	0	correct_rejection	NA	0
34	Correct	104	590	1238	9	0	0	1043500	683	0	correct_rejection	NA	0
34	Correct	105	591	1239	8	0	0	1044216	684	0	correct_rejection	NA	0
34	Correct	106	592	1240	7	0	0	1044933	683	0	correct_rejection	NA	0
34	Correct	107	593	1241	9	0	0	1045650	683	0	correct_rejection	NA	0
34	Correct	108	594	1242	8	0	0	1046366	684	0	correct_rejection	NA	0
34	Correct	109	595	1243	7	0	0	1047083	683	0	correct_rejection	NA	0
34	Correct	110	596	1244	9	0	0	1047800	683	0	correct_rejection	NA	0
34	Correct	111	597	1245	8	0	0	1048516	684	0	correct_rejection	NA	0
34	Correct	112	598	1246	7	0	0	1049233	683	0	correct_rejection	NA	0
34	Correct	113	599	1247	7	0	0	1049950	683	0	correct_rejection	NA	0
34	Correct	114	600	1248	8	0	0	1050666	684	0	correct_rejection	NA	0
34	Correct	115	601	1249	0	1	1	1051383	683	1	hit	561	0
34	Correct	116	602	1250	9	0	0	1052100	683	0	correct_rejection	NA	0
34	Correct	117	603	1251	7	0	0	1052816	684	0	correct_rejection	NA	0
34	Correct	118	604	1252	8	0	0	1053533	683	0	correct_rejection	NA	0
34	Correct	119	605	1253	9	0	0	1054250	683	0	correct_rejection	NA	0
34	Correct	120	606	1254	7	0	0	1054966	684	0	correct_rejection	NA	0
34	Correct	121	607	1255	8	0	0	1055683	683	0	correct_rejection	NA	0
34	Correct	122	608	1256	9	0	0	1056400	683	0	correct_rejection	NA	0
34	Correct	123	609	1257	0	1	4	1057116	684	0	miss	NA	0
34	Correct	124	610	1258	4	0	0	1057833	683	1	false_alarm	105	0
34	Correct	125	611	1259	5	0	0	1058550	683	0	correct_rejection	NA	0
34	Correct	126	612	1260	6	0	0	1059266	684	0	correct_rejection	NA	0
34	Correct	127	613	1261	4	0	0	1059983	683	0	correct_rejection	NA	0
34	Correct	128	614	1262	5	0	0	1060700	683	0	correct_rejection	NA	0
34	Correct	129	615	1263	6	0	0	1061416	684	0	correct_rejection	NA	0
34	Correct	130	616	1264	0	1	2	1062133	683	1	hit	497	0
34	Correct	131	617	1265	4	0	0	1062849	684	0	correct_rejection	NA	0
34	Correct	132	618	1266	5	0	0	1063566	684	0	correct_rejection	NA	0
34	Correct	133	619	1267	6	0	0	1064283	683	0	correct_rejection	NA	0
34	Correct	134	620	1268	6	0	0	1064999	684	0	correct_rejection	NA	0
34	Correct	135	621	1269	5	0	0	1065716	683	0	correct_rejection	NA	0
34	Correct	136	622	1270	4	0	0	1066433	683	0	correct_rejection	NA	0
34	Correct	137	623	1271	6	0	0	1067149	684	0	correct_rejection	NA	0
34	Correct	138	624	1272	5	0	0	1067866	683	0	correct_rejection	NA	0
34	Correct	139	625	1273	0	1	1	1068583	683	0	miss	NA	0
34	Correct	140	626	1274	4	0	0	1069299	684	1	false_alarm	118	0
34	Correct	141	627	1275	6	0	0	1070016	683	0	correct_rejection	NA	0
34	Correct	142	628	1276	5	0	0	1070733	683	0	correct_rejection	NA	0
34	Correct	143	629	1277	4	0	0	1071449	684	0	correct_rejection	NA	0
34	Correct	144	630	1278	0	1	3	1072166	683	1	hit	576	0
34	Correct	145	631	1279	9	0	0	1072883	683	0	correct_rejection	NA	0
34	Correct	146	632	1280	8	0	0	1073599	684	0	correct_rejection	NA	0
34	Correct	147	633	1281	7	0	0	1074316	683	0	correct_rejection	NA	0
34	Correct	148	634	1282	9	0	0	1075033	683	0	correct_rejection	NA	0
34	Correct	149	635	1283	8	0	0	1075749	684	0	correct_rejection	NA	0
34	Correct	150	636	1284	7	0	0	1076466	683	0	correct_rejection	NA	0
34	Correct	151	637	1285	9	0	0	1077183	683	0	correct_rejection	NA	0
34	Correct	152	638	1286	8	0	0	1077899	684	0	correct_rejection	NA	0
34	Correct	153	639	1287	7	0	0	1078616	683	0	correct_rejection	NA	0
34	Correct	154	640	1288	7	0	0	1079333	683	0	correct_rejection	NA	0
34	Correct	155	641	1289	8	0	0	1080049	684	0	correct_rejection	NA	0
34	Correct	156	642	1290	9	0	0	1080766	683	0	correct_rejection	NA	0
34	Correct	157	643	1291	7	0	0	1081483	683	0	correct_rejection	NA	0
34	Correct	158	644	1292	8	0	0	1082199	684	0	correct_rejection	NA	0
34	Correct	159	645	1293	9	0	0	1082916	683	0	correct_rejection	NA	0
34	Correct	160	646	1294	7	0	0	1083632	684	0	correct_rejection	NA	0
34	Correct	161	647	1295	8	0	0	1084349	684	0	correct_rejection	NA	0
34	Correct	162	648	1296	9	0	0	1085066	683	0	correct_rejection	NA	0
34	Triplet	1	1	1297	9	0	0	1094799	683	0	correct_rejection	NA	7837
34	Triplet	2	2	1298	8	0	0	1095516	683	0	correct_rejection	NA	0
34	Triplet	3	3	1299	7	0	0	1096232	684	0	correct_rejection	NA	0
34	Triplet	4	4	1300	6	0	0	1096949	683	0	correct_rejection	NA	0
34	Triplet	5	5	1301	5	0	0	1097666	683	0	correct_rejection	NA	0
34	Triplet	6	6	1302	4	0	0	1098382	684	0	correct_rejection	NA	0
34	Triplet	7	7	1303	7	0	0	1099099	683	0	correct_rejection	NA	0
34	Triplet	8	8	1304	8	0	0	1099816	683	0	correct_rejection	NA	0
34	Triplet	9	9	1305	9	0	0	1100532	684	0	correct_rejection	NA	0
34	Triplet	10	10	1306	7	0	0	1101249	683	0	correct_rejection	NA	0
34	Triplet	11	11	1307	8	0	0	1101966	683	0	correct_rejection	NA	0
34	Triplet	12	12	1308	9	0	0	1102682	684	0	correct_rejection	NA	0
34	Triplet	13	13	1309	0	1	2	1103399	683	1	hit	467	0
34	Triplet	14	14	1310	4	0	0	1104116	683	0	correct_rejection	NA	0
34	Triplet	15	15	1311	5	0	0	1104832	684	0	correct_rejection	NA	0
34	Triplet	16	16	1312	0	1	1	1105549	683	1	hit	680	0
34	Triplet	17	17	1313	6	0	0	1106265	684	0	correct_rejection	NA	0
34	Triplet	18	18	1314	6	0	0	1106982	683	0	correct_rejection	NA	0
34	Triplet	19	19	1315	0	1	1	1107699	683	0	miss	NA	0
34	Triplet	20	20	1316	5	0	0	1108415	684	1	false_alarm	0	0
34	Triplet	21	21	1317	4	0	0	1109132	683	0	correct_rejection	NA	0
34	Triplet	22	22	1318	4	0	0	1109849	683	0	correct_rejection	NA	0
34	Triplet	23	23	1319	5	0	0	1110565	684	0	correct_rejection	NA	0
34	Triplet	24	24	1320	6	0	0	1111282	683	0	correct_rejection	NA	0
34	Triplet	25	25	1321	0	1	2	1111999	683	0	miss	NA	0
34	Triplet	26	26	1322	7	0	0	1112715	684	0	correct_rejection	NA	0
34	Triplet	27	27	1323	8	0	0	1113432	683	0	correct_rejection	NA	0
34	Triplet	28	28	1324	9	0	0	1114149	683	0	correct_rejection	NA	0
34	Triplet	29	29	1325	9	0	0	1114865	684	0	correct_rejection	NA	0
34	Triplet	30	30	1326	8	0	0	1115582	683	0	correct_rejection	NA	0
34	Triplet	31	31	1327	7	0	0	1116299	683	0	correct_rejection	NA	0
34	Triplet	32	32	1328	7	0	0	1117015	684	0	correct_rejection	NA	0
34	Triplet	33	33	1329	8	0	0	1117732	683	0	correct_rejection	NA	0
34	Triplet	34	34	1330	9	0	0	1118449	683	0	correct_rejection	NA	0
34	Triplet	35	35	1331	6	0	0	1119165	684	0	correct_rejection	NA	0
34	Triplet	36	36	1332	5	0	0	1119882	683	0	correct_rejection	NA	0
34	Triplet	37	37	1333	4	0	0	1120599	683	0	correct_rejection	NA	0
34	Triplet	38	38	1334	6	0	0	1121315	684	0	correct_rejection	NA	0
34	Triplet	39	39	1335	5	0	0	1122032	683	0	correct_rejection	NA	0
34	Triplet	40	40	1336	4	0	0	1122749	683	0	correct_rejection	NA	0
34	Triplet	41	41	1337	9	0	0	1123465	684	0	correct_rejection	NA	0
34	Triplet	42	42	1338	8	0	0	1124182	683	0	correct_rejection	NA	0
34	Triplet	43	43	1339	7	0	0	1124899	683	0	correct_rejection	NA	0
34	Triplet	44	44	1340	9	0	0	1125615	684	0	correct_rejection	NA	0
34	Triplet	45	45	1341	8	0	0	1126332	683	0	correct_rejection	NA	0
34	Triplet	46	46	1342	7	0	0	1127048	684	0	correct_rejection	NA	0
34	Triplet	47	47	1343	0	1	2	1127765	684	1	hit	452	0
34	Triplet	48	48	1344	4	0	0	1128482	683	0	correct_rejection	NA	0
34	Triplet	49	49	1345	5	0	0	1129198	684	0	correct_rejection	NA	0
34	Triplet	50	50	1346	0	1	1	1129915	683	1	hit	467	0
34	Triplet	51	51	1347	6	0	0	1130632	683	0	correct_rejection	NA	0
34	Triplet	52	52	1348	4	0	0	1131348	684	0	correct_rejection	NA	0
34	Triplet	53	53	1349	5	0	0	1132065	683	0	correct_rejection	NA	0
34	Triplet	54	54	1350	6	0	0	1132782	683	0	correct_rejection	NA	0
34	Triplet	55	55	1351	9	0	0	1133498	684	0	correct_rejection	NA	0
34	Triplet	56	56	1352	8	0	0	1134215	683	0	correct_rejection	NA	0
34	Triplet	57	57	1353	7	0	0	1134932	683	0	correct_rejection	NA	0
34	Triplet	58	58	1354	4	0	0	1135648	684	0	correct_rejection	NA	0
34	Triplet	59	59	1355	5	0	0	1136365	683	0	correct_rejection	NA	0
34	Triplet	60	60	1356	6	0	0	1137082	683	0	correct_rejection	NA	0
34	Triplet	61	61	1357	0	1	2	1137798	684	1	hit	412	0
34	Triplet	62	62	1358	6	0	0	1138515	683	0	correct_rejection	NA	0
34	Triplet	63	63	1359	5	0	0	1139232	683	0	correct_rejection	NA	0
34	Triplet	64	64	1360	0	1	1	1139948	684	1	hit	568	0
34	Triplet	65	65	1361	4	0	0	1140665	683	0	correct_rejection	NA	0
34	Triplet	66	66	1362	6	0	0	1141382	683	0	correct_rejection	NA	0
34	Triplet	67	67	1363	5	0	0	1142098	684	0	correct_rejection	NA	0
34	Triplet	68	68	1364	4	0	0	1142815	683	0	correct_rejection	NA	0
34	Triplet	69	69	1365	0	1	2	1143532	683	1	hit	653	0
34	Triplet	70	70	1366	7	0	0	1144248	684	0	correct_rejection	NA	0
34	Triplet	71	71	1367	8	0	0	1144965	683	0	correct_rejection	NA	0
34	Triplet	72	72	1368	0	1	1	1145682	683	1	hit	489	0
34	Triplet	73	73	1369	9	0	0	1146398	684	0	correct_rejection	NA	0
34	Triplet	74	74	1370	4	0	0	1147115	683	0	correct_rejection	NA	0
34	Triplet	75	75	1371	0	1	1	1147831	684	1	hit	432	0
34	Triplet	76	76	1372	5	0	0	1148548	684	0	correct_rejection	NA	0
34	Triplet	77	77	1373	6	0	0	1149265	683	0	correct_rejection	NA	0
34	Triplet	78	78	1374	9	0	0	1149981	684	0	correct_rejection	NA	0
34	Triplet	79	79	1375	8	0	0	1150698	683	0	correct_rejection	NA	0
34	Triplet	80	80	1376	7	0	0	1151415	683	0	correct_rejection	NA	0
34	Triplet	81	81	1377	7	0	0	1152131	684	0	correct_rejection	NA	0
34	Triplet	82	82	1378	8	0	0	1152848	683	0	correct_rejection	NA	0
34	Triplet	83	83	1379	9	0	0	1153565	683	0	correct_rejection	NA	0
34	Triplet	84	84	1380	0	1	2	1154281	684	1	hit	675	0
34	Triplet	85	85	1381	9	0	0	1154998	683	0	correct_rejection	NA	0
34	Triplet	86	86	1382	8	0	0	1155715	683	0	correct_rejection	NA	0
34	Triplet	87	87	1383	7	0	0	1156431	684	0	correct_rejection	NA	0
34	Triplet	88	88	1384	6	0	0	1157148	683	0	correct_rejection	NA	0
34	Triplet	89	89	1385	5	0	0	1157865	683	0	correct_rejection	NA	0
34	Triplet	90	90	1386	4	0	0	1158581	684	0	correct_rejection	NA	0
34	Triplet	91	91	1387	4	0	0	1159298	683	0	correct_rejection	NA	0
34	Triplet	92	92	1388	5	0	0	1160015	683	0	correct_rejection	NA	0
34	Triplet	93	93	1389	6	0	0	1160731	684	0	correct_rejection	NA	0
34	Triplet	94	94	1390	4	0	0	1161448	683	0	correct_rejection	NA	0
34	Triplet	95	95	1391	0	1	1	1162165	683	1	hit	490	0
34	Triplet	96	96	1392	5	0	0	1162881	684	0	correct_rejection	NA	0
34	Triplet	97	97	1393	6	0	0	1163598	683	0	correct_rejection	NA	0
34	Triplet	98	98	1394	7	0	0	1164315	683	0	correct_rejection	NA	0
34	Triplet	99	99	1395	8	0	0	1165031	684	0	correct_rejection	NA	0
34	Triplet	100	100	1396	9	0	0	1165748	683	0	correct_rejection	NA	0
34	Triplet	101	101	1397	7	0	0	1166465	683	0	correct_rejection	NA	0
34	Triplet	102	102	1398	8	0	0	1167181	684	0	correct_rejection	NA	0
34	Triplet	103	103	1399	9	0	0	1167898	683	0	correct_rejection	NA	0
34	Triplet	104	104	1400	6	0	0	1168615	683	0	correct_rejection	NA	0
34	Triplet	105	105	1401	5	0	0	1169331	684	0	correct_rejection	NA	0
34	Triplet	106	106	1402	4	0	0	1170048	683	0	correct_rejection	NA	0
34	Triplet	107	107	1403	9	0	0	1170764	684	0	correct_rejection	NA	0
34	Triplet	108	108	1404	8	0	0	1171481	683	0	correct_rejection	NA	0
34	Triplet	109	109	1405	0	1	1	1172198	683	0	miss	NA	0
34	Triplet	110	110	1406	7	0	0	1172914	684	0	correct_rejection	NA	0
34	Triplet	111	111	1407	7	0	0	1173631	683	0	correct_rejection	NA	0
34	Triplet	112	112	1408	8	0	0	1174348	683	0	correct_rejection	NA	0
34	Triplet	113	113	1409	9	0	0	1175064	684	0	correct_rejection	NA	0
34	Triplet	114	114	1410	4	0	0	1175781	683	0	correct_rejection	NA	0
34	Triplet	115	115	1411	5	0	0	1176498	683	0	correct_rejection	NA	0
34	Triplet	116	116	1412	6	0	0	1177214	684	0	correct_rejection	NA	0
34	Triplet	117	117	1413	4	0	0	1177931	683	0	correct_rejection	NA	0
34	Triplet	118	118	1414	5	0	0	1178648	683	0	correct_rejection	NA	0
34	Triplet	119	119	1415	6	0	0	1179364	684	0	correct_rejection	NA	0
34	Triplet	120	120	1416	0	1	2	1180081	683	0	miss	NA	0
34	Triplet	121	121	1417	9	0	0	1180798	683	1	false_alarm	107	0
34	Triplet	122	122	1418	8	0	0	1181514	684	0	correct_rejection	NA	0
34	Triplet	123	123	1419	7	0	0	1182231	683	0	correct_rejection	NA	0
34	Triplet	124	124	1420	4	0	0	1182948	683	0	correct_rejection	NA	0
34	Triplet	125	125	1421	5	0	0	1183664	684	0	correct_rejection	NA	0
34	Triplet	126	126	1422	6	0	0	1184381	683	0	correct_rejection	NA	0
34	Triplet	127	127	1423	7	0	0	1185098	683	0	correct_rejection	NA	0
34	Triplet	128	128	1424	8	0	0	1185814	684	0	correct_rejection	NA	0
34	Triplet	129	129	1425	0	1	1	1186531	683	1	hit	598	0
34	Triplet	130	130	1426	9	0	0	1187248	683	0	correct_rejection	NA	0
34	Triplet	131	131	1427	6	0	0	1187964	684	0	correct_rejection	NA	0
34	Triplet	132	132	1428	5	0	0	1188681	683	0	correct_rejection	NA	0
34	Triplet	133	133	1429	4	0	0	1189398	683	0	correct_rejection	NA	0
34	Triplet	134	134	1430	0	1	2	1190114	684	0	miss	NA	0
34	Triplet	135	135	1431	4	0	0	1190831	683	1	false_alarm	26	0
34	Triplet	136	136	1432	5	0	0	1191547	684	0	correct_rejection	NA	0
34	Triplet	137	137	1433	6	0	0	1192264	683	0	correct_rejection	NA	0
34	Triplet	138	138	1434	6	0	0	1192981	683	0	correct_rejection	NA	0
34	Triplet	139	139	1435	5	0	0	1193697	684	0	correct_rejection	NA	0
34	Triplet	140	140	1436	4	0	0	1194414	683	0	correct_rejection	NA	0
34	Triplet	141	141	1437	9	0	0	1195131	683	0	correct_rejection	NA	0
34	Triplet	142	142	1438	8	0	0	1195847	684	0	correct_rejection	NA	0
34	Triplet	143	143	1439	7	0	0	1196564	683	0	correct_rejection	NA	0
34	Triplet	144	144	1440	7	0	0	1197281	683	0	correct_rejection	NA	0
34	Triplet	145	145	1441	8	0	0	1197997	684	0	correct_rejection	NA	0
34	Triplet	146	146	1442	9	0	0	1198714	683	0	correct_rejection	NA	0
34	Triplet	147	147	1443	7	0	0	1199431	683	0	correct_rejection	NA	0
34	Triplet	148	148	1444	8	0	0	1200147	684	0	correct_rejection	NA	0
34	Triplet	149	149	1445	9	0	0	1200864	683	0	correct_rejection	NA	0
34	Triplet	150	150	1446	9	0	0	1201581	683	0	correct_rejection	NA	0
34	Triplet	151	151	1447	0	1	1	1202297	684	0	miss	NA	0
34	Triplet	152	152	1448	8	0	0	1203014	683	0	correct_rejection	NA	0
34	Triplet	153	153	1449	7	0	0	1203731	683	0	correct_rejection	NA	0
34	Triplet	154	154	1450	9	0	0	1204447	684	0	correct_rejection	NA	0
34	Triplet	155	155	1451	8	0	0	1205164	683	0	correct_rejection	NA	0
34	Triplet	156	156	1452	7	0	0	1205881	683	0	correct_rejection	NA	0
34	Triplet	157	157	1453	6	0	0	1206597	684	0	correct_rejection	NA	0
34	Triplet	158	158	1454	5	0	0	1207314	683	0	correct_rejection	NA	0
34	Triplet	159	159	1455	4	0	0	1208031	683	0	correct_rejection	NA	0
34	Triplet	160	160	1456	6	0	0	1208747	684	0	correct_rejection	NA	0
34	Triplet	161	161	1457	5	0	0	1209464	683	0	correct_rejection	NA	0
34	Triplet	162	162	1458	4	0	0	1210181	683	0	correct_rejection	NA	0
34	Nonet	1	163	1459	4	0	0	1219630	684	0	correct_rejection	NA	7667
34	Nonet	2	164	1460	5	0	0	1220347	683	0	correct_rejection	NA	0
34	Nonet	3	165	1461	6	0	0	1221064	683	0	correct_rejection	NA	0
34	Nonet	4	166	1462	4	0	0	1221780	684	0	correct_rejection	NA	0
34	Nonet	5	167	1463	5	0	0	1222497	683	0	correct_rejection	NA	0
34	Nonet	6	168	1464	6	0	0	1223214	683	0	correct_rejection	NA	0
34	Nonet	7	169	1465	4	0	0	1223930	684	0	correct_rejection	NA	0
34	Nonet	8	170	1466	5	0	0	1224647	683	0	correct_rejection	NA	0
34	Nonet	9	171	1467	0	1	1	1225364	683	1	hit	447	0
34	Nonet	10	172	1468	6	0	0	1226080	684	0	correct_rejection	NA	0
34	Nonet	11	173	1469	4	0	0	1226797	683	0	correct_rejection	NA	0
34	Nonet	12	174	1470	5	0	0	1227514	683	0	correct_rejection	NA	0
34	Nonet	13	175	1471	6	0	0	1228230	684	0	correct_rejection	NA	0
34	Nonet	14	176	1472	4	0	0	1228947	683	0	correct_rejection	NA	0
34	Nonet	15	177	1473	5	0	0	1229664	683	0	correct_rejection	NA	0
34	Nonet	16	178	1474	6	0	0	1230380	684	0	correct_rejection	NA	0
34	Nonet	17	179	1475	4	0	0	1231097	683	0	correct_rejection	NA	0
34	Nonet	18	180	1476	5	0	0	1231814	683	0	correct_rejection	NA	0
34	Nonet	19	181	1477	6	0	0	1232530	684	0	correct_rejection	NA	0
34	Nonet	20	182	1478	7	0	0	1233247	683	0	correct_rejection	NA	0
34	Nonet	21	183	1479	8	0	0	1233963	684	0	correct_rejection	NA	0
34	Nonet	22	184	1480	9	0	0	1234680	683	0	correct_rejection	NA	0
34	Nonet	23	185	1481	7	0	0	1235397	683	0	correct_rejection	NA	0
34	Nonet	24	186	1482	8	0	0	1236113	684	0	correct_rejection	NA	0
34	Nonet	25	187	1483	9	0	0	1236830	683	0	correct_rejection	NA	0
34	Nonet	26	188	1484	7	0	0	1237547	683	0	correct_rejection	NA	0
34	Nonet	27	189	1485	0	1	1	1238263	684	1	hit	451	0
34	Nonet	28	190	1486	8	0	0	1238980	683	0	correct_rejection	NA	0
34	Nonet	29	191	1487	9	0	0	1239697	683	0	correct_rejection	NA	0
34	Nonet	30	192	1488	0	1	3	1240413	684	1	hit	475	0
34	Nonet	31	193	1489	7	0	0	1241130	683	0	correct_rejection	NA	0
34	Nonet	32	194	1490	8	0	0	1241847	683	0	correct_rejection	NA	0
34	Nonet	33	195	1491	9	0	0	1242563	684	0	correct_rejection	NA	0
34	Nonet	34	196	1492	7	0	0	1243280	683	0	correct_rejection	NA	0
34	Nonet	35	197	1493	0	1	1	1243997	683	1	hit	663	0
34	Nonet	36	198	1494	8	0	0	1244713	684	0	correct_rejection	NA	0
34	Nonet	37	199	1495	9	0	0	1245430	683	0	correct_rejection	NA	0
34	Nonet	38	200	1496	7	0	0	1246147	683	0	correct_rejection	NA	0
34	Nonet	39	201	1497	8	0	0	1246863	684	0	correct_rejection	NA	0
34	Nonet	40	202	1498	9	0	0	1247580	683	0	correct_rejection	NA	0
34	Nonet	41	203	1499	6	0	0	1248297	683	0	correct_rejection	NA	0
34	Nonet	42	204	1500	5	0	0	1249013	684	0	correct_rejection	NA	0
34	Nonet	43	205	1501	4	0	0	1249730	683	0	correct_rejection	NA	0
34	Nonet	44	206	1502	6	0	0	1250447	683	0	correct_rejection	NA	0
34	Nonet	45	207	1503	5	0	0	1251163	684	0	correct_rejection	NA	0
34	Nonet	46	208	1504	4	0	0	1251880	683	0	correct_rejection	NA	0
34	Nonet	47	209	1505	6	0	0	1252597	683	0	correct_rejection	NA	0
34	Nonet	48	210	1506	5	0	0	1253313	684	0	correct_rejection	NA	0
34	Nonet	49	211	1507	0	1	1	1254030	683	1	hit	666	0
34	Nonet	50	212	1508	4	0	0	1254746	684	0	correct_rejection	NA	0
34	Nonet	51	213	1509	6	0	0	1255463	683	0	correct_rejection	NA	0
34	Nonet	52	214	1510	5	0	0	1256180	683	0	correct_rejection	NA	0
34	Nonet	53	215	1511	4	0	0	1256896	684	0	correct_rejection	NA	0
34	Nonet	54	216	1512	6	0	0	1257613	683	0	correct_rejection	NA	0
34	Nonet	55	217	1513	0	1	1	1258330	683	1	hit	525	0
34	Nonet	56	218	1514	5	0	0	1259046	684	0	correct_rejection	NA	0
34	Nonet	57	219	1515	4	0	0	1259763	683	0	correct_rejection	NA	0
34	Nonet	58	220	1516	6	0	0	1260480	683	0	correct_rejection	NA	0
34	Nonet	59	221	1517	5	0	0	1261196	684	0	correct_rejection	NA	0
34	Nonet	60	222	1518	4	0	0	1261913	683	0	correct_rejection	NA	0
34	Nonet	61	223	1519	4	0	0	1262630	683	0	correct_rejection	NA	0
34	Nonet	62	224	1520	0	1	1	1263346	684	0	miss	NA	0
34	Nonet	63	225	1521	5	0	0	1264063	683	1	false_alarm	122	0
34	Nonet	64	226	1522	6	0	0	1264780	683	0	correct_rejection	NA	0
34	Nonet	65	227	1523	4	0	0	1265496	684	0	correct_rejection	NA	0
34	Nonet	66	228	1524	5	0	0	1266213	683	0	correct_rejection	NA	0
34	Nonet	67	229	1525	6	0	0	1266930	683	0	correct_rejection	NA	0
34	Nonet	68	230	1526	4	0	0	1267646	684	0	correct_rejection	NA	0
34	Nonet	69	231	1527	5	0	0	1268363	683	0	correct_rejection	NA	0
34	Nonet	70	232	1528	6	0	0	1269080	683	0	correct_rejection	NA	0
34	Nonet	71	233	1529	6	0	0	1269796	684	0	correct_rejection	NA	0
34	Nonet	72	234	1530	5	0	0	1270513	683	0	correct_rejection	NA	0
34	Nonet	73	235	1531	4	0	0	1271230	683	0	correct_rejection	NA	0
34	Nonet	74	236	1532	6	0	0	1271946	684	0	correct_rejection	NA	0
34	Nonet	75	237	1533	0	1	1	1272663	683	0	miss	NA	0
34	Nonet	76	238	1534	5	0	0	1273380	683	0	correct_rejection	NA	0
34	Nonet	77	239	1535	4	0	0	1274096	684	0	correct_rejection	NA	0
34	Nonet	78	240	1536	0	1	2	1274813	683	1	hit	481	0
34	Nonet	79	241	1537	6	0	0	1275529	684	0	correct_rejection	NA	0
34	Nonet	80	242	1538	5	0	0	1276246	683	0	correct_rejection	NA	0
34	Nonet	81	243	1539	4	0	0	1276963	683	0	correct_rejection	NA	0
34	Nonet	82	244	1540	9	0	0	1277679	684	0	correct_rejection	NA	0
34	Nonet	83	245	1541	0	1	1	1278396	683	0	miss	NA	0
34	Nonet	84	246	1542	8	0	0	1279113	683	0	correct_rejection	NA	0
34	Nonet	85	247	1543	7	0	0	1279829	684	0	correct_rejection	NA	0
34	Nonet	86	248	1544	9	0	0	1280546	683	0	correct_rejection	NA	0
34	Nonet	87	249	1545	8	0	0	1281263	683	0	correct_rejection	NA	0
34	Nonet	88	250	1546	7	0	0	1281979	684	0	correct_rejection	NA	0
34	Nonet	89	251	1547	9	0	0	1282696	683	0	correct_rejection	NA	0
34	Nonet	90	252	1548	8	0	0	1283413	683	0	correct_rejection	NA	0
34	Nonet	91	253	1549	7	0	0	1284129	684	0	correct_rejection	NA	0
34	Nonet	92	254	1550	4	0	0	1284846	683	0	correct_rejection	NA	0
34	Nonet	93	255	1551	5	0	0	1285563	683	0	correct_rejection	NA	0
34	Nonet	94	256	1552	6	0	0	1286279	684	0	correct_rejection	NA	0
34	Nonet	95	257	1553	0	1	2	1286996	683	1	hit	403	0
34	Nonet	96	258	1554	4	0	0	1287713	683	0	correct_rejection	NA	0
34	Nonet	97	259	1555	5	0	0	1288429	684	0	correct_rejection	NA	0
34	Nonet	98	260	1556	6	0	0	1289146	683	0	correct_rejection	NA	0
34	Nonet	99	261	1557	4	0	0	1289863	683	0	correct_rejection	NA	0
34	Nonet	100	262	1558	0	1	1	1290579	684	1	hit	539	0
34	Nonet	101	263	1559	5	0	0	1291296	683	0	correct_rejection	NA	0
34	Nonet	102	264	1560	6	0	0	1292013	683	0	correct_rejection	NA	0
34	Nonet	103	265	1561	9	0	0	1292729	684	0	correct_rejection	NA	0
34	Nonet	104	266	1562	0	1	1	1293446	683	1	hit	520	0
34	Nonet	105	267	1563	8	0	0	1294163	683	0	correct_rejection	NA	0
34	Nonet	106	268	1564	7	0	0	1294879	684	0	correct_rejection	NA	0
34	Nonet	107	269	1565	9	0	0	1295596	683	0	correct_rejection	NA	0
34	Nonet	108	270	1566	0	1	1	1296312	684	0	miss	NA	0
34	Nonet	109	271	1567	8	0	0	1297029	684	1	false_alarm	0	0
34	Nonet	110	272	1568	7	0	0	1297746	683	0	correct_rejection	NA	0
34	Nonet	111	273	1569	9	0	0	1298462	684	0	correct_rejection	NA	0
34	Nonet	112	274	1570	8	0	0	1299179	683	0	correct_rejection	NA	0
34	Nonet	113	275	1571	7	0	0	1299896	683	0	correct_rejection	NA	0
34	Nonet	114	276	1572	0	1	3	1300612	684	0	miss	NA	0
34	Nonet	115	277	1573	7	0	0	1301329	683	1	false_alarm	0	0
34	Nonet	116	278	1574	8	0	0	1302046	683	0	correct_rejection	NA	0
34	Nonet	117	279	1575	9	0	0	1302762	684	0	correct_rejection	NA	0
34	Nonet	118	280	1576	7	0	0	1303479	683	0	correct_rejection	NA	0
34	Nonet	119	281	1577	8	0	0	1304196	683	0	correct_rejection	NA	0
34	Nonet	120	282	1578	9	0	0	1304912	684	0	correct_rejection	NA	0
34	Nonet	121	283	1579	7	0	0	1305629	683	0	correct_rejection	NA	0
34	Nonet	122	284	1580	8	0	0	1306346	683	0	correct_rejection	NA	0
34	Nonet	123	285	1581	9	0	0	1307062	684	0	correct_rejection	NA	0
34	Nonet	124	286	1582	9	0	0	1307779	683	0	correct_rejection	NA	0
34	Nonet	125	287	1583	8	0	0	1308496	683	0	correct_rejection	NA	0
34	Nonet	126	288	1584	7	0	0	1309212	684	0	correct_rejection	NA	0
34	Nonet	127	289	1585	9	0	0	1309929	683	0	correct_rejection	NA	0
34	Nonet	128	290	1586	8	0	0	1310646	683	0	correct_rejection	NA	0
34	Nonet	129	291	1587	7	0	0	1311362	684	0	correct_rejection	NA	0
34	Nonet	130	292	1588	9	0	0	1312079	683	0	correct_rejection	NA	0
34	Nonet	131	293	1589	8	0	0	1312796	683	0	correct_rejection	NA	0
34	Nonet	132	294	1590	7	0	0	1313512	684	0	correct_rejection	NA	0
34	Nonet	133	295	1591	0	1	3	1314229	683	0	miss	NA	0
34	Nonet	134	296	1592	9	0	0	1314946	683	0	correct_rejection	NA	0
34	Nonet	135	297	1593	8	0	0	1315662	684	0	correct_rejection	NA	0
34	Nonet	136	298	1594	7	0	0	1316379	683	0	correct_rejection	NA	0
34	Nonet	137	299	1595	9	0	0	1317095	684	0	correct_rejection	NA	0
34	Nonet	138	300	1596	8	0	0	1317812	684	0	correct_rejection	NA	0
34	Nonet	139	301	1597	7	0	0	1318529	683	0	correct_rejection	NA	0
34	Nonet	140	302	1598	9	0	0	1319245	684	0	correct_rejection	NA	0
34	Nonet	141	303	1599	8	0	0	1319962	683	0	correct_rejection	NA	0
