ID	block	trial_block	trial_cat	trial_total	number	violation	level_violation	onset	duration	Response	Hit_Miss	RT	pre_trial_fixcross_ISI
first_trigger_at: 11110
trigger nr 3 at 13110
35	Nonet	1	487	1	7	0	0	20799	684	0	correct_rejection	NA	7627
35	Nonet	2	488	2	8	0	0	21516	683	0	correct_rejection	NA	0
35	Nonet	3	489	3	9	0	0	22233	683	0	correct_rejection	NA	0
35	Nonet	4	490	4	0	1	2	22949	684	1	hit	532	0
35	Nonet	5	491	5	7	0	0	23666	683	0	correct_rejection	NA	0
35	Nonet	6	492	6	8	0	0	24382	684	0	correct_rejection	NA	0
35	Nonet	7	493	7	9	0	0	25099	683	0	correct_rejection	NA	0
35	Nonet	8	494	8	7	0	0	25816	683	0	correct_rejection	NA	0
35	Nonet	9	495	9	8	0	0	26532	684	0	correct_rejection	NA	0
35	Nonet	10	496	10	9	0	0	27249	683	0	correct_rejection	NA	0
35	Nonet	11	497	11	7	0	0	27966	683	0	correct_rejection	NA	0
35	Nonet	12	498	12	8	0	0	28682	684	0	correct_rejection	NA	0
35	Nonet	13	499	13	0	1	1	29399	683	1	hit	443	0
35	Nonet	14	500	14	9	0	0	30116	683	0	correct_rejection	NA	0
35	Nonet	15	501	15	7	0	0	30832	684	0	correct_rejection	NA	0
35	Nonet	16	502	16	0	1	1	31549	683	1	hit	374	0
35	Nonet	17	503	17	8	0	0	32266	683	0	correct_rejection	NA	0
35	Nonet	18	504	18	9	0	0	32982	684	0	correct_rejection	NA	0
35	Nonet	19	505	19	7	0	0	33699	683	0	correct_rejection	NA	0
35	Nonet	20	506	20	8	0	0	34416	683	0	correct_rejection	NA	0
35	Nonet	21	507	21	9	0	0	35132	684	0	correct_rejection	NA	0
35	Nonet	22	508	22	9	0	0	35849	683	0	correct_rejection	NA	0
35	Nonet	23	509	23	8	0	0	36566	683	0	correct_rejection	NA	0
35	Nonet	24	510	24	7	0	0	37282	684	0	correct_rejection	NA	0
35	Nonet	25	511	25	9	0	0	37999	683	0	correct_rejection	NA	0
35	Nonet	26	512	26	8	0	0	38716	683	0	correct_rejection	NA	0
35	Nonet	27	513	27	7	0	0	39432	684	0	correct_rejection	NA	0
35	Nonet	28	514	28	9	0	0	40149	683	0	correct_rejection	NA	0
35	Nonet	29	515	29	0	1	1	40866	683	1	hit	411	0
35	Nonet	30	516	30	8	0	0	41582	684	0	correct_rejection	NA	0
35	Nonet	31	517	31	7	0	0	42299	683	0	correct_rejection	NA	0
35	Nonet	32	518	32	9	0	0	43016	683	0	correct_rejection	NA	0
35	Nonet	33	519	33	8	0	0	43732	684	0	correct_rejection	NA	0
35	Nonet	34	520	34	7	0	0	44449	683	0	correct_rejection	NA	0
35	Nonet	35	521	35	9	0	0	45166	683	0	correct_rejection	NA	0
35	Nonet	36	522	36	0	1	1	45882	684	1	hit	389	0
35	Nonet	37	523	37	8	0	0	46599	683	0	correct_rejection	NA	0
35	Nonet	38	524	38	7	0	0	47315	684	0	correct_rejection	NA	0
35	Nonet	39	525	39	9	0	0	48032	684	0	correct_rejection	NA	0
35	Nonet	40	526	40	8	0	0	48749	683	0	correct_rejection	NA	0
35	Nonet	41	527	41	7	0	0	49465	684	0	correct_rejection	NA	0
35	Nonet	42	528	42	4	0	0	50182	683	0	correct_rejection	NA	0
35	Nonet	43	529	43	5	0	0	50899	683	0	correct_rejection	NA	0
35	Nonet	44	530	44	6	0	0	51615	684	0	correct_rejection	NA	0
35	Nonet	45	531	45	4	0	0	52332	683	0	correct_rejection	NA	0
35	Nonet	46	532	46	5	0	0	53049	683	0	correct_rejection	NA	0
35	Nonet	47	533	47	0	1	1	53765	684	1	hit	422	0
35	Nonet	48	534	48	6	0	0	54482	683	0	correct_rejection	NA	0
35	Nonet	49	535	49	4	0	0	55199	683	0	correct_rejection	NA	0
35	Nonet	50	536	50	5	0	0	55915	684	0	correct_rejection	NA	0
35	Nonet	51	537	51	6	0	0	56632	683	0	correct_rejection	NA	0
35	Nonet	52	538	52	6	0	0	57349	683	0	correct_rejection	NA	0
35	Nonet	53	539	53	5	0	0	58065	684	0	correct_rejection	NA	0
35	Nonet	54	540	54	4	0	0	58782	683	0	correct_rejection	NA	0
35	Nonet	55	541	55	6	0	0	59499	683	0	correct_rejection	NA	0
35	Nonet	56	542	56	5	0	0	60215	684	0	correct_rejection	NA	0
35	Nonet	57	543	57	4	0	0	60932	683	0	correct_rejection	NA	0
35	Nonet	58	544	58	6	0	0	61649	683	0	correct_rejection	NA	0
35	Nonet	59	545	59	5	0	0	62365	684	0	correct_rejection	NA	0
35	Nonet	60	546	60	4	0	0	63082	683	0	correct_rejection	NA	0
35	Nonet	61	547	61	4	0	0	63799	683	0	correct_rejection	NA	0
35	Nonet	62	548	62	5	0	0	64515	684	0	correct_rejection	NA	0
35	Nonet	63	549	63	6	0	0	65232	683	0	correct_rejection	NA	0
35	Nonet	64	550	64	4	0	0	65949	683	0	correct_rejection	NA	0
35	Nonet	65	551	65	5	0	0	66665	684	0	correct_rejection	NA	0
35	Nonet	66	552	66	6	0	0	67382	683	0	correct_rejection	NA	0
35	Nonet	67	553	67	0	1	2	68099	683	1	hit	458	0
35	Nonet	68	554	68	4	0	0	68815	684	0	correct_rejection	NA	0
35	Nonet	69	555	69	5	0	0	69532	683	0	correct_rejection	NA	0
35	Nonet	70	556	70	6	0	0	70249	683	0	correct_rejection	NA	0
35	Nonet	71	557	71	7	0	0	70965	684	0	correct_rejection	NA	0
35	Nonet	72	558	72	8	0	0	71682	683	0	correct_rejection	NA	0
35	Nonet	73	559	73	9	0	0	72398	684	0	correct_rejection	NA	0
35	Nonet	74	560	74	7	0	0	73115	684	0	correct_rejection	NA	0
35	Nonet	75	561	75	8	0	0	73832	683	0	correct_rejection	NA	0
35	Nonet	76	562	76	9	0	0	74548	684	0	correct_rejection	NA	0
35	Nonet	77	563	77	7	0	0	75265	683	0	correct_rejection	NA	0
35	Nonet	78	564	78	8	0	0	75982	683	0	correct_rejection	NA	0
35	Nonet	79	565	79	9	0	0	76698	684	0	correct_rejection	NA	0
35	Nonet	80	566	80	6	0	0	77415	683	0	correct_rejection	NA	0
35	Nonet	81	567	81	5	0	0	78132	683	0	correct_rejection	NA	0
35	Nonet	82	568	82	0	1	1	78848	684	1	hit	417	0
35	Nonet	83	569	83	4	0	0	79565	683	0	correct_rejection	NA	0
35	Nonet	84	570	84	6	0	0	80282	683	0	correct_rejection	NA	0
35	Nonet	85	571	85	5	0	0	80998	684	0	correct_rejection	NA	0
35	Nonet	86	572	86	4	0	0	81715	683	0	correct_rejection	NA	0
35	Nonet	87	573	87	0	1	2	82432	683	1	hit	420	0
35	Nonet	88	574	88	6	0	0	83148	684	0	correct_rejection	NA	0
35	Nonet	89	575	89	5	0	0	83865	683	0	correct_rejection	NA	0
35	Nonet	90	576	90	4	0	0	84582	683	0	correct_rejection	NA	0
35	Nonet	91	577	91	9	0	0	85298	684	0	correct_rejection	NA	0
35	Nonet	92	578	92	8	0	0	86015	683	0	correct_rejection	NA	0
35	Nonet	93	579	93	7	0	0	86732	683	0	correct_rejection	NA	0
35	Nonet	94	580	94	9	0	0	87448	684	0	correct_rejection	NA	0
35	Nonet	95	581	95	8	0	0	88165	683	0	correct_rejection	NA	0
35	Nonet	96	582	96	7	0	0	88882	683	0	correct_rejection	NA	0
35	Nonet	97	583	97	0	1	2	89598	684	1	hit	399	0
35	Nonet	98	584	98	9	0	0	90315	683	0	correct_rejection	NA	0
35	Nonet	99	585	99	8	0	0	91032	683	0	correct_rejection	NA	0
35	Nonet	100	586	100	7	0	0	91748	684	0	correct_rejection	NA	0
35	Nonet	101	587	101	6	0	0	92465	683	0	correct_rejection	NA	0
35	Nonet	102	588	102	5	0	0	93182	683	0	correct_rejection	NA	0
35	Nonet	103	589	103	0	1	1	93898	684	1	hit	418	0
35	Nonet	104	590	104	4	0	0	94615	683	0	correct_rejection	NA	0
35	Nonet	105	591	105	6	0	0	95332	683	0	correct_rejection	NA	0
35	Nonet	106	592	106	5	0	0	96048	684	0	correct_rejection	NA	0
35	Nonet	107	593	107	4	0	0	96765	683	0	correct_rejection	NA	0
35	Nonet	108	594	108	6	0	0	97481	684	0	correct_rejection	NA	0
35	Nonet	109	595	109	5	0	0	98198	683	0	correct_rejection	NA	0
35	Nonet	110	596	110	4	0	0	98915	683	0	correct_rejection	NA	0
35	Nonet	111	597	111	6	0	0	99631	684	0	correct_rejection	NA	0
35	Nonet	112	598	112	5	0	0	100348	683	0	correct_rejection	NA	0
35	Nonet	113	599	113	4	0	0	101065	683	0	correct_rejection	NA	0
35	Nonet	114	600	114	6	0	0	101781	684	0	correct_rejection	NA	0
35	Nonet	115	601	115	5	0	0	102498	683	0	correct_rejection	NA	0
35	Nonet	116	602	116	4	0	0	103215	683	0	correct_rejection	NA	0
35	Nonet	117	603	117	6	0	0	103931	684	0	correct_rejection	NA	0
35	Nonet	118	604	118	0	1	1	104648	683	1	hit	426	0
35	Nonet	119	605	119	5	0	0	105365	683	0	correct_rejection	NA	0
35	Nonet	120	606	120	4	0	0	106081	684	0	correct_rejection	NA	0
35	Nonet	121	607	121	7	0	0	106798	683	0	correct_rejection	NA	0
35	Nonet	122	608	122	8	0	0	107515	683	0	correct_rejection	NA	0
35	Nonet	123	609	123	0	1	1	108231	684	1	hit	471	0
35	Nonet	124	610	124	9	0	0	108948	683	0	correct_rejection	NA	0
35	Nonet	125	611	125	7	0	0	109665	683	0	correct_rejection	NA	0
35	Nonet	126	612	126	0	1	1	110381	684	1	hit	442	0
35	Nonet	127	613	127	8	0	0	111098	683	0	correct_rejection	NA	0
35	Nonet	128	614	128	9	0	0	111815	683	0	correct_rejection	NA	0
35	Nonet	129	615	129	0	1	2	112531	684	1	hit	394	0
35	Nonet	130	616	130	7	0	0	113248	683	0	correct_rejection	NA	0
35	Nonet	131	617	131	8	0	0	113965	683	0	correct_rejection	NA	0
35	Nonet	132	618	132	9	0	0	114681	684	0	correct_rejection	NA	0
35	Nonet	133	619	133	4	0	0	115398	683	0	correct_rejection	NA	0
35	Nonet	134	620	134	5	0	0	116115	683	0	correct_rejection	NA	0
35	Nonet	135	621	135	6	0	0	116831	684	0	correct_rejection	NA	0
35	Nonet	136	622	136	4	0	0	117548	683	0	correct_rejection	NA	0
35	Nonet	137	623	137	5	0	0	118265	683	0	correct_rejection	NA	0
35	Nonet	138	624	138	6	0	0	118981	684	0	correct_rejection	NA	0
35	Nonet	139	625	139	4	0	0	119698	683	0	correct_rejection	NA	0
35	Nonet	140	626	140	5	0	0	120414	684	0	correct_rejection	NA	0
35	Nonet	141	627	141	6	0	0	121131	684	0	correct_rejection	NA	0
35	Nonet	142	628	142	4	0	0	121848	683	0	correct_rejection	NA	0
35	Nonet	143	629	143	5	0	0	122564	684	0	correct_rejection	NA	0
35	Nonet	144	630	144	6	0	0	123281	683	0	correct_rejection	NA	0
35	Nonet	145	631	145	4	0	0	123998	683	0	correct_rejection	NA	0
35	Nonet	146	632	146	0	1	1	124714	684	1	hit	366	0
35	Nonet	147	633	147	5	0	0	125431	683	0	correct_rejection	NA	0
35	Nonet	148	634	148	6	0	0	126148	683	0	correct_rejection	NA	0
35	Nonet	149	635	149	0	1	2	126864	684	1	hit	442	0
35	Nonet	150	636	150	4	0	0	127581	683	0	correct_rejection	NA	0
35	Nonet	151	637	151	5	0	0	128298	683	0	correct_rejection	NA	0
35	Nonet	152	638	152	6	0	0	129014	684	0	correct_rejection	NA	0
35	Nonet	153	639	153	9	0	0	129731	683	0	correct_rejection	NA	0
35	Nonet	154	640	154	8	0	0	130448	683	0	correct_rejection	NA	0
35	Nonet	155	641	155	7	0	0	131164	684	0	correct_rejection	NA	0
35	Nonet	156	642	156	9	0	0	131881	683	0	correct_rejection	NA	0
35	Nonet	157	643	157	8	0	0	132598	683	0	correct_rejection	NA	0
35	Nonet	158	644	158	7	0	0	133314	684	0	correct_rejection	NA	0
35	Nonet	159	645	159	9	0	0	134031	683	0	correct_rejection	NA	0
35	Nonet	160	646	160	8	0	0	134748	683	0	correct_rejection	NA	0
35	Nonet	161	647	161	0	1	1	135464	684	1	hit	425	0
35	Nonet	162	648	162	7	0	0	136181	683	0	correct_rejection	NA	0
35	Single	1	325	163	9	0	0	145797	684	0	correct_rejection	NA	7617
35	Single	2	326	164	5	0	0	146514	683	0	correct_rejection	NA	0
35	Single	3	327	165	7	0	0	147231	683	0	correct_rejection	NA	0
35	Single	4	328	166	6	0	0	147947	684	0	correct_rejection	NA	0
35	Single	5	329	167	0	1	1	148664	683	1	hit	454	0
35	Single	6	330	168	9	0	0	149381	683	0	correct_rejection	NA	0
35	Single	7	331	169	4	0	0	150097	684	0	correct_rejection	NA	0
35	Single	8	332	170	4	0	0	150814	683	0	correct_rejection	NA	0
35	Single	9	333	171	7	0	0	151531	683	0	correct_rejection	NA	0
35	Single	10	334	172	8	0	0	152247	684	0	correct_rejection	NA	0
35	Single	11	335	173	5	0	0	152964	683	0	correct_rejection	NA	0
35	Single	12	336	174	9	0	0	153681	683	0	correct_rejection	NA	0
35	Single	13	337	175	0	1	1	154397	684	1	hit	401	0
35	Single	14	338	176	8	0	0	155114	683	0	correct_rejection	NA	0
35	Single	15	339	177	6	0	0	155831	683	0	correct_rejection	NA	0
35	Single	16	340	178	7	0	0	156547	684	0	correct_rejection	NA	0
35	Single	17	341	179	4	0	0	157264	683	0	correct_rejection	NA	0
35	Single	18	342	180	0	1	1	157981	683	1	hit	406	0
35	Single	19	343	181	5	0	0	158697	684	0	correct_rejection	NA	0
35	Single	20	344	182	8	0	0	159414	683	0	correct_rejection	NA	0
35	Single	21	345	183	8	0	0	160131	683	0	correct_rejection	NA	0
35	Single	22	346	184	9	0	0	160847	684	0	correct_rejection	NA	0
35	Single	23	347	185	7	0	0	161564	683	0	correct_rejection	NA	0
35	Single	24	348	186	5	0	0	162281	683	0	correct_rejection	NA	0
35	Single	25	349	187	5	0	0	162997	684	0	correct_rejection	NA	0
35	Single	26	350	188	4	0	0	163714	683	0	correct_rejection	NA	0
35	Single	27	351	189	9	0	0	164431	683	0	correct_rejection	NA	0
35	Single	28	352	190	9	0	0	165147	684	0	correct_rejection	NA	0
35	Single	29	353	191	6	0	0	165864	683	0	correct_rejection	NA	0
35	Single	30	354	192	8	0	0	166581	683	0	correct_rejection	NA	0
35	Single	31	355	193	4	0	0	167297	684	0	correct_rejection	NA	0
35	Single	32	356	194	6	0	0	168014	683	0	correct_rejection	NA	0
35	Single	33	357	195	0	1	1	168730	684	1	hit	428	0
35	Single	34	358	196	6	0	0	169447	684	0	correct_rejection	NA	0
35	Single	35	359	197	5	0	0	170164	683	0	correct_rejection	NA	0
35	Single	36	360	198	6	0	0	170880	684	0	correct_rejection	NA	0
35	Single	37	361	199	4	0	0	171597	683	0	correct_rejection	NA	0
35	Single	38	362	200	8	0	0	172314	683	0	correct_rejection	NA	0
35	Single	39	363	201	7	0	0	173030	684	0	correct_rejection	NA	0
35	Single	40	364	202	7	0	0	173747	683	0	correct_rejection	NA	0
35	Single	41	365	203	5	0	0	174464	683	0	correct_rejection	NA	0
35	Single	42	366	204	8	0	0	175180	684	0	correct_rejection	NA	0
35	Single	43	367	205	4	0	0	175897	683	0	correct_rejection	NA	0
35	Single	44	368	206	5	0	0	176614	683	0	correct_rejection	NA	0
35	Single	45	369	207	6	0	0	177330	684	0	correct_rejection	NA	0
35	Single	46	370	208	8	0	0	178047	683	0	correct_rejection	NA	0
35	Single	47	371	209	6	0	0	178764	683	0	correct_rejection	NA	0
35	Single	48	372	210	6	0	0	179480	684	0	correct_rejection	NA	0
35	Single	49	373	211	0	1	1	180197	683	1	hit	418	0
35	Single	50	374	212	4	0	0	180914	683	0	correct_rejection	NA	0
35	Single	51	375	213	7	0	0	181630	684	0	correct_rejection	NA	0
35	Single	52	376	214	9	0	0	182347	683	0	correct_rejection	NA	0
35	Single	53	377	215	0	1	1	183064	683	1	hit	422	0
35	Single	54	378	216	7	0	0	183780	684	0	correct_rejection	NA	0
35	Single	55	379	217	7	0	0	184497	683	0	correct_rejection	NA	0
35	Single	56	380	218	8	0	0	185214	683	0	correct_rejection	NA	0
35	Single	57	381	219	0	1	1	185930	684	1	hit	393	0
35	Single	58	382	220	7	0	0	186647	683	0	correct_rejection	NA	0
35	Single	59	383	221	4	0	0	187364	683	0	correct_rejection	NA	0
35	Single	60	384	222	0	1	1	188080	684	1	hit	376	0
35	Single	61	385	223	9	0	0	188797	683	0	correct_rejection	NA	0
35	Single	62	386	224	8	0	0	189514	683	0	correct_rejection	NA	0
35	Single	63	387	225	9	0	0	190230	684	0	correct_rejection	NA	0
35	Single	64	388	226	5	0	0	190947	683	0	correct_rejection	NA	0
35	Single	65	389	227	5	0	0	191664	683	0	correct_rejection	NA	0
35	Single	66	390	228	7	0	0	192380	684	0	correct_rejection	NA	0
35	Single	67	391	229	5	0	0	193097	683	0	correct_rejection	NA	0
35	Single	68	392	230	9	0	0	193813	684	0	correct_rejection	NA	0
35	Single	69	393	231	6	0	0	194530	683	0	correct_rejection	NA	0
35	Single	70	394	232	9	0	0	195247	683	0	correct_rejection	NA	0
35	Single	71	395	233	9	0	0	195963	684	0	correct_rejection	NA	0
35	Single	72	396	234	4	0	0	196680	683	0	correct_rejection	NA	0
35	Single	73	397	235	6	0	0	197397	683	0	correct_rejection	NA	0
35	Single	74	398	236	7	0	0	198113	684	0	correct_rejection	NA	0
35	Single	75	399	237	6	0	0	198830	683	0	correct_rejection	NA	0
35	Single	76	400	238	5	0	0	199547	683	0	correct_rejection	NA	0
35	Single	77	401	239	0	1	1	200263	684	1	hit	443	0
35	Single	78	402	240	4	0	0	200980	683	0	correct_rejection	NA	0
35	Single	79	403	241	4	0	0	201697	683	0	correct_rejection	NA	0
35	Single	80	404	242	8	0	0	202413	684	0	correct_rejection	NA	0
35	Single	81	405	243	8	0	0	203130	683	0	correct_rejection	NA	0
35	Single	82	406	244	0	1	1	203847	683	1	hit	536	0
35	Single	83	407	245	8	0	0	204563	684	0	correct_rejection	NA	0
35	Single	84	408	246	4	0	0	205280	683	0	correct_rejection	NA	0
35	Single	85	409	247	9	0	0	205997	683	0	correct_rejection	NA	0
35	Single	86	410	248	7	0	0	206713	684	0	correct_rejection	NA	0
35	Single	87	411	249	4	0	0	207430	683	0	correct_rejection	NA	0
35	Single	88	412	250	8	0	0	208147	683	0	correct_rejection	NA	0
35	Single	89	413	251	9	0	0	208863	684	0	correct_rejection	NA	0
35	Single	90	414	252	4	0	0	209580	683	0	correct_rejection	NA	0
35	Single	91	415	253	7	0	0	210297	683	0	correct_rejection	NA	0
35	Single	92	416	254	6	0	0	211013	684	0	correct_rejection	NA	0
35	Single	93	417	255	6	0	0	211730	683	0	correct_rejection	NA	0
35	Single	94	418	256	0	1	1	212447	683	1	hit	383	0
35	Single	95	419	257	8	0	0	213163	684	0	correct_rejection	NA	0
35	Single	96	420	258	8	0	0	213880	683	0	correct_rejection	NA	0
35	Single	97	421	259	5	0	0	214597	683	0	correct_rejection	NA	0
35	Single	98	422	260	5	0	0	215313	684	0	correct_rejection	NA	0
35	Single	99	423	261	6	0	0	216030	683	0	correct_rejection	NA	0
35	Single	100	424	262	0	1	1	216746	684	1	hit	425	0
35	Single	101	425	263	7	0	0	217463	684	0	correct_rejection	NA	0
35	Single	102	426	264	9	0	0	218180	683	0	correct_rejection	NA	0
35	Single	103	427	265	6	0	0	218896	684	0	correct_rejection	NA	0
35	Single	104	428	266	4	0	0	219613	683	0	correct_rejection	NA	0
35	Single	105	429	267	4	0	0	220330	683	0	correct_rejection	NA	0
35	Single	106	430	268	6	0	0	221046	684	0	correct_rejection	NA	0
35	Single	107	431	269	9	0	0	221763	683	0	correct_rejection	NA	0
35	Single	108	432	270	5	0	0	222480	683	0	correct_rejection	NA	0
35	Single	109	433	271	4	0	0	223196	684	0	correct_rejection	NA	0
35	Single	110	434	272	5	0	0	223913	683	0	correct_rejection	NA	0
35	Single	111	435	273	9	0	0	224630	683	0	correct_rejection	NA	0
35	Single	112	436	274	9	0	0	225346	684	0	correct_rejection	NA	0
35	Single	113	437	275	8	0	0	226063	683	0	correct_rejection	NA	0
35	Single	114	438	276	7	0	0	226780	683	0	correct_rejection	NA	0
35	Single	115	439	277	8	0	0	227496	684	0	correct_rejection	NA	0
35	Single	116	440	278	6	0	0	228213	683	0	correct_rejection	NA	0
35	Single	117	441	279	5	0	0	228930	683	0	correct_rejection	NA	0
35	Single	118	442	280	7	0	0	229646	684	0	correct_rejection	NA	0
35	Single	119	443	281	7	0	0	230363	683	0	correct_rejection	NA	0
35	Single	120	444	282	5	0	0	231080	683	0	correct_rejection	NA	0
35	Single	121	445	283	8	0	0	231796	684	0	correct_rejection	NA	0
35	Single	122	446	284	7	0	0	232513	683	0	correct_rejection	NA	0
35	Single	123	447	285	9	0	0	233230	683	0	correct_rejection	NA	0
35	Single	124	448	286	0	1	1	233946	684	1	hit	378	0
35	Single	125	449	287	9	0	0	234663	683	0	correct_rejection	NA	0
35	Single	126	450	288	6	0	0	235380	683	0	correct_rejection	NA	0
35	Single	127	451	289	0	1	1	236096	684	1	hit	378	0
35	Single	128	452	290	5	0	0	236813	683	0	correct_rejection	NA	0
35	Single	129	453	291	5	0	0	237530	683	0	correct_rejection	NA	0
35	Single	130	454	292	9	0	0	238246	684	0	correct_rejection	NA	0
35	Single	131	455	293	4	0	0	238963	683	0	correct_rejection	NA	0
35	Single	132	456	294	9	0	0	239679	684	0	correct_rejection	NA	0
35	Single	133	457	295	5	0	0	240396	684	0	correct_rejection	NA	0
35	Single	134	458	296	7	0	0	241113	683	0	correct_rejection	NA	0
35	Single	135	459	297	4	0	0	241829	684	0	correct_rejection	NA	0
35	Single	136	460	298	4	0	0	242546	683	0	correct_rejection	NA	0
35	Single	137	461	299	5	0	0	243263	683	0	correct_rejection	NA	0
35	Single	138	462	300	8	0	0	243979	684	0	correct_rejection	NA	0
35	Single	139	463	301	8	0	0	244696	683	0	correct_rejection	NA	0
35	Single	140	464	302	0	1	1	245413	683	1	hit	414	0
35	Single	141	465	303	9	0	0	246129	684	0	correct_rejection	NA	0
35	Single	142	466	304	7	0	0	246846	683	0	correct_rejection	NA	0
35	Single	143	467	305	8	0	0	247563	683	0	correct_rejection	NA	0
35	Single	144	468	306	4	0	0	248279	684	0	correct_rejection	NA	0
35	Single	145	469	307	8	0	0	248996	683	0	correct_rejection	NA	0
35	Single	146	470	308	6	0	0	249713	683	0	correct_rejection	NA	0
35	Single	147	471	309	9	0	0	250429	684	0	correct_rejection	NA	0
35	Single	148	472	310	8	0	0	251146	683	0	correct_rejection	NA	0
35	Single	149	473	311	0	1	1	251863	683	1	hit	406	0
35	Single	150	474	312	5	0	0	252579	684	0	correct_rejection	NA	0
35	Single	151	475	313	4	0	0	253296	683	0	correct_rejection	NA	0
35	Single	152	476	314	0	1	1	254013	683	1	hit	379	0
35	Single	153	477	315	7	0	0	254729	684	0	correct_rejection	NA	0
35	Single	154	478	316	5	0	0	255446	683	0	correct_rejection	NA	0
35	Single	155	479	317	0	1	1	256163	683	1	hit	365	0
35	Single	156	480	318	6	0	0	256879	684	0	correct_rejection	NA	0
35	Single	157	481	319	6	0	0	257596	683	0	correct_rejection	NA	0
35	Single	158	482	320	7	0	0	258313	683	0	correct_rejection	NA	0
35	Single	159	483	321	7	0	0	259029	684	0	correct_rejection	NA	0
35	Single	160	484	322	6	0	0	259746	683	0	correct_rejection	NA	0
35	Single	161	485	323	4	0	0	260463	683	0	correct_rejection	NA	0
35	Single	162	486	324	6	0	0	261179	684	0	correct_rejection	NA	0
35	Triplet	1	325	325	6	0	0	269562	684	0	correct_rejection	NA	6387
35	Triplet	2	326	326	5	0	0	270279	683	0	correct_rejection	NA	0
35	Triplet	3	327	327	4	0	0	270996	683	0	correct_rejection	NA	0
35	Triplet	4	328	328	6	0	0	271712	684	0	correct_rejection	NA	0
35	Triplet	5	329	329	5	0	0	272429	683	0	correct_rejection	NA	0
35	Triplet	6	330	330	4	0	0	273146	683	0	correct_rejection	NA	0
35	Triplet	7	331	331	9	0	0	273862	684	0	correct_rejection	NA	0
35	Triplet	8	332	332	8	0	0	274579	683	0	correct_rejection	NA	0
35	Triplet	9	333	333	7	0	0	275296	683	0	correct_rejection	NA	0
35	Triplet	10	334	334	9	0	0	276012	684	0	correct_rejection	NA	0
35	Triplet	11	335	335	8	0	0	276729	683	0	correct_rejection	NA	0
35	Triplet	12	336	336	7	0	0	277446	683	0	correct_rejection	NA	0
35	Triplet	13	337	337	7	0	0	278162	684	0	correct_rejection	NA	0
35	Triplet	14	338	338	0	1	1	278879	683	1	hit	376	0
35	Triplet	15	339	339	8	0	0	279596	683	0	correct_rejection	NA	0
35	Triplet	16	340	340	9	0	0	280312	684	0	correct_rejection	NA	0
35	Triplet	17	341	341	9	0	0	281029	683	0	correct_rejection	NA	0
35	Triplet	18	342	342	8	0	0	281746	683	0	correct_rejection	NA	0
35	Triplet	19	343	343	7	0	0	282462	684	0	correct_rejection	NA	0
35	Triplet	20	344	344	6	0	0	283179	683	0	correct_rejection	NA	0
35	Triplet	21	345	345	5	0	0	283896	683	0	correct_rejection	NA	0
35	Triplet	22	346	346	4	0	0	284612	684	0	correct_rejection	NA	0
35	Triplet	23	347	347	7	0	0	285329	683	0	correct_rejection	NA	0
35	Triplet	24	348	348	8	0	0	286046	683	0	correct_rejection	NA	0
35	Triplet	25	349	349	9	0	0	286762	684	0	correct_rejection	NA	0
35	Triplet	26	350	350	4	0	0	287479	683	0	correct_rejection	NA	0
35	Triplet	27	351	351	5	0	0	288195	684	0	correct_rejection	NA	0
35	Triplet	28	352	352	6	0	0	288912	684	0	correct_rejection	NA	0
35	Triplet	29	353	353	6	0	0	289629	683	0	correct_rejection	NA	0
35	Triplet	30	354	354	0	1	1	290345	684	1	hit	612	0
35	Triplet	31	355	355	5	0	0	291062	683	0	correct_rejection	NA	0
35	Triplet	32	356	356	4	0	0	291779	683	0	correct_rejection	NA	0
35	Triplet	33	357	357	4	0	0	292495	684	0	correct_rejection	NA	0
35	Triplet	34	358	358	5	0	0	293212	683	0	correct_rejection	NA	0
35	Triplet	35	359	359	6	0	0	293929	683	0	correct_rejection	NA	0
35	Triplet	36	360	360	9	0	0	294645	684	0	correct_rejection	NA	0
35	Triplet	37	361	361	8	0	0	295362	683	0	correct_rejection	NA	0
35	Triplet	38	362	362	7	0	0	296079	683	0	correct_rejection	NA	0
35	Triplet	39	363	363	4	0	0	296795	684	0	correct_rejection	NA	0
35	Triplet	40	364	364	5	0	0	297512	683	0	correct_rejection	NA	0
35	Triplet	41	365	365	6	0	0	298229	683	0	correct_rejection	NA	0
35	Triplet	42	366	366	4	0	0	298945	684	0	correct_rejection	NA	0
35	Triplet	43	367	367	0	1	1	299662	683	1	hit	440	0
35	Triplet	44	368	368	5	0	0	300379	683	0	correct_rejection	NA	0
35	Triplet	45	369	369	6	0	0	301095	684	0	correct_rejection	NA	0
35	Triplet	46	370	370	7	0	0	301812	683	0	correct_rejection	NA	0
35	Triplet	47	371	371	8	0	0	302529	683	0	correct_rejection	NA	0
35	Triplet	48	372	372	9	0	0	303245	684	0	correct_rejection	NA	0
35	Triplet	49	373	373	7	0	0	303962	683	0	correct_rejection	NA	0
35	Triplet	50	374	374	8	0	0	304679	683	0	correct_rejection	NA	0
35	Triplet	51	375	375	9	0	0	305395	684	0	correct_rejection	NA	0
35	Triplet	52	376	376	0	1	2	306112	683	1	hit	393	0
35	Triplet	53	377	377	6	0	0	306829	683	0	correct_rejection	NA	0
35	Triplet	54	378	378	5	0	0	307545	684	0	correct_rejection	NA	0
35	Triplet	55	379	379	4	0	0	308262	683	0	correct_rejection	NA	0
35	Triplet	56	380	380	0	1	2	308979	683	1	hit	447	0
35	Triplet	57	381	381	7	0	0	309695	684	0	correct_rejection	NA	0
35	Triplet	58	382	382	8	0	0	310412	683	0	correct_rejection	NA	0
35	Triplet	59	383	383	9	0	0	311129	683	0	correct_rejection	NA	0
35	Triplet	60	384	384	9	0	0	311845	684	0	correct_rejection	NA	0
35	Triplet	61	385	385	8	0	0	312562	683	0	correct_rejection	NA	0
35	Triplet	62	386	386	7	0	0	313278	684	0	correct_rejection	NA	0
35	Triplet	63	387	387	4	0	0	313995	683	0	correct_rejection	NA	0
35	Triplet	64	388	388	5	0	0	314712	683	0	correct_rejection	NA	0
35	Triplet	65	389	389	6	0	0	315428	684	0	correct_rejection	NA	0
35	Triplet	66	390	390	7	0	0	316145	683	0	correct_rejection	NA	0
35	Triplet	67	391	391	8	0	0	316862	683	0	correct_rejection	NA	0
35	Triplet	68	392	392	0	1	1	317578	684	1	hit	444	0
35	Triplet	69	393	393	9	0	0	318295	683	0	correct_rejection	NA	0
35	Triplet	70	394	394	4	0	0	319012	683	0	correct_rejection	NA	0
35	Triplet	71	395	395	5	0	0	319728	684	0	correct_rejection	NA	0
35	Triplet	72	396	396	0	1	1	320445	683	1	hit	429	0
35	Triplet	73	397	397	6	0	0	321162	683	0	correct_rejection	NA	0
35	Triplet	74	398	398	4	0	0	321878	684	0	correct_rejection	NA	0
35	Triplet	75	399	399	0	1	1	322595	683	1	hit	374	0
35	Triplet	76	400	400	5	0	0	323312	683	0	correct_rejection	NA	0
35	Triplet	77	401	401	6	0	0	324028	684	0	correct_rejection	NA	0
35	Triplet	78	402	402	9	0	0	324745	683	0	correct_rejection	NA	0
35	Triplet	79	403	403	0	1	1	325462	683	1	hit	379	0
35	Triplet	80	404	404	8	0	0	326178	684	0	correct_rejection	NA	0
35	Triplet	81	405	405	7	0	0	326895	683	0	correct_rejection	NA	0
35	Triplet	82	406	406	9	0	0	327612	683	0	correct_rejection	NA	0
35	Triplet	83	407	407	8	0	0	328328	684	0	correct_rejection	NA	0
35	Triplet	84	408	408	7	0	0	329045	683	0	correct_rejection	NA	0
35	Triplet	85	409	409	6	0	0	329762	683	0	correct_rejection	NA	0
35	Triplet	86	410	410	5	0	0	330478	684	0	correct_rejection	NA	0
35	Triplet	87	411	411	4	0	0	331195	683	0	correct_rejection	NA	0
35	Triplet	88	412	412	4	0	0	331912	683	0	correct_rejection	NA	0
35	Triplet	89	413	413	5	0	0	332628	684	0	correct_rejection	NA	0
35	Triplet	90	414	414	6	0	0	333345	683	0	correct_rejection	NA	0
35	Triplet	91	415	415	6	0	0	334062	683	0	correct_rejection	NA	0
35	Triplet	92	416	416	5	0	0	334778	684	0	correct_rejection	NA	0
35	Triplet	93	417	417	4	0	0	335495	683	0	correct_rejection	NA	0
35	Triplet	94	418	418	9	0	0	336212	683	0	correct_rejection	NA	0
35	Triplet	95	419	419	8	0	0	336928	684	0	correct_rejection	NA	0
35	Triplet	96	420	420	7	0	0	337645	683	0	correct_rejection	NA	0
35	Triplet	97	421	421	0	1	2	338361	684	1	hit	402	0
35	Triplet	98	422	422	7	0	0	339078	683	0	correct_rejection	NA	0
35	Triplet	99	423	423	8	0	0	339795	683	0	correct_rejection	NA	0
35	Triplet	100	424	424	9	0	0	340511	684	0	correct_rejection	NA	0
35	Triplet	101	425	425	7	0	0	341228	683	0	correct_rejection	NA	0
35	Triplet	102	426	426	8	0	0	341945	683	0	correct_rejection	NA	0
35	Triplet	103	427	427	9	0	0	342661	684	0	correct_rejection	NA	0
35	Triplet	104	428	428	6	0	0	343378	683	0	correct_rejection	NA	0
35	Triplet	105	429	429	5	0	0	344095	683	0	correct_rejection	NA	0
35	Triplet	106	430	430	4	0	0	344811	684	0	correct_rejection	NA	0
35	Triplet	107	431	431	0	1	2	345528	683	1	hit	407	0
35	Triplet	108	432	432	6	0	0	346245	683	0	correct_rejection	NA	0
35	Triplet	109	433	433	5	0	0	346961	684	0	correct_rejection	NA	0
35	Triplet	110	434	434	0	1	1	347678	683	1	hit	459	0
35	Triplet	111	435	435	4	0	0	348395	683	0	correct_rejection	NA	0
35	Triplet	112	436	436	9	0	0	349111	684	0	correct_rejection	NA	0
35	Triplet	113	437	437	8	0	0	349828	683	0	correct_rejection	NA	0
35	Triplet	114	438	438	7	0	0	350545	683	0	correct_rejection	NA	0
35	Triplet	115	439	439	4	0	0	351261	684	0	correct_rejection	NA	0
35	Triplet	116	440	440	5	0	0	351978	683	0	correct_rejection	NA	0
35	Triplet	117	441	441	6	0	0	352695	683	0	correct_rejection	NA	0
35	Triplet	118	442	442	9	0	0	353411	684	0	correct_rejection	NA	0
35	Triplet	119	443	443	8	0	0	354128	683	0	correct_rejection	NA	0
35	Triplet	120	444	444	7	0	0	354845	683	0	correct_rejection	NA	0
35	Triplet	121	445	445	7	0	0	355561	684	0	correct_rejection	NA	0
35	Triplet	122	446	446	8	0	0	356278	683	0	correct_rejection	NA	0
35	Triplet	123	447	447	9	0	0	356995	683	0	correct_rejection	NA	0
35	Triplet	124	448	448	6	0	0	357711	684	0	correct_rejection	NA	0
35	Triplet	125	449	449	5	0	0	358428	683	0	correct_rejection	NA	0
35	Triplet	126	450	450	4	0	0	359145	683	0	correct_rejection	NA	0
35	Triplet	127	451	451	4	0	0	359861	684	0	correct_rejection	NA	0
35	Triplet	128	452	452	0	1	1	360578	683	1	hit	510	0
35	Triplet	129	453	453	5	0	0	361294	684	0	correct_rejection	NA	0
35	Triplet	130	454	454	6	0	0	362011	683	0	correct_rejection	NA	0
35	Triplet	131	455	455	0	1	2	362728	683	0	miss	NA	0
35	Triplet	132	456	456	4	0	0	363444	684	1	false_alarm	22	0
35	Triplet	133	457	457	5	0	0	364161	683	0	correct_rejection	NA	0
35	Triplet	134	458	458	6	0	0	364878	683	0	correct_rejection	NA	0
35	Triplet	135	459	459	6	0	0	365594	684	0	correct_rejection	NA	0
35	Triplet	136	460	460	5	0	0	366311	683	0	correct_rejection	NA	0
35	Triplet	137	461	461	4	0	0	367028	683	0	correct_rejection	NA	0
35	Triplet	138	462	462	6	0	0	367744	684	0	correct_rejection	NA	0
35	Triplet	139	463	463	5	0	0	368461	683	0	correct_rejection	NA	0
35	Triplet	140	464	464	0	1	1	369178	683	1	hit	398	0
35	Triplet	141	465	465	4	0	0	369894	684	0	correct_rejection	NA	0
35	Triplet	142	466	466	7	0	0	370611	683	0	correct_rejection	NA	0
35	Triplet	143	467	467	8	0	0	371328	683	0	correct_rejection	NA	0
35	Triplet	144	468	468	9	0	0	372044	684	0	correct_rejection	NA	0
35	Triplet	145	469	469	7	0	0	372761	683	0	correct_rejection	NA	0
35	Triplet	146	470	470	8	0	0	373478	683	0	correct_rejection	NA	0
35	Triplet	147	471	471	9	0	0	374194	684	0	correct_rejection	NA	0
35	Triplet	148	472	472	4	0	0	374911	683	0	correct_rejection	NA	0
35	Triplet	149	473	473	5	0	0	375628	683	0	correct_rejection	NA	0
35	Triplet	150	474	474	6	0	0	376344	684	0	correct_rejection	NA	0
35	Triplet	151	475	475	0	1	2	377061	683	1	hit	384	0
35	Triplet	152	476	476	7	0	0	377778	683	0	correct_rejection	NA	0
35	Triplet	153	477	477	8	0	0	378494	684	0	correct_rejection	NA	0
35	Triplet	154	478	478	0	1	1	379211	683	1	hit	420	0
35	Triplet	155	479	479	9	0	0	379928	683	0	correct_rejection	NA	0
35	Triplet	156	480	480	9	0	0	380644	684	0	correct_rejection	NA	0
35	Triplet	157	481	481	8	0	0	381361	683	0	correct_rejection	NA	0
35	Triplet	158	482	482	7	0	0	382078	683	0	correct_rejection	NA	0
35	Triplet	159	483	483	9	0	0	382794	684	0	correct_rejection	NA	0
35	Triplet	160	484	484	0	1	1	383511	683	1	hit	415	0
35	Triplet	161	485	485	8	0	0	384228	683	0	correct_rejection	NA	0
35	Triplet	162	486	486	7	0	0	384944	684	0	correct_rejection	NA	0
35	Nonet	1	649	487	6	0	0	394994	683	0	correct_rejection	NA	7817
35	Nonet	2	650	488	5	0	0	395711	683	0	correct_rejection	NA	0
35	Nonet	3	651	489	4	0	0	396427	684	0	correct_rejection	NA	0
35	Nonet	4	652	490	6	0	0	397144	683	0	correct_rejection	NA	0
35	Nonet	5	653	491	5	0	0	397861	683	0	correct_rejection	NA	0
35	Nonet	6	654	492	4	0	0	398577	684	0	correct_rejection	NA	0
35	Nonet	7	655	493	6	0	0	399294	683	0	correct_rejection	NA	0
35	Nonet	8	656	494	5	0	0	400011	683	0	correct_rejection	NA	0
35	Nonet	9	657	495	4	0	0	400727	684	0	correct_rejection	NA	0
35	Nonet	10	658	496	9	0	0	401444	683	0	correct_rejection	NA	0
35	Nonet	11	659	497	8	0	0	402161	683	0	correct_rejection	NA	0
35	Nonet	12	660	498	7	0	0	402877	684	0	correct_rejection	NA	0
35	Nonet	13	661	499	9	0	0	403594	683	0	correct_rejection	NA	0
35	Nonet	14	662	500	8	0	0	404311	683	0	correct_rejection	NA	0
35	Nonet	15	663	501	7	0	0	405027	684	0	correct_rejection	NA	0
35	Nonet	16	664	502	0	1	2	405744	683	1	hit	340	0
35	Nonet	17	665	503	9	0	0	406461	683	0	correct_rejection	NA	0
35	Nonet	18	666	504	8	0	0	407177	684	0	correct_rejection	NA	0
35	Nonet	19	667	505	7	0	0	407894	683	0	correct_rejection	NA	0
35	Nonet	20	668	506	0	1	3	408611	683	1	hit	413	0
35	Nonet	21	669	507	4	0	0	409327	684	0	correct_rejection	NA	0
35	Nonet	22	670	508	5	0	0	410044	683	0	correct_rejection	NA	0
35	Nonet	23	671	509	0	1	1	410760	684	1	hit	371	0
35	Nonet	24	672	510	6	0	0	411477	683	0	correct_rejection	NA	0
35	Nonet	25	673	511	4	0	0	412194	683	0	correct_rejection	NA	0
35	Nonet	26	674	512	5	0	0	412910	684	0	correct_rejection	NA	0
35	Nonet	27	675	513	6	0	0	413627	683	0	correct_rejection	NA	0
35	Nonet	28	676	514	4	0	0	414344	683	0	correct_rejection	NA	0
35	Nonet	29	677	515	5	0	0	415060	684	0	correct_rejection	NA	0
35	Nonet	30	678	516	0	1	1	415777	683	1	hit	362	0
35	Nonet	31	679	517	6	0	0	416494	683	0	correct_rejection	NA	0
35	Nonet	32	680	518	4	0	0	417210	684	0	correct_rejection	NA	0
35	Nonet	33	681	519	5	0	0	417927	683	0	correct_rejection	NA	0
35	Nonet	34	682	520	6	0	0	418644	683	0	correct_rejection	NA	0
35	Nonet	35	683	521	4	0	0	419360	684	0	correct_rejection	NA	0
35	Nonet	36	684	522	5	0	0	420077	683	0	correct_rejection	NA	0
35	Nonet	37	685	523	6	0	0	420794	683	0	correct_rejection	NA	0
35	Nonet	38	686	524	4	0	0	421510	684	0	correct_rejection	NA	0
35	Nonet	39	687	525	5	0	0	422227	683	0	correct_rejection	NA	0
35	Nonet	40	688	526	6	0	0	422944	683	0	correct_rejection	NA	0
35	Nonet	41	689	527	6	0	0	423660	684	0	correct_rejection	NA	0
35	Nonet	42	690	528	5	0	0	424377	683	0	correct_rejection	NA	0
35	Nonet	43	691	529	4	0	0	425094	683	0	correct_rejection	NA	0
35	Nonet	44	692	530	6	0	0	425810	684	0	correct_rejection	NA	0
35	Nonet	45	693	531	5	0	0	426527	683	0	correct_rejection	NA	0
35	Nonet	46	694	532	4	0	0	427244	683	0	correct_rejection	NA	0
35	Nonet	47	695	533	6	0	0	427960	684	0	correct_rejection	NA	0
35	Nonet	48	696	534	5	0	0	428677	683	0	correct_rejection	NA	0
35	Nonet	49	697	535	0	1	1	429394	683	1	hit	429	0
35	Nonet	50	698	536	4	0	0	430110	684	0	correct_rejection	NA	0
35	Nonet	51	699	537	6	0	0	430827	683	0	correct_rejection	NA	0
35	Nonet	52	700	538	5	0	0	431544	683	0	correct_rejection	NA	0
35	Nonet	53	701	539	4	0	0	432260	684	0	correct_rejection	NA	0
35	Nonet	54	702	540	6	0	0	432977	683	0	correct_rejection	NA	0
35	Nonet	55	703	541	0	1	1	433693	684	1	hit	487	0
35	Nonet	56	704	542	5	0	0	434410	684	0	correct_rejection	NA	0
35	Nonet	57	705	543	4	0	0	435127	683	0	correct_rejection	NA	0
35	Nonet	58	706	544	0	1	2	435843	684	1	hit	360	0
35	Nonet	59	707	545	6	0	0	436560	683	0	correct_rejection	NA	0
35	Nonet	60	708	546	5	0	0	437277	683	0	correct_rejection	NA	0
35	Nonet	61	709	547	4	0	0	437993	684	0	correct_rejection	NA	0
35	Nonet	62	710	548	4	0	0	438710	683	0	correct_rejection	NA	0
35	Nonet	63	711	549	5	0	0	439427	683	0	correct_rejection	NA	0
35	Nonet	64	712	550	6	0	0	440143	684	0	correct_rejection	NA	0
35	Nonet	65	713	551	4	0	0	440860	683	0	correct_rejection	NA	0
35	Nonet	66	714	552	5	0	0	441577	683	0	correct_rejection	NA	0
35	Nonet	67	715	553	6	0	0	442293	684	0	correct_rejection	NA	0
35	Nonet	68	716	554	4	0	0	443010	683	0	correct_rejection	NA	0
35	Nonet	69	717	555	5	0	0	443727	683	0	correct_rejection	NA	0
35	Nonet	70	718	556	6	0	0	444443	684	0	correct_rejection	NA	0
35	Nonet	71	719	557	7	0	0	445160	683	0	correct_rejection	NA	0
35	Nonet	72	720	558	8	0	0	445877	683	0	correct_rejection	NA	0
35	Nonet	73	721	559	9	0	0	446593	684	0	correct_rejection	NA	0
35	Nonet	74	722	560	0	1	2	447310	683	1	hit	432	0
35	Nonet	75	723	561	7	0	0	448027	683	0	correct_rejection	NA	0
35	Nonet	76	724	562	8	0	0	448743	684	0	correct_rejection	NA	0
35	Nonet	77	725	563	0	1	1	449460	683	1	hit	407	0
35	Nonet	78	726	564	9	0	0	450177	683	0	correct_rejection	NA	0
35	Nonet	79	727	565	7	0	0	450893	684	0	correct_rejection	NA	0
35	Nonet	80	728	566	8	0	0	451610	683	0	correct_rejection	NA	0
35	Nonet	81	729	567	9	0	0	452327	683	0	correct_rejection	NA	0
35	Nonet	82	730	568	6	0	0	453043	684	0	correct_rejection	NA	0
35	Nonet	83	731	569	5	0	0	453760	683	0	correct_rejection	NA	0
35	Nonet	84	732	570	4	0	0	454477	683	0	correct_rejection	NA	0
35	Nonet	85	733	571	6	0	0	455193	684	0	correct_rejection	NA	0
35	Nonet	86	734	572	5	0	0	455910	683	0	correct_rejection	NA	0
35	Nonet	87	735	573	4	0	0	456626	684	0	correct_rejection	NA	0
35	Nonet	88	736	574	0	1	2	457343	684	1	hit	387	0
35	Nonet	89	737	575	6	0	0	458060	683	0	correct_rejection	NA	0
35	Nonet	90	738	576	5	0	0	458776	684	0	correct_rejection	NA	0
35	Nonet	91	739	577	4	0	0	459493	683	0	correct_rejection	NA	0
35	Nonet	92	740	578	7	0	0	460210	683	0	correct_rejection	NA	0
35	Nonet	93	741	579	8	0	0	460926	684	0	correct_rejection	NA	0
35	Nonet	94	742	580	9	0	0	461643	683	0	correct_rejection	NA	0
35	Nonet	95	743	581	7	0	0	462360	683	0	correct_rejection	NA	0
35	Nonet	96	744	582	8	0	0	463076	684	0	correct_rejection	NA	0
35	Nonet	97	745	583	9	0	0	463793	683	0	correct_rejection	NA	0
35	Nonet	98	746	584	7	0	0	464510	683	0	correct_rejection	NA	0
35	Nonet	99	747	585	0	1	1	465226	684	1	hit	485	0
35	Nonet	100	748	586	8	0	0	465943	683	0	correct_rejection	NA	0
35	Nonet	101	749	587	9	0	0	466660	683	0	correct_rejection	NA	0
35	Nonet	102	750	588	4	0	0	467376	684	0	correct_rejection	NA	0
35	Nonet	103	751	589	0	1	1	468093	683	1	hit	439	0
35	Nonet	104	752	590	5	0	0	468810	683	0	correct_rejection	NA	0
35	Nonet	105	753	591	6	0	0	469526	684	0	correct_rejection	NA	0
35	Nonet	106	754	592	0	1	2	470243	683	1	hit	389	0
35	Nonet	107	755	593	4	0	0	470960	683	0	correct_rejection	NA	0
35	Nonet	108	756	594	5	0	0	471676	684	0	correct_rejection	NA	0
35	Nonet	109	757	595	6	0	0	472393	683	0	correct_rejection	NA	0
35	Nonet	110	758	596	4	0	0	473110	683	0	correct_rejection	NA	0
35	Nonet	111	759	597	5	0	0	473826	684	0	correct_rejection	NA	0
35	Nonet	112	760	598	6	0	0	474543	683	0	correct_rejection	NA	0
35	Nonet	113	761	599	9	0	0	475260	683	0	correct_rejection	NA	0
35	Nonet	114	762	600	8	0	0	475976	684	0	correct_rejection	NA	0
35	Nonet	115	763	601	7	0	0	476693	683	0	correct_rejection	NA	0
35	Nonet	116	764	602	9	0	0	477410	683	0	correct_rejection	NA	0
35	Nonet	117	765	603	0	1	1	478126	684	1	hit	391	0
35	Nonet	118	766	604	8	0	0	478843	683	0	correct_rejection	NA	0
35	Nonet	119	767	605	7	0	0	479560	683	0	correct_rejection	NA	0
35	Nonet	120	768	606	9	0	0	480276	684	0	correct_rejection	NA	0
35	Nonet	121	769	607	8	0	0	480993	683	0	correct_rejection	NA	0
35	Nonet	122	770	608	0	1	1	481709	684	1	hit	392	0
35	Nonet	123	771	609	7	0	0	482426	683	0	correct_rejection	NA	0
35	Nonet	124	772	610	9	0	0	483143	683	0	correct_rejection	NA	0
35	Nonet	125	773	611	8	0	0	483859	684	0	correct_rejection	NA	0
35	Nonet	126	774	612	7	0	0	484576	683	0	correct_rejection	NA	0
35	Nonet	127	775	613	0	1	2	485293	683	1	hit	361	0
35	Nonet	128	776	614	9	0	0	486009	684	0	correct_rejection	NA	0
35	Nonet	129	777	615	8	0	0	486726	683	0	correct_rejection	NA	0
35	Nonet	130	778	616	0	1	1	487443	683	1	hit	376	0
35	Nonet	131	779	617	7	0	0	488159	684	0	correct_rejection	NA	0
35	Nonet	132	780	618	9	0	0	488876	683	0	correct_rejection	NA	0
35	Nonet	133	781	619	8	0	0	489593	683	0	correct_rejection	NA	0
35	Nonet	134	782	620	7	0	0	490309	684	0	correct_rejection	NA	0
35	Nonet	135	783	621	7	0	0	491026	683	0	correct_rejection	NA	0
35	Nonet	136	784	622	8	0	0	491743	683	0	correct_rejection	NA	0
35	Nonet	137	785	623	9	0	0	492459	684	0	correct_rejection	NA	0
35	Nonet	138	786	624	7	0	0	493176	683	0	correct_rejection	NA	0
35	Nonet	139	787	625	8	0	0	493893	683	0	correct_rejection	NA	0
35	Nonet	140	788	626	9	0	0	494609	684	0	correct_rejection	NA	0
35	Nonet	141	789	627	7	0	0	495326	683	0	correct_rejection	NA	0
35	Nonet	142	790	628	8	0	0	496043	683	0	correct_rejection	NA	0
35	Nonet	143	791	629	9	0	0	496759	684	0	correct_rejection	NA	0
35	Nonet	144	792	630	0	1	3	497476	683	1	hit	417	0
35	Nonet	145	793	631	7	0	0	498193	683	0	correct_rejection	NA	0
35	Nonet	146	794	632	8	0	0	498909	684	0	correct_rejection	NA	0
35	Nonet	147	795	633	9	0	0	499626	683	0	correct_rejection	NA	0
35	Nonet	148	796	634	7	0	0	500343	683	0	correct_rejection	NA	0
35	Nonet	149	797	635	8	0	0	501059	684	0	correct_rejection	NA	0
35	Nonet	150	798	636	9	0	0	501776	683	0	correct_rejection	NA	0
35	Nonet	151	799	637	7	0	0	502493	683	0	correct_rejection	NA	0
35	Nonet	152	800	638	8	0	0	503209	684	0	correct_rejection	NA	0
35	Nonet	153	801	639	9	0	0	503926	683	0	correct_rejection	NA	0
35	Nonet	154	802	640	9	0	0	504642	684	0	correct_rejection	NA	0
35	Nonet	155	803	641	8	0	0	505359	684	0	correct_rejection	NA	0
35	Nonet	156	804	642	7	0	0	506076	683	0	correct_rejection	NA	0
35	Nonet	157	805	643	9	0	0	506792	684	0	correct_rejection	NA	0
35	Nonet	158	806	644	8	0	0	507509	683	0	correct_rejection	NA	0
35	Nonet	159	807	645	7	0	0	508226	683	0	correct_rejection	NA	0
35	Nonet	160	808	646	9	0	0	508942	684	0	correct_rejection	NA	0
35	Nonet	161	809	647	8	0	0	509659	683	0	correct_rejection	NA	0
35	Nonet	162	810	648	7	0	0	510376	683	0	correct_rejection	NA	0
35	Correct	1	325	649	4	0	0	519976	683	0	correct_rejection	NA	7806
35	Correct	2	326	650	5	0	0	520692	684	0	correct_rejection	NA	0
35	Correct	3	327	651	6	0	0	521409	683	0	correct_rejection	NA	0
35	Correct	4	328	652	4	0	0	522126	683	0	correct_rejection	NA	0
35	Correct	5	329	653	5	0	0	522842	684	0	correct_rejection	NA	0
35	Correct	6	330	654	6	0	0	523559	683	0	correct_rejection	NA	0
35	Correct	7	331	655	4	0	0	524276	683	0	correct_rejection	NA	0
35	Correct	8	332	656	5	0	0	524992	684	0	correct_rejection	NA	0
35	Correct	9	333	657	6	0	0	525709	683	0	correct_rejection	NA	0
35	Correct	10	334	658	0	1	3	526426	683	1	hit	422	0
35	Correct	11	335	659	6	0	0	527142	684	0	correct_rejection	NA	0
35	Correct	12	336	660	5	0	0	527859	683	0	correct_rejection	NA	0
35	Correct	13	337	661	4	0	0	528575	684	0	correct_rejection	NA	0
35	Correct	14	338	662	6	0	0	529292	684	0	correct_rejection	NA	0
35	Correct	15	339	663	5	0	0	530009	683	0	correct_rejection	NA	0
35	Correct	16	340	664	4	0	0	530725	684	0	correct_rejection	NA	0
35	Correct	17	341	665	6	0	0	531442	683	0	correct_rejection	NA	0
35	Correct	18	342	666	0	1	1	532159	683	1	hit	442	0
35	Correct	19	343	667	5	0	0	532875	684	0	correct_rejection	NA	0
35	Correct	20	344	668	4	0	0	533592	683	0	correct_rejection	NA	0
35	Correct	21	345	669	9	0	0	534309	683	0	correct_rejection	NA	0
35	Correct	22	346	670	8	0	0	535025	684	0	correct_rejection	NA	0
35	Correct	23	347	671	7	0	0	535742	683	0	correct_rejection	NA	0
35	Correct	24	348	672	0	1	2	536459	683	1	hit	414	0
35	Correct	25	349	673	9	0	0	537175	684	0	correct_rejection	NA	0
35	Correct	26	350	674	8	0	0	537892	683	0	correct_rejection	NA	0
35	Correct	27	351	675	7	0	0	538609	683	0	correct_rejection	NA	0
35	Correct	28	352	676	9	0	0	539325	684	0	correct_rejection	NA	0
35	Correct	29	353	677	8	0	0	540042	683	0	correct_rejection	NA	0
35	Correct	30	354	678	7	0	0	540759	683	0	correct_rejection	NA	0
35	Correct	31	355	679	7	0	0	541475	684	0	correct_rejection	NA	0
35	Correct	32	356	680	8	0	0	542192	683	0	correct_rejection	NA	0
35	Correct	33	357	681	9	0	0	542909	683	0	correct_rejection	NA	0
35	Correct	34	358	682	7	0	0	543625	684	0	correct_rejection	NA	0
35	Correct	35	359	683	8	0	0	544342	683	0	correct_rejection	NA	0
35	Correct	36	360	684	9	0	0	545059	683	0	correct_rejection	NA	0
35	Correct	37	361	685	7	0	0	545775	684	0	correct_rejection	NA	0
35	Correct	38	362	686	0	1	1	546492	683	1	hit	407	0
35	Correct	39	363	687	8	0	0	547209	683	0	correct_rejection	NA	0
35	Correct	40	364	688	9	0	0	547925	684	0	correct_rejection	NA	0
35	Correct	41	365	689	4	0	0	548642	683	0	correct_rejection	NA	0
35	Correct	42	366	690	5	0	0	549359	683	0	correct_rejection	NA	0
35	Correct	43	367	691	6	0	0	550075	684	0	correct_rejection	NA	0
35	Correct	44	368	692	4	0	0	550792	683	0	correct_rejection	NA	0
35	Correct	45	369	693	5	0	0	551509	683	0	correct_rejection	NA	0
35	Correct	46	370	694	6	0	0	552225	684	0	correct_rejection	NA	0
35	Correct	47	371	695	4	0	0	552942	683	0	correct_rejection	NA	0
35	Correct	48	372	696	0	1	1	553658	684	1	hit	392	0
35	Correct	49	373	697	5	0	0	554375	683	0	correct_rejection	NA	0
35	Correct	50	374	698	6	0	0	555092	683	0	correct_rejection	NA	0
35	Correct	51	375	699	6	0	0	555808	684	0	correct_rejection	NA	0
35	Correct	52	376	700	5	0	0	556525	683	0	correct_rejection	NA	0
35	Correct	53	377	701	4	0	0	557242	683	0	correct_rejection	NA	0
35	Correct	54	378	702	6	0	0	557958	684	0	correct_rejection	NA	0
35	Correct	55	379	703	5	0	0	558675	683	0	correct_rejection	NA	0
35	Correct	56	380	704	4	0	0	559392	683	0	correct_rejection	NA	0
35	Correct	57	381	705	6	0	0	560108	684	0	correct_rejection	NA	0
35	Correct	58	382	706	5	0	0	560825	683	0	correct_rejection	NA	0
35	Correct	59	383	707	4	0	0	561542	683	0	correct_rejection	NA	0
35	Correct	60	384	708	9	0	0	562258	684	0	correct_rejection	NA	0
35	Correct	61	385	709	8	0	0	562975	683	0	correct_rejection	NA	0
35	Correct	62	386	710	7	0	0	563692	683	0	correct_rejection	NA	0
35	Correct	63	387	711	9	0	0	564408	684	0	correct_rejection	NA	0
35	Correct	64	388	712	8	0	0	565125	683	0	correct_rejection	NA	0
35	Correct	65	389	713	0	1	1	565842	683	1	hit	432	0
35	Correct	66	390	714	7	0	0	566558	684	0	correct_rejection	NA	0
35	Correct	67	391	715	9	0	0	567275	683	0	correct_rejection	NA	0
35	Correct	68	392	716	8	0	0	567992	683	0	correct_rejection	NA	0
35	Correct	69	393	717	7	0	0	568708	684	0	correct_rejection	NA	0
35	Correct	70	394	718	7	0	0	569425	683	0	correct_rejection	NA	0
35	Correct	71	395	719	8	0	0	570142	683	0	correct_rejection	NA	0
35	Correct	72	396	720	9	0	0	570858	684	0	correct_rejection	NA	0
35	Correct	73	397	721	0	1	2	571575	683	1	hit	411	0
35	Correct	74	398	722	7	0	0	572292	683	0	correct_rejection	NA	0
35	Correct	75	399	723	8	0	0	573008	684	0	correct_rejection	NA	0
35	Correct	76	400	724	0	1	1	573725	683	1	hit	441	0
35	Correct	77	401	725	9	0	0	574442	683	0	correct_rejection	NA	0
35	Correct	78	402	726	7	0	0	575158	684	0	correct_rejection	NA	0
35	Correct	79	403	727	8	0	0	575875	683	0	correct_rejection	NA	0
35	Correct	80	404	728	0	1	1	576592	683	1	hit	432	0
35	Correct	81	405	729	9	0	0	577308	684	0	correct_rejection	NA	0
35	Correct	82	406	730	4	0	0	578025	683	0	correct_rejection	NA	0
35	Correct	83	407	731	5	0	0	578741	684	0	correct_rejection	NA	0
35	Correct	84	408	732	0	1	1	579458	683	1	hit	505	0
35	Correct	85	409	733	6	0	0	580175	683	0	correct_rejection	NA	0
35	Correct	86	410	734	4	0	0	580891	684	0	correct_rejection	NA	0
35	Correct	87	411	735	5	0	0	581608	683	0	correct_rejection	NA	0
35	Correct	88	412	736	6	0	0	582325	683	0	correct_rejection	NA	0
35	Correct	89	413	737	4	0	0	583041	684	0	correct_rejection	NA	0
35	Correct	90	414	738	5	0	0	583758	683	0	correct_rejection	NA	0
35	Correct	91	415	739	6	0	0	584475	683	0	correct_rejection	NA	0
35	Correct	92	416	740	6	0	0	585191	684	0	correct_rejection	NA	0
35	Correct	93	417	741	5	0	0	585908	683	0	correct_rejection	NA	0
35	Correct	94	418	742	4	0	0	586625	683	0	correct_rejection	NA	0
35	Correct	95	419	743	6	0	0	587341	684	0	correct_rejection	NA	0
35	Correct	96	420	744	5	0	0	588058	683	0	correct_rejection	NA	0
35	Correct	97	421	745	4	0	0	588775	683	0	correct_rejection	NA	0
35	Correct	98	422	746	6	0	0	589491	684	0	correct_rejection	NA	0
35	Correct	99	423	747	5	0	0	590208	683	0	correct_rejection	NA	0
35	Correct	100	424	748	4	0	0	590925	683	0	correct_rejection	NA	0
35	Correct	101	425	749	9	0	0	591641	684	0	correct_rejection	NA	0
35	Correct	102	426	750	8	0	0	592358	683	0	correct_rejection	NA	0
35	Correct	103	427	751	7	0	0	593075	683	0	correct_rejection	NA	0
35	Correct	104	428	752	0	1	2	593791	684	1	hit	467	0
35	Correct	105	429	753	9	0	0	594508	683	0	correct_rejection	NA	0
35	Correct	106	430	754	8	0	0	595225	683	0	correct_rejection	NA	0
35	Correct	107	431	755	7	0	0	595941	684	0	correct_rejection	NA	0
35	Correct	108	432	756	9	0	0	596658	683	0	correct_rejection	NA	0
35	Correct	109	433	757	8	0	0	597375	683	0	correct_rejection	NA	0
35	Correct	110	434	758	7	0	0	598091	684	0	correct_rejection	NA	0
35	Correct	111	435	759	0	1	3	598808	683	1	hit	412	0
35	Correct	112	436	760	7	0	0	599525	683	0	correct_rejection	NA	0
35	Correct	113	437	761	8	0	0	600241	684	0	correct_rejection	NA	0
35	Correct	114	438	762	9	0	0	600958	683	0	correct_rejection	NA	0
35	Correct	115	439	763	7	0	0	601674	684	0	correct_rejection	NA	0
35	Correct	116	440	764	0	1	1	602391	683	1	hit	380	0
35	Correct	117	441	765	8	0	0	603108	683	0	correct_rejection	NA	0
35	Correct	118	442	766	9	0	0	603824	684	0	correct_rejection	NA	0
35	Correct	119	443	767	7	0	0	604541	683	0	correct_rejection	NA	0
35	Correct	120	444	768	0	1	1	605258	683	1	hit	432	0
35	Correct	121	445	769	8	0	0	605974	684	0	correct_rejection	NA	0
35	Correct	122	446	770	9	0	0	606691	683	0	correct_rejection	NA	0
35	Correct	123	447	771	4	0	0	607408	683	0	correct_rejection	NA	0
35	Correct	124	448	772	5	0	0	608124	684	0	correct_rejection	NA	0
35	Correct	125	449	773	6	0	0	608841	683	0	correct_rejection	NA	0
35	Correct	126	450	774	4	0	0	609558	683	0	correct_rejection	NA	0
35	Correct	127	451	775	0	1	1	610274	684	1	hit	380	0
35	Correct	128	452	776	5	0	0	610991	683	0	correct_rejection	NA	0
35	Correct	129	453	777	6	0	0	611708	683	0	correct_rejection	NA	0
35	Correct	130	454	778	4	0	0	612424	684	0	correct_rejection	NA	0
35	Correct	131	455	779	5	0	0	613141	683	0	correct_rejection	NA	0
35	Correct	132	456	780	6	0	0	613858	683	0	correct_rejection	NA	0
35	Correct	133	457	781	6	0	0	614574	684	0	correct_rejection	NA	0
35	Correct	134	458	782	5	0	0	615291	683	0	correct_rejection	NA	0
35	Correct	135	459	783	0	1	1	616008	683	1	hit	395	0
35	Correct	136	460	784	4	0	0	616724	684	0	correct_rejection	NA	0
35	Correct	137	461	785	6	0	0	617441	683	0	correct_rejection	NA	0
35	Correct	138	462	786	5	0	0	618158	683	0	correct_rejection	NA	0
35	Correct	139	463	787	4	0	0	618874	684	0	correct_rejection	NA	0
35	Correct	140	464	788	6	0	0	619591	683	0	correct_rejection	NA	0
35	Correct	141	465	789	5	0	0	620308	683	0	correct_rejection	NA	0
35	Correct	142	466	790	4	0	0	621024	684	0	correct_rejection	NA	0
35	Correct	143	467	791	9	0	0	621741	683	0	correct_rejection	NA	0
35	Correct	144	468	792	8	0	0	622458	683	0	correct_rejection	NA	0
35	Correct	145	469	793	7	0	0	623174	684	0	correct_rejection	NA	0
35	Correct	146	470	794	9	0	0	623891	683	0	correct_rejection	NA	0
35	Correct	147	471	795	0	1	1	624607	684	1	hit	423	0
35	Correct	148	472	796	8	0	0	625324	684	0	correct_rejection	NA	0
35	Correct	149	473	797	7	0	0	626041	683	0	correct_rejection	NA	0
35	Correct	150	474	798	9	0	0	626757	684	0	correct_rejection	NA	0
35	Correct	151	475	799	8	0	0	627474	683	0	correct_rejection	NA	0
35	Correct	152	476	800	7	0	0	628191	683	0	correct_rejection	NA	0
35	Correct	153	477	801	7	0	0	628907	684	0	correct_rejection	NA	0
35	Correct	154	478	802	8	0	0	629624	683	0	correct_rejection	NA	0
35	Correct	155	479	803	9	0	0	630341	683	0	correct_rejection	NA	0
35	Correct	156	480	804	0	1	2	631057	684	1	hit	412	0
35	Correct	157	481	805	7	0	0	631774	683	0	correct_rejection	NA	0
35	Correct	158	482	806	8	0	0	632491	683	0	correct_rejection	NA	0
35	Correct	159	483	807	9	0	0	633207	684	0	correct_rejection	NA	0
35	Correct	160	484	808	7	0	0	633924	683	0	correct_rejection	NA	0
35	Correct	161	485	809	8	0	0	634641	683	0	correct_rejection	NA	0
35	Correct	162	486	810	9	0	0	635357	684	0	correct_rejection	NA	0
trigger nr 627 at 637095
trigger nr 631 at 710231
35	Triplet	1	487	811	6	0	0	717523	683	0	correct_rejection	NA	7227
35	Triplet	2	488	812	5	0	0	718240	683	0	correct_rejection	NA	0
35	Triplet	3	489	813	4	0	0	718956	684	0	correct_rejection	NA	0
35	Triplet	4	490	814	4	0	0	719673	683	0	correct_rejection	NA	0
35	Triplet	5	491	815	5	0	0	720390	683	0	correct_rejection	NA	0
35	Triplet	6	492	816	6	0	0	721106	684	0	correct_rejection	NA	0
35	Triplet	7	493	817	9	0	0	721823	683	0	correct_rejection	NA	0
35	Triplet	8	494	818	8	0	0	722539	684	0	correct_rejection	NA	0
35	Triplet	9	495	819	7	0	0	723256	683	0	correct_rejection	NA	0
35	Triplet	10	496	820	0	1	2	723973	683	1	hit	407	0
35	Triplet	11	497	821	4	0	0	724689	684	0	correct_rejection	NA	0
35	Triplet	12	498	822	5	0	0	725406	683	0	correct_rejection	NA	0
35	Triplet	13	499	823	0	1	1	726123	683	1	hit	389	0
35	Triplet	14	500	824	6	0	0	726839	684	0	correct_rejection	NA	0
35	Triplet	15	501	825	6	0	0	727556	683	0	correct_rejection	NA	0
35	Triplet	16	502	826	5	0	0	728273	683	0	correct_rejection	NA	0
35	Triplet	17	503	827	0	1	1	728989	684	1	hit	355	0
35	Triplet	18	504	828	4	0	0	729706	683	0	correct_rejection	NA	0
35	Triplet	19	505	829	6	0	0	730423	683	0	correct_rejection	NA	0
35	Triplet	20	506	830	5	0	0	731139	684	0	correct_rejection	NA	0
35	Triplet	21	507	831	4	0	0	731856	683	0	correct_rejection	NA	0
35	Triplet	22	508	832	7	0	0	732573	683	0	correct_rejection	NA	0
35	Triplet	23	509	833	0	1	1	733289	684	1	hit	386	0
35	Triplet	24	510	834	8	0	0	734006	683	0	correct_rejection	NA	0
35	Triplet	25	511	835	9	0	0	734723	683	0	correct_rejection	NA	0
35	Triplet	26	512	836	6	0	0	735439	684	0	correct_rejection	NA	0
35	Triplet	27	513	837	0	1	1	736156	683	1	hit	359	0
35	Triplet	28	514	838	5	0	0	736873	683	0	correct_rejection	NA	0
35	Triplet	29	515	839	4	0	0	737589	684	0	correct_rejection	NA	0
35	Triplet	30	516	840	9	0	0	738306	683	0	correct_rejection	NA	0
35	Triplet	31	517	841	0	1	1	739023	683	1	hit	405	0
35	Triplet	32	518	842	8	0	0	739739	684	0	correct_rejection	NA	0
35	Triplet	33	519	843	7	0	0	740456	683	0	correct_rejection	NA	0
35	Triplet	34	520	844	9	0	0	741173	683	0	correct_rejection	NA	0
35	Triplet	35	521	845	8	0	0	741889	684	0	correct_rejection	NA	0
35	Triplet	36	522	846	0	1	1	742606	683	1	hit	396	0
35	Triplet	37	523	847	7	0	0	743323	683	0	correct_rejection	NA	0
35	Triplet	38	524	848	7	0	0	744039	684	0	correct_rejection	NA	0
35	Triplet	39	525	849	8	0	0	744756	683	0	correct_rejection	NA	0
35	Triplet	40	526	850	9	0	0	745472	684	0	correct_rejection	NA	0
35	Triplet	41	527	851	0	1	2	746189	684	1	hit	369	0
35	Triplet	42	528	852	4	0	0	746906	683	0	correct_rejection	NA	0
35	Triplet	43	529	853	5	0	0	747622	684	0	correct_rejection	NA	0
35	Triplet	44	530	854	6	0	0	748339	683	0	correct_rejection	NA	0
35	Triplet	45	531	855	4	0	0	749056	683	0	correct_rejection	NA	0
35	Triplet	46	532	856	5	0	0	749772	684	0	correct_rejection	NA	0
35	Triplet	47	533	857	6	0	0	750489	683	0	correct_rejection	NA	0
35	Triplet	48	534	858	7	0	0	751206	683	0	correct_rejection	NA	0
35	Triplet	49	535	859	8	0	0	751922	684	0	correct_rejection	NA	0
35	Triplet	50	536	860	9	0	0	752639	683	0	correct_rejection	NA	0
35	Triplet	51	537	861	7	0	0	753356	683	0	correct_rejection	NA	0
35	Triplet	52	538	862	8	0	0	754072	684	0	correct_rejection	NA	0
35	Triplet	53	539	863	0	1	1	754789	683	1	hit	391	0
35	Triplet	54	540	864	9	0	0	755506	683	0	correct_rejection	NA	0
35	Triplet	55	541	865	9	0	0	756222	684	0	correct_rejection	NA	0
35	Triplet	56	542	866	8	0	0	756939	683	0	correct_rejection	NA	0
35	Triplet	57	543	867	7	0	0	757656	683	0	correct_rejection	NA	0
35	Triplet	58	544	868	4	0	0	758372	684	0	correct_rejection	NA	0
35	Triplet	59	545	869	5	0	0	759089	683	0	correct_rejection	NA	0
35	Triplet	60	546	870	0	1	1	759806	683	1	hit	370	0
35	Triplet	61	547	871	6	0	0	760522	684	0	correct_rejection	NA	0
35	Triplet	62	548	872	7	0	0	761239	683	0	correct_rejection	NA	0
35	Triplet	63	549	873	8	0	0	761956	683	0	correct_rejection	NA	0
35	Triplet	64	550	874	9	0	0	762672	684	0	correct_rejection	NA	0
35	Triplet	65	551	875	6	0	0	763389	683	0	correct_rejection	NA	0
35	Triplet	66	552	876	0	1	1	764106	683	1	hit	406	0
35	Triplet	67	553	877	5	0	0	764822	684	0	correct_rejection	NA	0
35	Triplet	68	554	878	4	0	0	765539	683	0	correct_rejection	NA	0
35	Triplet	69	555	879	6	0	0	766256	683	0	correct_rejection	NA	0
35	Triplet	70	556	880	5	0	0	766972	684	0	correct_rejection	NA	0
35	Triplet	71	557	881	4	0	0	767689	683	0	correct_rejection	NA	0
35	Triplet	72	558	882	4	0	0	768406	683	0	correct_rejection	NA	0
35	Triplet	73	559	883	5	0	0	769122	684	0	correct_rejection	NA	0
35	Triplet	74	560	884	6	0	0	769839	683	0	correct_rejection	NA	0
35	Triplet	75	561	885	4	0	0	770555	684	0	correct_rejection	NA	0
35	Triplet	76	562	886	5	0	0	771272	684	0	correct_rejection	NA	0
35	Triplet	77	563	887	6	0	0	771989	683	0	correct_rejection	NA	0
35	Triplet	78	564	888	0	1	2	772705	684	1	hit	444	0
35	Triplet	79	565	889	6	0	0	773422	683	0	correct_rejection	NA	0
35	Triplet	80	566	890	5	0	0	774139	683	0	correct_rejection	NA	0
35	Triplet	81	567	891	4	0	0	774855	684	0	correct_rejection	NA	0
35	Triplet	82	568	892	7	0	0	775572	683	0	correct_rejection	NA	0
35	Triplet	83	569	893	0	1	1	776289	683	1	hit	450	0
35	Triplet	84	570	894	8	0	0	777005	684	0	correct_rejection	NA	0
35	Triplet	85	571	895	9	0	0	777722	683	0	correct_rejection	NA	0
35	Triplet	86	572	896	0	1	2	778439	683	1	hit	370	0
35	Triplet	87	573	897	9	0	0	779155	684	0	correct_rejection	NA	0
35	Triplet	88	574	898	8	0	0	779872	683	0	correct_rejection	NA	0
35	Triplet	89	575	899	0	1	1	780589	683	1	hit	462	0
35	Triplet	90	576	900	7	0	0	781305	684	0	correct_rejection	NA	0
35	Triplet	91	577	901	4	0	0	782022	683	0	correct_rejection	NA	0
35	Triplet	92	578	902	5	0	0	782739	683	0	correct_rejection	NA	0
35	Triplet	93	579	903	6	0	0	783455	684	0	correct_rejection	NA	0
35	Triplet	94	580	904	9	0	0	784172	683	0	correct_rejection	NA	0
35	Triplet	95	581	905	8	0	0	784889	683	0	correct_rejection	NA	0
35	Triplet	96	582	906	7	0	0	785605	684	0	correct_rejection	NA	0
35	Triplet	97	583	907	9	0	0	786322	683	0	correct_rejection	NA	0
35	Triplet	98	584	908	8	0	0	787039	683	0	correct_rejection	NA	0
35	Triplet	99	585	909	0	1	1	787755	684	1	hit	420	0
35	Triplet	100	586	910	7	0	0	788472	683	0	correct_rejection	NA	0
35	Triplet	101	587	911	6	0	0	789189	683	0	correct_rejection	NA	0
35	Triplet	102	588	912	5	0	0	789905	684	0	correct_rejection	NA	0
35	Triplet	103	589	913	4	0	0	790622	683	0	correct_rejection	NA	0
35	Triplet	104	590	914	9	0	0	791339	683	0	correct_rejection	NA	0
35	Triplet	105	591	915	8	0	0	792055	684	0	correct_rejection	NA	0
35	Triplet	106	592	916	7	0	0	792772	683	0	correct_rejection	NA	0
35	Triplet	107	593	917	7	0	0	793489	683	0	correct_rejection	NA	0
35	Triplet	108	594	918	8	0	0	794205	684	0	correct_rejection	NA	0
35	Triplet	109	595	919	9	0	0	794922	683	0	correct_rejection	NA	0
35	Triplet	110	596	920	7	0	0	795638	684	0	correct_rejection	NA	0
35	Triplet	111	597	921	8	0	0	796355	683	0	correct_rejection	NA	0
35	Triplet	112	598	922	9	0	0	797072	683	0	correct_rejection	NA	0
35	Triplet	113	599	923	6	0	0	797788	684	0	correct_rejection	NA	0
35	Triplet	114	600	924	5	0	0	798505	683	0	correct_rejection	NA	0
35	Triplet	115	601	925	4	0	0	799222	683	0	correct_rejection	NA	0
35	Triplet	116	602	926	0	1	2	799938	684	1	hit	399	0
35	Triplet	117	603	927	9	0	0	800655	683	0	correct_rejection	NA	0
35	Triplet	118	604	928	8	0	0	801372	683	0	correct_rejection	NA	0
35	Triplet	119	605	929	7	0	0	802088	684	0	correct_rejection	NA	0
35	Triplet	120	606	930	6	0	0	802805	683	0	correct_rejection	NA	0
35	Triplet	121	607	931	5	0	0	803522	683	0	correct_rejection	NA	0
35	Triplet	122	608	932	4	0	0	804238	684	0	correct_rejection	NA	0
35	Triplet	123	609	933	7	0	0	804955	683	0	correct_rejection	NA	0
35	Triplet	124	610	934	8	0	0	805672	683	0	correct_rejection	NA	0
35	Triplet	125	611	935	9	0	0	806388	684	0	correct_rejection	NA	0
35	Triplet	126	612	936	7	0	0	807105	683	0	correct_rejection	NA	0
35	Triplet	127	613	937	8	0	0	807822	683	0	correct_rejection	NA	0
35	Triplet	128	614	938	9	0	0	808538	684	0	correct_rejection	NA	0
35	Triplet	129	615	939	4	0	0	809255	683	0	correct_rejection	NA	0
35	Triplet	130	616	940	5	0	0	809972	683	0	correct_rejection	NA	0
35	Triplet	131	617	941	6	0	0	810688	684	0	correct_rejection	NA	0
35	Triplet	132	618	942	6	0	0	811405	683	0	correct_rejection	NA	0
35	Triplet	133	619	943	5	0	0	812122	683	0	correct_rejection	NA	0
35	Triplet	134	620	944	4	0	0	812838	684	0	correct_rejection	NA	0
35	Triplet	135	621	945	4	0	0	813555	683	0	correct_rejection	NA	0
35	Triplet	136	622	946	5	0	0	814272	683	0	correct_rejection	NA	0
35	Triplet	137	623	947	6	0	0	814988	684	0	correct_rejection	NA	0
35	Triplet	138	624	948	7	0	0	815705	683	0	correct_rejection	NA	0
35	Triplet	139	625	949	8	0	0	816422	683	0	correct_rejection	NA	0
35	Triplet	140	626	950	9	0	0	817138	684	0	correct_rejection	NA	0
35	Triplet	141	627	951	9	0	0	817855	683	0	correct_rejection	NA	0
35	Triplet	142	628	952	8	0	0	818571	684	0	correct_rejection	NA	0
35	Triplet	143	629	953	7	0	0	819288	683	0	correct_rejection	NA	0
35	Triplet	144	630	954	0	1	2	820005	683	1	hit	460	0
35	Triplet	145	631	955	9	0	0	820721	684	0	correct_rejection	NA	0
35	Triplet	146	632	956	8	0	0	821438	683	0	correct_rejection	NA	0
35	Triplet	147	633	957	7	0	0	822155	683	0	correct_rejection	NA	0
35	Triplet	148	634	958	4	0	0	822871	684	0	correct_rejection	NA	0
35	Triplet	149	635	959	5	0	0	823588	683	0	correct_rejection	NA	0
35	Triplet	150	636	960	6	0	0	824305	683	0	correct_rejection	NA	0
35	Triplet	151	637	961	4	0	0	825021	684	0	correct_rejection	NA	0
35	Triplet	152	638	962	5	0	0	825738	683	0	correct_rejection	NA	0
35	Triplet	153	639	963	6	0	0	826455	683	0	correct_rejection	NA	0
35	Triplet	154	640	964	9	0	0	827171	684	0	correct_rejection	NA	0
35	Triplet	155	641	965	8	0	0	827888	683	0	correct_rejection	NA	0
35	Triplet	156	642	966	7	0	0	828605	683	0	correct_rejection	NA	0
35	Triplet	157	643	967	7	0	0	829321	684	0	correct_rejection	NA	0
35	Triplet	158	644	968	8	0	0	830038	683	0	correct_rejection	NA	0
35	Triplet	159	645	969	9	0	0	830755	683	0	correct_rejection	NA	0
35	Triplet	160	646	970	6	0	0	831471	684	0	correct_rejection	NA	0
35	Triplet	161	647	971	5	0	0	832188	683	0	correct_rejection	NA	0
35	Triplet	162	648	972	4	0	0	832905	683	0	correct_rejection	NA	0
35	Correct	1	1	973	4	0	0	842404	684	0	correct_rejection	NA	7106
35	Correct	2	2	974	5	0	0	843121	684	0	correct_rejection	NA	0
35	Correct	3	3	975	6	0	0	843838	683	0	correct_rejection	NA	0
35	Correct	4	4	976	0	1	2	844554	684	1	hit	457	0
35	Correct	5	5	977	4	0	0	845271	683	0	correct_rejection	NA	0
35	Correct	6	6	978	5	0	0	845988	683	0	correct_rejection	NA	0
35	Correct	7	7	979	6	0	0	846704	684	0	correct_rejection	NA	0
35	Correct	8	8	980	4	0	0	847421	683	0	correct_rejection	NA	0
35	Correct	9	9	981	5	0	0	848138	683	0	correct_rejection	NA	0
35	Correct	10	10	982	6	0	0	848854	684	0	correct_rejection	NA	0
35	Correct	11	11	983	0	1	3	849571	683	1	hit	422	0
35	Correct	12	12	984	6	0	0	850288	683	0	correct_rejection	NA	0
35	Correct	13	13	985	5	0	0	851004	684	0	correct_rejection	NA	0
35	Correct	14	14	986	4	0	0	851721	683	0	correct_rejection	NA	0
35	Correct	15	15	987	6	0	0	852438	683	0	correct_rejection	NA	0
35	Correct	16	16	988	0	1	1	853154	684	1	hit	418	0
35	Correct	17	17	989	5	0	0	853871	683	0	correct_rejection	NA	0
35	Correct	18	18	990	4	0	0	854588	683	0	correct_rejection	NA	0
35	Correct	19	19	991	6	0	0	855304	684	0	correct_rejection	NA	0
35	Correct	20	20	992	5	0	0	856021	683	0	correct_rejection	NA	0
35	Correct	21	21	993	4	0	0	856738	683	0	correct_rejection	NA	0
35	Correct	22	22	994	9	0	0	857454	684	0	correct_rejection	NA	0
35	Correct	23	23	995	8	0	0	858171	683	0	correct_rejection	NA	0
35	Correct	24	24	996	7	0	0	858888	683	0	correct_rejection	NA	0
35	Correct	25	25	997	9	0	0	859604	684	0	correct_rejection	NA	0
35	Correct	26	26	998	8	0	0	860321	683	0	correct_rejection	NA	0
35	Correct	27	27	999	7	0	0	861038	683	0	correct_rejection	NA	0
35	Correct	28	28	1000	0	1	2	861754	684	1	hit	412	0
35	Correct	29	29	1001	9	0	0	862471	683	0	correct_rejection	NA	0
35	Correct	30	30	1002	8	0	0	863188	683	0	correct_rejection	NA	0
35	Correct	31	31	1003	7	0	0	863904	684	0	correct_rejection	NA	0
35	Correct	32	32	1004	7	0	0	864621	683	0	correct_rejection	NA	0
35	Correct	33	33	1005	8	0	0	865337	684	0	correct_rejection	NA	0
35	Correct	34	34	1006	9	0	0	866054	684	0	correct_rejection	NA	0
35	Correct	35	35	1007	7	0	0	866771	683	0	correct_rejection	NA	0
35	Correct	36	36	1008	8	0	0	867487	684	0	correct_rejection	NA	0
35	Correct	37	37	1009	9	0	0	868204	683	0	correct_rejection	NA	0
35	Correct	38	38	1010	7	0	0	868921	683	0	correct_rejection	NA	0
35	Correct	39	39	1011	8	0	0	869637	684	0	correct_rejection	NA	0
35	Correct	40	40	1012	9	0	0	870354	683	0	correct_rejection	NA	0
35	Correct	41	41	1013	0	1	4	871071	683	1	hit	407	0
35	Correct	42	42	1014	4	0	0	871787	684	0	correct_rejection	NA	0
35	Correct	43	43	1015	5	0	0	872504	683	0	correct_rejection	NA	0
35	Correct	44	44	1016	0	1	1	873221	683	1	hit	383	0
35	Correct	45	45	1017	6	0	0	873937	684	0	correct_rejection	NA	0
35	Correct	46	46	1018	4	0	0	874654	683	0	correct_rejection	NA	0
35	Correct	47	47	1019	5	0	0	875371	683	0	correct_rejection	NA	0
35	Correct	48	48	1020	6	0	0	876087	684	0	correct_rejection	NA	0
35	Correct	49	49	1021	4	0	0	876804	683	0	correct_rejection	NA	0
35	Correct	50	50	1022	5	0	0	877521	683	0	correct_rejection	NA	0
35	Correct	51	51	1023	6	0	0	878237	684	0	correct_rejection	NA	0
35	Correct	52	52	1024	6	0	0	878954	683	0	correct_rejection	NA	0
35	Correct	53	53	1025	5	0	0	879671	683	0	correct_rejection	NA	0
35	Correct	54	54	1026	4	0	0	880387	684	0	correct_rejection	NA	0
35	Correct	55	55	1027	6	0	0	881104	683	0	correct_rejection	NA	0
35	Correct	56	56	1028	5	0	0	881821	683	0	correct_rejection	NA	0
35	Correct	57	57	1029	4	0	0	882537	684	0	correct_rejection	NA	0
35	Correct	58	58	1030	6	0	0	883254	683	0	correct_rejection	NA	0
35	Correct	59	59	1031	5	0	0	883971	683	0	correct_rejection	NA	0
35	Correct	60	60	1032	4	0	0	884687	684	0	correct_rejection	NA	0
35	Correct	61	61	1033	9	0	0	885404	683	0	correct_rejection	NA	0
35	Correct	62	62	1034	8	0	0	886121	683	0	correct_rejection	NA	0
35	Correct	63	63	1035	7	0	0	886837	684	0	correct_rejection	NA	0
35	Correct	64	64	1036	9	0	0	887554	683	0	correct_rejection	NA	0
35	Correct	65	65	1037	8	0	0	888271	683	0	correct_rejection	NA	0
35	Correct	66	66	1038	7	0	0	888987	684	0	correct_rejection	NA	0
35	Correct	67	67	1039	9	0	0	889704	683	0	correct_rejection	NA	0
35	Correct	68	68	1040	8	0	0	890420	684	0	correct_rejection	NA	0
35	Correct	69	69	1041	7	0	0	891137	683	0	correct_rejection	NA	0
35	Correct	70	70	1042	7	0	0	891854	683	0	correct_rejection	NA	0
35	Correct	71	71	1043	8	0	0	892570	684	0	correct_rejection	NA	0
35	Correct	72	72	1044	9	0	0	893287	683	0	correct_rejection	NA	0
35	Correct	73	73	1045	7	0	0	894004	683	0	correct_rejection	NA	0
35	Correct	74	74	1046	8	0	0	894720	684	0	correct_rejection	NA	0
35	Correct	75	75	1047	9	0	0	895437	683	0	correct_rejection	NA	0
35	Correct	76	76	1048	7	0	0	896154	683	0	correct_rejection	NA	0
35	Correct	77	77	1049	8	0	0	896870	684	0	correct_rejection	NA	0
35	Correct	78	78	1050	9	0	0	897587	683	0	correct_rejection	NA	0
35	Correct	79	79	1051	4	0	0	898304	683	0	correct_rejection	NA	0
35	Correct	80	80	1052	0	1	1	899020	684	1	hit	458	0
35	Correct	81	81	1053	5	0	0	899737	683	0	correct_rejection	NA	0
35	Correct	82	82	1054	6	0	0	900454	683	0	correct_rejection	NA	0
35	Correct	83	83	1055	4	0	0	901170	684	0	correct_rejection	NA	0
35	Correct	84	84	1056	5	0	0	901887	683	0	correct_rejection	NA	0
35	Correct	85	85	1057	6	0	0	902604	683	0	correct_rejection	NA	0
35	Correct	86	86	1058	4	0	0	903320	684	0	correct_rejection	NA	0
35	Correct	87	87	1059	0	1	1	904037	683	1	hit	448	0
35	Correct	88	88	1060	5	0	0	904754	683	0	correct_rejection	NA	0
35	Correct	89	89	1061	6	0	0	905470	684	0	correct_rejection	NA	0
35	Correct	90	90	1062	6	0	0	906187	683	0	correct_rejection	NA	0
35	Correct	91	91	1063	5	0	0	906904	683	0	correct_rejection	NA	0
35	Correct	92	92	1064	0	1	1	907620	684	1	hit	410	0
35	Correct	93	93	1065	4	0	0	908337	683	0	correct_rejection	NA	0
35	Correct	94	94	1066	6	0	0	909054	683	0	correct_rejection	NA	0
35	Correct	95	95	1067	5	0	0	909770	684	0	correct_rejection	NA	0
35	Correct	96	96	1068	0	1	1	910487	683	1	hit	424	0
35	Correct	97	97	1069	4	0	0	911204	683	0	correct_rejection	NA	0
35	Correct	98	98	1070	6	0	0	911920	684	0	correct_rejection	NA	0
35	Correct	99	99	1071	5	0	0	912637	683	0	correct_rejection	NA	0
35	Correct	100	100	1072	4	0	0	913354	683	0	correct_rejection	NA	0
35	Correct	101	101	1073	9	0	0	914070	684	0	correct_rejection	NA	0
35	Correct	102	102	1074	0	1	1	914787	683	1	hit	420	0
35	Correct	103	103	1075	8	0	0	915503	684	0	correct_rejection	NA	0
35	Correct	104	104	1076	7	0	0	916220	683	0	correct_rejection	NA	0
35	Correct	105	105	1077	9	0	0	916937	683	0	correct_rejection	NA	0
35	Correct	106	106	1078	8	0	0	917653	684	0	correct_rejection	NA	0
35	Correct	107	107	1079	7	0	0	918370	683	0	correct_rejection	NA	0
35	Correct	108	108	1080	9	0	0	919087	683	0	correct_rejection	NA	0
35	Correct	109	109	1081	8	0	0	919803	684	0	correct_rejection	NA	0
35	Correct	110	110	1082	0	1	1	920520	683	1	hit	465	0
35	Correct	111	111	1083	7	0	0	921237	683	0	correct_rejection	NA	0
35	Correct	112	112	1084	7	0	0	921953	684	0	correct_rejection	NA	0
35	Correct	113	113	1085	8	0	0	922670	683	0	correct_rejection	NA	0
35	Correct	114	114	1086	9	0	0	923387	683	0	correct_rejection	NA	0
35	Correct	115	115	1087	7	0	0	924103	684	0	correct_rejection	NA	0
35	Correct	116	116	1088	8	0	0	924820	683	0	correct_rejection	NA	0
35	Correct	117	117	1089	9	0	0	925537	683	0	correct_rejection	NA	0
35	Correct	118	118	1090	7	0	0	926253	684	0	correct_rejection	NA	0
35	Correct	119	119	1091	8	0	0	926970	683	0	correct_rejection	NA	0
35	Correct	120	120	1092	0	1	1	927687	683	1	hit	393	0
35	Correct	121	121	1093	9	0	0	928403	684	0	correct_rejection	NA	0
35	Correct	122	122	1094	4	0	0	929120	683	0	correct_rejection	NA	0
35	Correct	123	123	1095	5	0	0	929837	683	0	correct_rejection	NA	0
35	Correct	124	124	1096	6	0	0	930553	684	0	correct_rejection	NA	0
35	Correct	125	125	1097	4	0	0	931270	683	0	correct_rejection	NA	0
35	Correct	126	126	1098	5	0	0	931987	683	0	correct_rejection	NA	0
35	Correct	127	127	1099	6	0	0	932703	684	0	correct_rejection	NA	0
35	Correct	128	128	1100	4	0	0	933420	683	0	correct_rejection	NA	0
35	Correct	129	129	1101	5	0	0	934137	683	0	correct_rejection	NA	0
35	Correct	130	130	1102	0	1	1	934853	684	1	hit	430	0
35	Correct	131	131	1103	6	0	0	935570	683	0	correct_rejection	NA	0
35	Correct	132	132	1104	6	0	0	936287	683	0	correct_rejection	NA	0
35	Correct	133	133	1105	0	1	1	937003	684	1	hit	509	0
35	Correct	134	134	1106	5	0	0	937720	683	0	correct_rejection	NA	0
35	Correct	135	135	1107	4	0	0	938436	684	0	correct_rejection	NA	0
35	Correct	136	136	1108	6	0	0	939153	684	0	correct_rejection	NA	0
35	Correct	137	137	1109	5	0	0	939870	683	0	correct_rejection	NA	0
35	Correct	138	138	1110	4	0	0	940586	684	0	correct_rejection	NA	0
35	Correct	139	139	1111	0	1	2	941303	683	1	hit	395	0
35	Correct	140	140	1112	6	0	0	942020	683	0	correct_rejection	NA	0
35	Correct	141	141	1113	5	0	0	942736	684	0	correct_rejection	NA	0
35	Correct	142	142	1114	4	0	0	943453	683	0	correct_rejection	NA	0
35	Correct	143	143	1115	9	0	0	944170	683	0	correct_rejection	NA	0
35	Correct	144	144	1116	8	0	0	944886	684	0	correct_rejection	NA	0
35	Correct	145	145	1117	7	0	0	945603	683	0	correct_rejection	NA	0
35	Correct	146	146	1118	9	0	0	946320	683	0	correct_rejection	NA	0
35	Correct	147	147	1119	8	0	0	947036	684	0	correct_rejection	NA	0
35	Correct	148	148	1120	7	0	0	947753	683	0	correct_rejection	NA	0
35	Correct	149	149	1121	9	0	0	948470	683	0	correct_rejection	NA	0
35	Correct	150	150	1122	0	1	1	949186	684	1	hit	396	0
35	Correct	151	151	1123	8	0	0	949903	683	0	correct_rejection	NA	0
35	Correct	152	152	1124	7	0	0	950620	683	0	correct_rejection	NA	0
35	Correct	153	153	1125	7	0	0	951336	684	0	correct_rejection	NA	0
35	Correct	154	154	1126	8	0	0	952053	683	0	correct_rejection	NA	0
35	Correct	155	155	1127	9	0	0	952770	683	0	correct_rejection	NA	0
35	Correct	156	156	1128	0	1	2	953486	684	1	hit	427	0
35	Correct	157	157	1129	7	0	0	954203	683	0	correct_rejection	NA	0
35	Correct	158	158	1130	8	0	0	954920	683	0	correct_rejection	NA	0
35	Correct	159	159	1131	9	0	0	955636	684	0	correct_rejection	NA	0
35	Correct	160	160	1132	7	0	0	956353	683	0	correct_rejection	NA	0
35	Correct	161	161	1133	8	0	0	957070	683	0	correct_rejection	NA	0
35	Correct	162	162	1134	9	0	0	957786	684	0	correct_rejection	NA	0
35	Single	1	163	1135	8	0	0	967303	683	0	correct_rejection	NA	7006
35	Single	2	164	1136	6	0	0	968019	684	0	correct_rejection	NA	0
35	Single	3	165	1137	7	0	0	968736	683	0	correct_rejection	NA	0
35	Single	4	166	1138	5	0	0	969453	683	0	correct_rejection	NA	0
35	Single	5	167	1139	0	1	1	970169	684	1	hit	448	0
35	Single	6	168	1140	5	0	0	970886	683	0	correct_rejection	NA	0
35	Single	7	169	1141	7	0	0	971603	683	0	correct_rejection	NA	0
35	Single	8	170	1142	6	0	0	972319	684	0	correct_rejection	NA	0
35	Single	9	171	1143	0	1	1	973036	683	1	hit	428	0
35	Single	10	172	1144	8	0	0	973753	683	0	correct_rejection	NA	0
35	Single	11	173	1145	7	0	0	974469	684	0	correct_rejection	NA	0
35	Single	12	174	1146	7	0	0	975186	683	0	correct_rejection	NA	0
35	Single	13	175	1147	8	0	0	975903	683	0	correct_rejection	NA	0
35	Single	14	176	1148	8	0	0	976619	684	0	correct_rejection	NA	0
35	Single	15	177	1149	4	0	0	977336	683	0	correct_rejection	NA	0
35	Single	16	178	1150	7	0	0	978053	683	0	correct_rejection	NA	0
35	Single	17	179	1151	0	1	1	978769	684	1	hit	415	0
35	Single	18	180	1152	9	0	0	979486	683	0	correct_rejection	NA	0
35	Single	19	181	1153	6	0	0	980203	683	0	correct_rejection	NA	0
35	Single	20	182	1154	5	0	0	980919	684	0	correct_rejection	NA	0
35	Single	21	183	1155	9	0	0	981636	683	0	correct_rejection	NA	0
35	Single	22	184	1156	7	0	0	982353	683	0	correct_rejection	NA	0
35	Single	23	185	1157	4	0	0	983069	684	0	correct_rejection	NA	0
35	Single	24	186	1158	4	0	0	983786	683	0	correct_rejection	NA	0
35	Single	25	187	1159	0	1	1	984503	683	1	hit	413	0
35	Single	26	188	1160	6	0	0	985219	684	0	correct_rejection	NA	0
35	Single	27	189	1161	9	0	0	985936	683	0	correct_rejection	NA	0
35	Single	28	190	1162	9	0	0	986652	684	0	correct_rejection	NA	0
35	Single	29	191	1163	5	0	0	987369	684	0	correct_rejection	NA	0
35	Single	30	192	1164	6	0	0	988086	683	0	correct_rejection	NA	0
35	Single	31	193	1165	6	0	0	988802	684	0	correct_rejection	NA	0
35	Single	32	194	1166	0	1	1	989519	683	1	hit	436	0
35	Single	33	195	1167	4	0	0	990236	683	0	correct_rejection	NA	0
35	Single	34	196	1168	8	0	0	990952	684	0	correct_rejection	NA	0
35	Single	35	197	1169	5	0	0	991669	683	0	correct_rejection	NA	0
35	Single	36	198	1170	4	0	0	992386	683	0	correct_rejection	NA	0
35	Single	37	199	1171	9	0	0	993102	684	0	correct_rejection	NA	0
35	Single	38	200	1172	4	0	0	993819	683	0	correct_rejection	NA	0
35	Single	39	201	1173	5	0	0	994536	683	0	correct_rejection	NA	0
35	Single	40	202	1174	8	0	0	995252	684	0	correct_rejection	NA	0
35	Single	41	203	1175	9	0	0	995969	683	0	correct_rejection	NA	0
35	Single	42	204	1176	9	0	0	996686	683	0	correct_rejection	NA	0
35	Single	43	205	1177	7	0	0	997402	684	0	correct_rejection	NA	0
35	Single	44	206	1178	6	0	0	998119	683	0	correct_rejection	NA	0
35	Single	45	207	1179	9	0	0	998836	683	0	correct_rejection	NA	0
35	Single	46	208	1180	6	0	0	999552	684	0	correct_rejection	NA	0
35	Single	47	209	1181	8	0	0	1000269	683	0	correct_rejection	NA	0
35	Single	48	210	1182	0	1	1	1000986	683	1	hit	412	0
35	Single	49	211	1183	4	0	0	1001702	684	0	correct_rejection	NA	0
35	Single	50	212	1184	8	0	0	1002419	683	0	correct_rejection	NA	0
35	Single	51	213	1185	8	0	0	1003136	683	0	correct_rejection	NA	0
35	Single	52	214	1186	0	1	1	1003852	684	1	hit	399	0
35	Single	53	215	1187	5	0	0	1004569	683	0	correct_rejection	NA	0
35	Single	54	216	1188	7	0	0	1005286	683	0	correct_rejection	NA	0
35	Single	55	217	1189	7	0	0	1006002	684	0	correct_rejection	NA	0
35	Single	56	218	1190	5	0	0	1006719	683	0	correct_rejection	NA	0
35	Single	57	219	1191	6	0	0	1007436	683	0	correct_rejection	NA	0
35	Single	58	220	1192	4	0	0	1008152	684	0	correct_rejection	NA	0
35	Single	59	221	1193	7	0	0	1008869	683	0	correct_rejection	NA	0
35	Single	60	222	1194	0	1	1	1009586	683	1	hit	447	0
35	Single	61	223	1195	4	0	0	1010302	684	0	correct_rejection	NA	0
35	Single	62	224	1196	6	0	0	1011019	683	0	correct_rejection	NA	0
35	Single	63	225	1197	5	0	0	1011735	684	0	correct_rejection	NA	0
35	Single	64	226	1198	5	0	0	1012452	683	0	correct_rejection	NA	0
35	Single	65	227	1199	8	0	0	1013169	683	0	correct_rejection	NA	0
35	Single	66	228	1200	0	1	1	1013885	684	1	hit	454	0
35	Single	67	229	1201	7	0	0	1014602	683	0	correct_rejection	NA	0
35	Single	68	230	1202	8	0	0	1015319	683	0	correct_rejection	NA	0
35	Single	69	231	1203	9	0	0	1016035	684	0	correct_rejection	NA	0
35	Single	70	232	1204	0	1	1	1016752	683	1	hit	443	0
35	Single	71	233	1205	4	0	0	1017469	683	0	correct_rejection	NA	0
35	Single	72	234	1206	9	0	0	1018185	684	0	correct_rejection	NA	0
35	Single	73	235	1207	5	0	0	1018902	683	0	correct_rejection	NA	0
35	Single	74	236	1208	4	0	0	1019619	683	0	correct_rejection	NA	0
35	Single	75	237	1209	4	0	0	1020335	684	0	correct_rejection	NA	0
35	Single	76	238	1210	5	0	0	1021052	683	0	correct_rejection	NA	0
35	Single	77	239	1211	0	1	1	1021769	683	1	hit	503	0
35	Single	78	240	1212	9	0	0	1022485	684	0	correct_rejection	NA	0
35	Single	79	241	1213	9	0	0	1023202	683	0	correct_rejection	NA	0
35	Single	80	242	1214	8	0	0	1023919	683	0	correct_rejection	NA	0
35	Single	81	243	1215	6	0	0	1024635	684	0	correct_rejection	NA	0
35	Single	82	244	1216	6	0	0	1025352	683	0	correct_rejection	NA	0
35	Single	83	245	1217	7	0	0	1026069	683	0	correct_rejection	NA	0
35	Single	84	246	1218	7	0	0	1026785	684	0	correct_rejection	NA	0
35	Single	85	247	1219	5	0	0	1027502	683	0	correct_rejection	NA	0
35	Single	86	248	1220	7	0	0	1028219	683	0	correct_rejection	NA	0
35	Single	87	249	1221	9	0	0	1028935	684	0	correct_rejection	NA	0
35	Single	88	250	1222	9	0	0	1029652	683	0	correct_rejection	NA	0
35	Single	89	251	1223	7	0	0	1030369	683	0	correct_rejection	NA	0
35	Single	90	252	1224	7	0	0	1031085	684	0	correct_rejection	NA	0
35	Single	91	253	1225	4	0	0	1031802	683	0	correct_rejection	NA	0
35	Single	92	254	1226	8	0	0	1032519	683	0	correct_rejection	NA	0
35	Single	93	255	1227	7	0	0	1033235	684	0	correct_rejection	NA	0
35	Single	94	256	1228	6	0	0	1033952	683	0	correct_rejection	NA	0
35	Single	95	257	1229	5	0	0	1034668	684	0	correct_rejection	NA	0
35	Single	96	258	1230	6	0	0	1035385	684	0	correct_rejection	NA	0
35	Single	97	259	1231	7	0	0	1036102	683	0	correct_rejection	NA	0
35	Single	98	260	1232	8	0	0	1036818	684	0	correct_rejection	NA	0
35	Single	99	261	1233	5	0	0	1037535	683	0	correct_rejection	NA	0
35	Single	100	262	1234	9	0	0	1038252	683	0	correct_rejection	NA	0
35	Single	101	263	1235	4	0	0	1038968	684	0	correct_rejection	NA	0
35	Single	102	264	1236	4	0	0	1039685	683	0	correct_rejection	NA	0
35	Single	103	265	1237	9	0	0	1040402	683	0	correct_rejection	NA	0
35	Single	104	266	1238	0	1	1	1041118	684	1	hit	408	0
35	Single	105	267	1239	8	0	0	1041835	683	0	correct_rejection	NA	0
35	Single	106	268	1240	9	0	0	1042552	683	0	correct_rejection	NA	0
35	Single	107	269	1241	6	0	0	1043268	684	0	correct_rejection	NA	0
35	Single	108	270	1242	9	0	0	1043985	683	0	correct_rejection	NA	0
35	Single	109	271	1243	0	1	1	1044702	683	1	hit	443	0
35	Single	110	272	1244	5	0	0	1045418	684	0	correct_rejection	NA	0
35	Single	111	273	1245	8	0	0	1046135	683	0	correct_rejection	NA	0
35	Single	112	274	1246	4	0	0	1046852	683	0	correct_rejection	NA	0
35	Single	113	275	1247	5	0	0	1047568	684	0	correct_rejection	NA	0
35	Single	114	276	1248	5	0	0	1048285	683	0	correct_rejection	NA	0
35	Single	115	277	1249	4	0	0	1049002	683	0	correct_rejection	NA	0
35	Single	116	278	1250	6	0	0	1049718	684	0	correct_rejection	NA	0
35	Single	117	279	1251	6	0	0	1050435	683	0	correct_rejection	NA	0
35	Single	118	280	1252	8	0	0	1051152	683	0	correct_rejection	NA	0
35	Single	119	281	1253	8	0	0	1051868	684	0	correct_rejection	NA	0
35	Single	120	282	1254	6	0	0	1052585	683	0	correct_rejection	NA	0
35	Single	121	283	1255	4	0	0	1053302	683	0	correct_rejection	NA	0
35	Single	122	284	1256	8	0	0	1054018	684	0	correct_rejection	NA	0
35	Single	123	285	1257	4	0	0	1054735	683	0	correct_rejection	NA	0
35	Single	124	286	1258	6	0	0	1055452	683	0	correct_rejection	NA	0
35	Single	125	287	1259	0	1	1	1056168	684	1	hit	430	0
35	Single	126	288	1260	9	0	0	1056885	683	0	correct_rejection	NA	0
35	Single	127	289	1261	8	0	0	1057602	683	0	correct_rejection	NA	0
35	Single	128	290	1262	8	0	0	1058318	684	0	correct_rejection	NA	0
35	Single	129	291	1263	0	1	1	1059035	683	1	hit	497	0
35	Single	130	292	1264	9	0	0	1059751	684	0	correct_rejection	NA	0
35	Single	131	293	1265	5	0	0	1060468	683	0	correct_rejection	NA	0
35	Single	132	294	1266	9	0	0	1061185	683	0	correct_rejection	NA	0
35	Single	133	295	1267	7	0	0	1061901	684	0	correct_rejection	NA	0
35	Single	134	296	1268	5	0	0	1062618	683	0	correct_rejection	NA	0
35	Single	135	297	1269	8	0	0	1063335	683	0	correct_rejection	NA	0
35	Single	136	298	1270	5	0	0	1064051	684	0	correct_rejection	NA	0
35	Single	137	299	1271	5	0	0	1064768	683	0	correct_rejection	NA	0
35	Single	138	300	1272	6	0	0	1065485	683	0	correct_rejection	NA	0
35	Single	139	301	1273	8	0	0	1066201	684	0	correct_rejection	NA	0
35	Single	140	302	1274	0	1	1	1066918	683	1	hit	401	0
35	Single	141	303	1275	6	0	0	1067635	683	0	correct_rejection	NA	0
35	Single	142	304	1276	7	0	0	1068351	684	0	correct_rejection	NA	0
35	Single	143	305	1277	9	0	0	1069068	683	0	correct_rejection	NA	0
35	Single	144	306	1278	6	0	0	1069785	683	0	correct_rejection	NA	0
35	Single	145	307	1279	0	1	1	1070501	684	1	hit	520	0
35	Single	146	308	1280	5	0	0	1071218	683	0	correct_rejection	NA	0
35	Single	147	309	1281	4	0	0	1071935	683	0	correct_rejection	NA	0
35	Single	148	310	1282	0	1	1	1072651	684	1	hit	425	0
35	Single	149	311	1283	5	0	0	1073368	683	0	correct_rejection	NA	0
35	Single	150	312	1284	7	0	0	1074085	683	0	correct_rejection	NA	0
35	Single	151	313	1285	8	0	0	1074801	684	0	correct_rejection	NA	0
35	Single	152	314	1286	7	0	0	1075518	683	0	correct_rejection	NA	0
35	Single	153	315	1287	4	0	0	1076235	683	0	correct_rejection	NA	0
35	Single	154	316	1288	4	0	0	1076951	684	0	correct_rejection	NA	0
35	Single	155	317	1289	7	0	0	1077668	683	0	correct_rejection	NA	0
35	Single	156	318	1290	7	0	0	1078385	683	0	correct_rejection	NA	0
35	Single	157	319	1291	6	0	0	1079101	684	0	correct_rejection	NA	0
35	Single	158	320	1292	6	0	0	1079818	683	0	correct_rejection	NA	0
35	Single	159	321	1293	4	0	0	1080535	683	0	correct_rejection	NA	0
35	Single	160	322	1294	9	0	0	1081251	684	0	correct_rejection	NA	0
35	Single	161	323	1295	9	0	0	1081968	683	0	correct_rejection	NA	0
35	Single	162	324	1296	4	0	0	1082684	684	0	correct_rejection	NA	0
35	Nonet	1	325	1297	4	0	0	1092834	684	0	correct_rejection	NA	7537
35	Nonet	2	326	1298	5	0	0	1093551	683	0	correct_rejection	NA	0
35	Nonet	3	327	1299	6	0	0	1094268	683	0	correct_rejection	NA	0
35	Nonet	4	328	1300	4	0	0	1094984	684	0	correct_rejection	NA	0
35	Nonet	5	329	1301	5	0	0	1095701	683	0	correct_rejection	NA	0
35	Nonet	6	330	1302	6	0	0	1096418	683	0	correct_rejection	NA	0
35	Nonet	7	331	1303	0	1	2	1097134	684	1	hit	489	0
35	Nonet	8	332	1304	4	0	0	1097851	683	0	correct_rejection	NA	0
35	Nonet	9	333	1305	5	0	0	1098568	683	0	correct_rejection	NA	0
35	Nonet	10	334	1306	6	0	0	1099284	684	0	correct_rejection	NA	0
35	Nonet	11	335	1307	6	0	0	1100001	683	0	correct_rejection	NA	0
35	Nonet	12	336	1308	0	1	1	1100718	683	1	hit	405	0
35	Nonet	13	337	1309	5	0	0	1101434	684	0	correct_rejection	NA	0
35	Nonet	14	338	1310	4	0	0	1102151	683	0	correct_rejection	NA	0
35	Nonet	15	339	1311	6	0	0	1102868	683	0	correct_rejection	NA	0
35	Nonet	16	340	1312	5	0	0	1103584	684	0	correct_rejection	NA	0
35	Nonet	17	341	1313	4	0	0	1104301	683	0	correct_rejection	NA	0
35	Nonet	18	342	1314	6	0	0	1105018	683	0	correct_rejection	NA	0
35	Nonet	19	343	1315	5	0	0	1105734	684	0	correct_rejection	NA	0
35	Nonet	20	344	1316	4	0	0	1106451	683	0	correct_rejection	NA	0
35	Nonet	21	345	1317	4	0	0	1107167	684	0	correct_rejection	NA	0
35	Nonet	22	346	1318	5	0	0	1107884	684	0	correct_rejection	NA	0
35	Nonet	23	347	1319	6	0	0	1108601	683	0	correct_rejection	NA	0
35	Nonet	24	348	1320	4	0	0	1109317	684	0	correct_rejection	NA	0
35	Nonet	25	349	1321	0	1	1	1110034	683	1	hit	481	0
35	Nonet	26	350	1322	5	0	0	1110751	683	0	correct_rejection	NA	0
35	Nonet	27	351	1323	6	0	0	1111467	684	0	correct_rejection	NA	0
35	Nonet	28	352	1324	4	0	0	1112184	683	0	correct_rejection	NA	0
35	Nonet	29	353	1325	5	0	0	1112901	683	0	correct_rejection	NA	0
35	Nonet	30	354	1326	6	0	0	1113617	684	0	correct_rejection	NA	0
35	Nonet	31	355	1327	9	0	0	1114334	683	0	correct_rejection	NA	0
35	Nonet	32	356	1328	8	0	0	1115051	683	0	correct_rejection	NA	0
35	Nonet	33	357	1329	7	0	0	1115767	684	0	correct_rejection	NA	0
35	Nonet	34	358	1330	9	0	0	1116484	683	0	correct_rejection	NA	0
35	Nonet	35	359	1331	8	0	0	1117201	683	0	correct_rejection	NA	0
35	Nonet	36	360	1332	7	0	0	1117917	684	0	correct_rejection	NA	0
35	Nonet	37	361	1333	9	0	0	1118634	683	0	correct_rejection	NA	0
35	Nonet	38	362	1334	8	0	0	1119351	683	0	correct_rejection	NA	0
35	Nonet	39	363	1335	7	0	0	1120067	684	0	correct_rejection	NA	0
35	Nonet	40	364	1336	4	0	0	1120784	683	0	correct_rejection	NA	0
35	Nonet	41	365	1337	5	0	0	1121501	683	0	correct_rejection	NA	0
35	Nonet	42	366	1338	6	0	0	1122217	684	0	correct_rejection	NA	0
35	Nonet	43	367	1339	4	0	0	1122934	683	0	correct_rejection	NA	0
35	Nonet	44	368	1340	5	0	0	1123651	683	0	correct_rejection	NA	0
35	Nonet	45	369	1341	0	1	1	1124367	684	1	hit	524	0
35	Nonet	46	370	1342	6	0	0	1125084	683	0	correct_rejection	NA	0
35	Nonet	47	371	1343	4	0	0	1125801	683	0	correct_rejection	NA	0
35	Nonet	48	372	1344	5	0	0	1126517	684	0	correct_rejection	NA	0
35	Nonet	49	373	1345	6	0	0	1127234	683	0	correct_rejection	NA	0
35	Nonet	50	374	1346	7	0	0	1127951	683	0	correct_rejection	NA	0
35	Nonet	51	375	1347	0	1	1	1128667	684	1	hit	390	0
35	Nonet	52	376	1348	8	0	0	1129384	683	0	correct_rejection	NA	0
35	Nonet	53	377	1349	9	0	0	1130101	683	0	correct_rejection	NA	0
35	Nonet	54	378	1350	7	0	0	1130817	684	0	correct_rejection	NA	0
35	Nonet	55	379	1351	8	0	0	1131534	683	0	correct_rejection	NA	0
35	Nonet	56	380	1352	9	0	0	1132250	684	0	correct_rejection	NA	0
35	Nonet	57	381	1353	7	0	0	1132967	683	0	correct_rejection	NA	0
35	Nonet	58	382	1354	8	0	0	1133684	683	0	correct_rejection	NA	0
35	Nonet	59	383	1355	9	0	0	1134400	684	0	correct_rejection	NA	0
35	Nonet	60	384	1356	9	0	0	1135117	683	0	correct_rejection	NA	0
35	Nonet	61	385	1357	8	0	0	1135834	683	0	correct_rejection	NA	0
35	Nonet	62	386	1358	7	0	0	1136550	684	0	correct_rejection	NA	0
35	Nonet	63	387	1359	9	0	0	1137267	683	0	correct_rejection	NA	0
35	Nonet	64	388	1360	8	0	0	1137984	683	0	correct_rejection	NA	0
35	Nonet	65	389	1361	0	1	1	1138700	684	1	hit	488	0
35	Nonet	66	390	1362	7	0	0	1139417	683	0	correct_rejection	NA	0
35	Nonet	67	391	1363	9	0	0	1140134	683	0	correct_rejection	NA	0
35	Nonet	68	392	1364	8	0	0	1140850	684	0	correct_rejection	NA	0
35	Nonet	69	393	1365	7	0	0	1141567	683	0	correct_rejection	NA	0
35	Nonet	70	394	1366	0	1	3	1142284	683	1	hit	523	0
35	Nonet	71	395	1367	9	0	0	1143000	684	0	correct_rejection	NA	0
35	Nonet	72	396	1368	8	0	0	1143717	683	0	correct_rejection	NA	0
35	Nonet	73	397	1369	7	0	0	1144434	683	0	correct_rejection	NA	0
35	Nonet	74	398	1370	9	0	0	1145150	684	0	correct_rejection	NA	0
35	Nonet	75	399	1371	8	0	0	1145867	683	0	correct_rejection	NA	0
35	Nonet	76	400	1372	7	0	0	1146584	683	0	correct_rejection	NA	0
35	Nonet	77	401	1373	9	0	0	1147300	684	0	correct_rejection	NA	0
35	Nonet	78	402	1374	0	1	1	1148017	683	1	hit	393	0
35	Nonet	79	403	1375	8	0	0	1148734	683	0	correct_rejection	NA	0
35	Nonet	80	404	1376	7	0	0	1149450	684	0	correct_rejection	NA	0
35	Nonet	81	405	1377	6	0	0	1150167	683	0	correct_rejection	NA	0
35	Nonet	82	406	1378	5	0	0	1150884	683	0	correct_rejection	NA	0
35	Nonet	83	407	1379	4	0	0	1151600	684	0	correct_rejection	NA	0
35	Nonet	84	408	1380	0	1	2	1152317	683	1	hit	397	0
35	Nonet	85	409	1381	6	0	0	1153034	683	0	correct_rejection	NA	0
35	Nonet	86	410	1382	5	0	0	1153750	684	0	correct_rejection	NA	0
35	Nonet	87	411	1383	4	0	0	1154467	683	0	correct_rejection	NA	0
35	Nonet	88	412	1384	6	0	0	1155183	684	0	correct_rejection	NA	0
35	Nonet	89	413	1385	5	0	0	1155900	684	0	correct_rejection	NA	0
35	Nonet	90	414	1386	4	0	0	1156617	683	0	correct_rejection	NA	0
35	Nonet	91	415	1387	7	0	0	1157333	684	0	correct_rejection	NA	0
35	Nonet	92	416	1388	8	0	0	1158050	683	0	correct_rejection	NA	0
35	Nonet	93	417	1389	9	0	0	1158767	683	0	correct_rejection	NA	0
35	Nonet	94	418	1390	7	0	0	1159483	684	0	correct_rejection	NA	0
35	Nonet	95	419	1391	8	0	0	1160200	683	0	correct_rejection	NA	0
35	Nonet	96	420	1392	9	0	0	1160917	683	0	correct_rejection	NA	0
35	Nonet	97	421	1393	7	0	0	1161633	684	0	correct_rejection	NA	0
35	Nonet	98	422	1394	8	0	0	1162350	683	0	correct_rejection	NA	0
35	Nonet	99	423	1395	9	0	0	1163067	683	0	correct_rejection	NA	0
35	Nonet	100	424	1396	6	0	0	1163783	684	0	correct_rejection	NA	0
35	Nonet	101	425	1397	0	1	1	1164500	683	1	hit	609	0
35	Nonet	102	426	1398	5	0	0	1165217	683	0	correct_rejection	NA	0
35	Nonet	103	427	1399	4	0	0	1165933	684	0	correct_rejection	NA	0
35	Nonet	104	428	1400	6	0	0	1166650	683	0	correct_rejection	NA	0
35	Nonet	105	429	1401	5	0	0	1167367	683	0	correct_rejection	NA	0
35	Nonet	106	430	1402	4	0	0	1168083	684	0	correct_rejection	NA	0
35	Nonet	107	431	1403	6	0	0	1168800	683	0	correct_rejection	NA	0
35	Nonet	108	432	1404	5	0	0	1169517	683	0	correct_rejection	NA	0
35	Nonet	109	433	1405	4	0	0	1170233	684	0	correct_rejection	NA	0
35	Nonet	110	434	1406	0	1	3	1170950	683	1	hit	429	0
35	Nonet	111	435	1407	6	0	0	1171667	683	0	correct_rejection	NA	0
35	Nonet	112	436	1408	5	0	0	1172383	684	0	correct_rejection	NA	0
35	Nonet	113	437	1409	0	1	1	1173100	683	1	hit	457	0
35	Nonet	114	438	1410	4	0	0	1173817	683	0	correct_rejection	NA	0
35	Nonet	115	439	1411	6	0	0	1174533	684	0	correct_rejection	NA	0
35	Nonet	116	440	1412	5	0	0	1175250	683	0	correct_rejection	NA	0
35	Nonet	117	441	1413	4	0	0	1175967	683	0	correct_rejection	NA	0
35	Nonet	118	442	1414	6	0	0	1176683	684	0	correct_rejection	NA	0
35	Nonet	119	443	1415	5	0	0	1177400	683	0	correct_rejection	NA	0
35	Nonet	120	444	1416	4	0	0	1178117	683	0	correct_rejection	NA	0
35	Nonet	121	445	1417	9	0	0	1178833	684	0	correct_rejection	NA	0
35	Nonet	122	446	1418	8	0	0	1179550	683	0	correct_rejection	NA	0
35	Nonet	123	447	1419	0	1	1	1180266	684	1	hit	447	0
35	Nonet	124	448	1420	7	0	0	1180983	683	0	correct_rejection	NA	0
35	Nonet	125	449	1421	9	0	0	1181700	683	0	correct_rejection	NA	0
35	Nonet	126	450	1422	8	0	0	1182416	684	0	correct_rejection	NA	0
35	Nonet	127	451	1423	7	0	0	1183133	683	0	correct_rejection	NA	0
35	Nonet	128	452	1424	9	0	0	1183850	683	0	correct_rejection	NA	0
35	Nonet	129	453	1425	8	0	0	1184566	684	0	correct_rejection	NA	0
35	Nonet	130	454	1426	7	0	0	1185283	683	0	correct_rejection	NA	0
35	Nonet	131	455	1427	0	1	3	1186000	683	1	hit	456	0
35	Nonet	132	456	1428	7	0	0	1186716	684	0	correct_rejection	NA	0
35	Nonet	133	457	1429	8	0	0	1187433	683	0	correct_rejection	NA	0
35	Nonet	134	458	1430	9	0	0	1188150	683	0	correct_rejection	NA	0
35	Nonet	135	459	1431	7	0	0	1188866	684	0	correct_rejection	NA	0
35	Nonet	136	460	1432	8	0	0	1189583	683	0	correct_rejection	NA	0
35	Nonet	137	461	1433	0	1	1	1190300	683	1	hit	411	0
35	Nonet	138	462	1434	9	0	0	1191016	684	0	correct_rejection	NA	0
35	Nonet	139	463	1435	7	0	0	1191733	683	0	correct_rejection	NA	0
35	Nonet	140	464	1436	8	0	0	1192450	683	0	correct_rejection	NA	0
35	Nonet	141	465	1437	9	0	0	1193166	684	0	correct_rejection	NA	0
35	Nonet	142	466	1438	0	1	3	1193883	683	1	hit	378	0
35	Nonet	143	467	1439	7	0	0	1194600	683	0	correct_rejection	NA	0
35	Nonet	144	468	1440	8	0	0	1195316	684	0	correct_rejection	NA	0
35	Nonet	145	469	1441	9	0	0	1196033	683	0	correct_rejection	NA	0
35	Nonet	146	470	1442	7	0	0	1196750	683	0	correct_rejection	NA	0
35	Nonet	147	471	1443	8	0	0	1197466	684	0	correct_rejection	NA	0
35	Nonet	148	472	1444	9	0	0	1198183	683	0	correct_rejection	NA	0
35	Nonet	149	473	1445	7	0	0	1198900	683	0	correct_rejection	NA	0
35	Nonet	150	474	1446	8	0	0	1199616	684	0	correct_rejection	NA	0
35	Nonet	151	475	1447	9	0	0	1200333	683	0	correct_rejection	NA	0
35	Nonet	152	476	1448	4	0	0	1201050	683	0	correct_rejection	NA	0
35	Nonet	153	477	1449	5	0	0	1201766	684	0	correct_rejection	NA	0
35	Nonet	154	478	1450	0	1	1	1202483	683	1	hit	397	0
35	Nonet	155	479	1451	6	0	0	1203199	684	0	correct_rejection	NA	0
35	Nonet	156	480	1452	4	0	0	1203916	684	0	correct_rejection	NA	0
35	Nonet	157	481	1453	0	1	1	1204633	683	1	hit	443	0
35	Nonet	158	482	1454	5	0	0	1205349	684	0	correct_rejection	NA	0
35	Nonet	159	483	1455	6	0	0	1206066	683	0	correct_rejection	NA	0
35	Nonet	160	484	1456	4	0	0	1206783	683	0	correct_rejection	NA	0
35	Nonet	161	485	1457	5	0	0	1207499	684	0	correct_rejection	NA	0
35	Nonet	162	486	1458	6	0	0	1208216	683	0	correct_rejection	NA	0
35	Single	1	649	1459	8	0	0	1217633	683	0	correct_rejection	NA	7336
35	Single	2	650	1460	9	0	0	1218349	684	0	correct_rejection	NA	0
35	Single	3	651	1461	8	0	0	1219066	683	0	correct_rejection	NA	0
35	Single	4	652	1462	5	0	0	1219783	683	0	correct_rejection	NA	0
35	Single	5	653	1463	4	0	0	1220499	684	0	correct_rejection	NA	0
35	Single	6	654	1464	4	0	0	1221216	683	0	correct_rejection	NA	0
35	Single	7	655	1465	9	0	0	1221933	683	0	correct_rejection	NA	0
35	Single	8	656	1466	9	0	0	1222649	684	0	correct_rejection	NA	0
35	Single	9	657	1467	4	0	0	1223366	683	0	correct_rejection	NA	0
35	Single	10	658	1468	7	0	0	1224083	683	0	correct_rejection	NA	0
35	Single	11	659	1469	4	0	0	1224799	684	0	correct_rejection	NA	0
35	Single	12	660	1470	5	0	0	1225516	683	0	correct_rejection	NA	0
35	Single	13	661	1471	7	0	0	1226233	683	0	correct_rejection	NA	0
35	Single	14	662	1472	6	0	0	1226949	684	0	correct_rejection	NA	0
35	Single	15	663	1473	8	0	0	1227666	683	0	correct_rejection	NA	0
35	Single	16	664	1474	7	0	0	1228382	684	0	correct_rejection	NA	0
35	Single	17	665	1475	5	0	0	1229099	684	0	correct_rejection	NA	0
35	Single	18	666	1476	5	0	0	1229816	683	0	correct_rejection	NA	0
35	Single	19	667	1477	9	0	0	1230532	684	0	correct_rejection	NA	0
35	Single	20	668	1478	5	0	0	1231249	683	0	correct_rejection	NA	0
35	Single	21	669	1479	0	1	1	1231966	683	1	hit	441	0
35	Single	22	670	1480	8	0	0	1232682	684	0	correct_rejection	NA	0
35	Single	23	671	1481	6	0	0	1233399	683	0	correct_rejection	NA	0
35	Single	24	672	1482	5	0	0	1234116	683	0	correct_rejection	NA	0
35	Single	25	673	1483	6	0	0	1234832	684	0	correct_rejection	NA	0
35	Single	26	674	1484	6	0	0	1235549	683	0	correct_rejection	NA	0
35	Single	27	675	1485	7	0	0	1236266	683	0	correct_rejection	NA	0
35	Single	28	676	1486	9	0	0	1236982	684	0	correct_rejection	NA	0
35	Single	29	677	1487	6	0	0	1237699	683	0	correct_rejection	NA	0
35	Single	30	678	1488	9	0	0	1238416	683	0	correct_rejection	NA	0
35	Single	31	679	1489	7	0	0	1239132	684	0	correct_rejection	NA	0
35	Single	32	680	1490	7	0	0	1239849	683	0	correct_rejection	NA	0
35	Single	33	681	1491	0	1	1	1240566	683	1	hit	472	0
35	Single	34	682	1492	8	0	0	1241282	684	0	correct_rejection	NA	0
35	Single	35	683	1493	8	0	0	1241999	683	0	correct_rejection	NA	0
35	Single	36	684	1494	4	0	0	1242716	683	0	correct_rejection	NA	0
35	Single	37	685	1495	6	0	0	1243432	684	0	correct_rejection	NA	0
35	Single	38	686	1496	4	0	0	1244149	683	0	correct_rejection	NA	0
35	Single	39	687	1497	7	0	0	1244866	683	0	correct_rejection	NA	0
35	Single	40	688	1498	9	0	0	1245582	684	0	correct_rejection	NA	0
35	Single	41	689	1499	5	0	0	1246299	683	0	correct_rejection	NA	0
35	Single	42	690	1500	9	0	0	1247016	683	0	correct_rejection	NA	0
35	Single	43	691	1501	4	0	0	1247732	684	0	correct_rejection	NA	0
35	Single	44	692	1502	8	0	0	1248449	683	0	correct_rejection	NA	0
35	Single	45	693	1503	4	0	0	1249166	683	0	correct_rejection	NA	0
35	Single	46	694	1504	9	0	0	1249882	684	0	correct_rejection	NA	0
35	Single	47	695	1505	7	0	0	1250599	683	0	correct_rejection	NA	0
35	Single	48	696	1506	8	0	0	1251315	684	0	correct_rejection	NA	0
35	Single	49	697	1507	9	0	0	1252032	684	0	correct_rejection	NA	0
35	Single	50	698	1508	6	0	0	1252749	683	0	correct_rejection	NA	0
35	Single	51	699	1509	8	0	0	1253465	684	0	correct_rejection	NA	0
35	Single	52	700	1510	8	0	0	1254182	683	0	correct_rejection	NA	0
35	Single	53	701	1511	5	0	0	1254899	683	0	correct_rejection	NA	0
35	Single	54	702	1512	8	0	0	1255615	684	0	correct_rejection	NA	0
35	Single	55	703	1513	7	0	0	1256332	683	0	correct_rejection	NA	0
35	Single	56	704	1514	7	0	0	1257049	683	0	correct_rejection	NA	0
35	Single	57	705	1515	4	0	0	1257765	684	0	correct_rejection	NA	0
35	Single	58	706	1516	0	1	1	1258482	683	1	hit	430	0
35	Single	59	707	1517	4	0	0	1259199	683	0	correct_rejection	NA	0
35	Single	60	708	1518	6	0	0	1259915	684	0	correct_rejection	NA	0
35	Single	61	709	1519	5	0	0	1260632	683	0	correct_rejection	NA	0
35	Single	62	710	1520	4	0	0	1261349	683	0	correct_rejection	NA	0
35	Single	63	711	1521	7	0	0	1262065	684	0	correct_rejection	NA	0
35	Single	64	712	1522	6	0	0	1262782	683	0	correct_rejection	NA	0
35	Single	65	713	1523	6	0	0	1263499	683	0	correct_rejection	NA	0
35	Single	66	714	1524	9	0	0	1264215	684	0	correct_rejection	NA	0
35	Single	67	715	1525	0	1	1	1264932	683	1	hit	460	0
35	Single	68	716	1526	9	0	0	1265649	683	0	correct_rejection	NA	0
35	Single	69	717	1527	8	0	0	1266365	684	0	correct_rejection	NA	0
35	Single	70	718	1528	0	1	1	1267082	683	1	hit	611	0
35	Single	71	719	1529	6	0	0	1267799	683	0	correct_rejection	NA	0
35	Single	72	720	1530	4	0	0	1268515	684	0	correct_rejection	NA	0
35	Single	73	721	1531	5	0	0	1269232	683	0	correct_rejection	NA	0
35	Single	74	722	1532	5	0	0	1269949	683	0	correct_rejection	NA	0
35	Single	75	723	1533	0	1	1	1270665	684	1	hit	401	0
35	Single	76	724	1534	6	0	0	1271382	683	0	correct_rejection	NA	0
35	Single	77	725	1535	7	0	0	1272099	683	0	correct_rejection	NA	0
35	Single	78	726	1536	0	1	1	1272815	684	1	hit	363	0
35	Single	79	727	1537	5	0	0	1273532	683	0	correct_rejection	NA	0
35	Single	80	728	1538	5	0	0	1274249	683	0	correct_rejection	NA	0
35	Single	81	729	1539	4	0	0	1274965	684	0	correct_rejection	NA	0
35	Single	82	730	1540	0	1	1	1275682	683	1	hit	386	0
35	Single	83	731	1541	9	0	0	1276398	684	0	correct_rejection	NA	0
35	Single	84	732	1542	5	0	0	1277115	684	0	correct_rejection	NA	0
35	Single	85	733	1543	6	0	0	1277832	683	0	correct_rejection	NA	0
35	Single	86	734	1544	4	0	0	1278548	684	0	correct_rejection	NA	0
35	Single	87	735	1545	0	1	1	1279265	683	1	hit	423	0
35	Single	88	736	1546	7	0	0	1279982	683	0	correct_rejection	NA	0
35	Single	89	737	1547	9	0	0	1280698	684	0	correct_rejection	NA	0
35	Single	90	738	1548	8	0	0	1281415	683	0	correct_rejection	NA	0
35	Single	91	739	1549	8	0	0	1282132	683	0	correct_rejection	NA	0
35	Single	92	740	1550	7	0	0	1282848	684	0	correct_rejection	NA	0
35	Single	93	741	1551	8	0	0	1283565	683	0	correct_rejection	NA	0
35	Single	94	742	1552	0	1	1	1284282	683	1	hit	469	0
35	Single	95	743	1553	4	0	0	1284998	684	0	correct_rejection	NA	0
35	Single	96	744	1554	8	0	0	1285715	683	0	correct_rejection	NA	0
35	Single	97	745	1555	5	0	0	1286432	683	0	correct_rejection	NA	0
35	Single	98	746	1556	5	0	0	1287148	684	0	correct_rejection	NA	0
35	Single	99	747	1557	8	0	0	1287865	683	0	correct_rejection	NA	0
35	Single	100	748	1558	9	0	0	1288582	683	0	correct_rejection	NA	0
35	Single	101	749	1559	4	0	0	1289298	684	0	correct_rejection	NA	0
35	Single	102	750	1560	4	0	0	1290015	683	0	correct_rejection	NA	0
35	Single	103	751	1561	0	1	1	1290732	683	1	hit	443	0
35	Single	104	752	1562	5	0	0	1291448	684	0	correct_rejection	NA	0
35	Single	105	753	1563	9	0	0	1292165	683	0	correct_rejection	NA	0
35	Single	106	754	1564	9	0	0	1292882	683	0	correct_rejection	NA	0
35	Single	107	755	1565	7	0	0	1293598	684	0	correct_rejection	NA	0
35	Single	108	756	1566	6	0	0	1294315	683	0	correct_rejection	NA	0
35	Single	109	757	1567	7	0	0	1295032	683	0	correct_rejection	NA	0
35	Single	110	758	1568	7	0	0	1295748	684	0	correct_rejection	NA	0
35	Single	111	759	1569	5	0	0	1296465	683	0	correct_rejection	NA	0
35	Single	112	760	1570	0	1	1	1297182	683	1	hit	449	0
35	Single	113	761	1571	7	0	0	1297898	684	0	correct_rejection	NA	0
35	Single	114	762	1572	4	0	0	1298615	683	0	correct_rejection	NA	0
35	Single	115	763	1573	6	0	0	1299332	683	0	correct_rejection	NA	0
35	Single	116	764	1574	9	0	0	1300048	684	0	correct_rejection	NA	0
35	Single	117	765	1575	6	0	0	1300765	683	0	correct_rejection	NA	0
35	Single	118	766	1576	6	0	0	1301481	684	0	correct_rejection	NA	0
35	Single	119	767	1577	8	0	0	1302198	683	0	correct_rejection	NA	0
35	Single	120	768	1578	6	0	0	1302915	683	0	correct_rejection	NA	0
35	Single	121	769	1579	0	1	1	1303631	684	1	hit	421	0
35	Single	122	770	1580	7	0	0	1304348	683	0	correct_rejection	NA	0
35	Single	123	771	1581	7	0	0	1305065	683	0	correct_rejection	NA	0
35	Single	124	772	1582	8	0	0	1305781	684	0	correct_rejection	NA	0
35	Single	125	773	1583	7	0	0	1306498	683	0	correct_rejection	NA	0
35	Single	126	774	1584	6	0	0	1307215	683	0	correct_rejection	NA	0
35	Single	127	775	1585	9	0	0	1307931	684	0	correct_rejection	NA	0
35	Single	128	776	1586	7	0	0	1308648	683	0	correct_rejection	NA	0
35	Single	129	777	1587	0	1	1	1309365	683	1	hit	413	0
35	Single	130	778	1588	4	0	0	1310081	684	0	correct_rejection	NA	0
35	Single	131	779	1589	9	0	0	1310798	683	0	correct_rejection	NA	0
35	Single	132	780	1590	6	0	0	1311515	683	0	correct_rejection	NA	0
35	Single	133	781	1591	5	0	0	1312231	684	0	correct_rejection	NA	0
35	Single	134	782	1592	6	0	0	1312948	683	0	correct_rejection	NA	0
35	Single	135	783	1593	0	1	1	1313665	683	1	hit	443	0
35	Single	136	784	1594	6	0	0	1314381	684	0	correct_rejection	NA	0
35	Single	137	785	1595	7	0	0	1315098	683	0	correct_rejection	NA	0
35	Single	138	786	1596	9	0	0	1315815	683	0	correct_rejection	NA	0
35	Single	139	787	1597	9	0	0	1316531	684	0	correct_rejection	NA	0
35	Single	140	788	1598	4	0	0	1317248	683	0	correct_rejection	NA	0
