ID	block	trial_block	trial_cat	trial_total	number	violation	level_violation	onset	duration	Response	Hit_Miss	RT	pre_trial_fixcross_ISI
first_trigger_at: 11214
trigger nr 3 at 13214
36	Correct	1	649	1	4	0	0	21249	684	0	correct_rejection	NA	7957
36	Correct	2	650	2	5	0	0	21966	683	0	correct_rejection	NA	0
36	Correct	3	651	3	6	0	0	22683	683	0	correct_rejection	NA	0
36	Correct	4	652	4	4	0	0	23399	684	0	correct_rejection	NA	0
36	Correct	5	653	5	5	0	0	24116	683	0	correct_rejection	NA	0
36	Correct	6	654	6	6	0	0	24833	683	0	correct_rejection	NA	0
36	Correct	7	655	7	4	0	0	25549	684	0	correct_rejection	NA	0
36	Correct	8	656	8	5	0	0	26266	683	0	correct_rejection	NA	0
36	Correct	9	657	9	6	0	0	26982	684	0	correct_rejection	NA	0
36	Correct	10	658	10	6	0	0	27699	683	0	correct_rejection	NA	0
36	Correct	11	659	11	5	0	0	28416	683	0	correct_rejection	NA	0
36	Correct	12	660	12	4	0	0	29132	684	0	correct_rejection	NA	0
36	Correct	13	661	13	6	0	0	29849	683	0	correct_rejection	NA	0
36	Correct	14	662	14	5	0	0	30566	683	0	correct_rejection	NA	0
36	Correct	15	663	15	4	0	0	31282	684	0	correct_rejection	NA	0
36	Correct	16	664	16	6	0	0	31999	683	0	correct_rejection	NA	0
36	Correct	17	665	17	5	0	0	32716	683	0	correct_rejection	NA	0
36	Correct	18	666	18	4	0	0	33432	684	0	correct_rejection	NA	0
36	Correct	19	667	19	9	0	0	34149	683	0	correct_rejection	NA	0
36	Correct	20	668	20	8	0	0	34866	683	0	correct_rejection	NA	0
36	Correct	21	669	21	7	0	0	35582	684	0	correct_rejection	NA	0
36	Correct	22	670	22	0	1	2	36299	683	1	hit	384	0
36	Correct	23	671	23	9	0	0	37016	683	0	correct_rejection	NA	0
36	Correct	24	672	24	8	0	0	37732	684	0	correct_rejection	NA	0
36	Correct	25	673	25	7	0	0	38449	683	0	correct_rejection	NA	0
36	Correct	26	674	26	9	0	0	39166	683	0	correct_rejection	NA	0
36	Correct	27	675	27	8	0	0	39882	684	0	correct_rejection	NA	0
36	Correct	28	676	28	7	0	0	40599	683	0	correct_rejection	NA	0
36	Correct	29	677	29	7	0	0	41316	683	0	correct_rejection	NA	0
36	Correct	30	678	30	8	0	0	42032	684	0	correct_rejection	NA	0
36	Correct	31	679	31	9	0	0	42749	683	0	correct_rejection	NA	0
36	Correct	32	680	32	7	0	0	43466	683	0	correct_rejection	NA	0
36	Correct	33	681	33	8	0	0	44182	684	0	correct_rejection	NA	0
36	Correct	34	682	34	9	0	0	44899	683	0	correct_rejection	NA	0
36	Correct	35	683	35	0	1	2	45616	683	0	miss	NA	0
36	Correct	36	684	36	7	0	0	46332	684	0	correct_rejection	NA	0
36	Correct	37	685	37	8	0	0	47049	683	0	correct_rejection	NA	0
36	Correct	38	686	38	9	0	0	47766	683	0	correct_rejection	NA	0
36	Correct	39	687	39	0	1	4	48482	684	1	hit	446	0
36	Correct	40	688	40	4	0	0	49199	683	0	correct_rejection	NA	0
36	Correct	41	689	41	5	0	0	49916	683	0	correct_rejection	NA	0
36	Correct	42	690	42	6	0	0	50632	684	0	correct_rejection	NA	0
36	Correct	43	691	43	4	0	0	51349	683	0	correct_rejection	NA	0
36	Correct	44	692	44	0	1	1	52066	683	1	hit	373	0
36	Correct	45	693	45	5	0	0	52782	684	0	correct_rejection	NA	0
36	Correct	46	694	46	6	0	0	53499	683	0	correct_rejection	NA	0
36	Correct	47	695	47	4	0	0	54216	683	0	correct_rejection	NA	0
36	Correct	48	696	48	5	0	0	54932	684	0	correct_rejection	NA	0
36	Correct	49	697	49	6	0	0	55649	683	0	correct_rejection	NA	0
36	Correct	50	698	50	6	0	0	56365	684	0	correct_rejection	NA	0
36	Correct	51	699	51	5	0	0	57082	683	0	correct_rejection	NA	0
36	Correct	52	700	52	4	0	0	57799	683	0	correct_rejection	NA	0
36	Correct	53	701	53	6	0	0	58515	684	0	correct_rejection	NA	0
36	Correct	54	702	54	5	0	0	59232	683	0	correct_rejection	NA	0
36	Correct	55	703	55	4	0	0	59949	683	0	correct_rejection	NA	0
36	Correct	56	704	56	6	0	0	60665	684	0	correct_rejection	NA	0
36	Correct	57	705	57	5	0	0	61382	683	0	correct_rejection	NA	0
36	Correct	58	706	58	0	1	1	62099	683	1	hit	396	0
36	Correct	59	707	59	4	0	0	62815	684	0	correct_rejection	NA	0
36	Correct	60	708	60	9	0	0	63532	683	0	correct_rejection	NA	0
36	Correct	61	709	61	8	0	0	64249	683	0	correct_rejection	NA	0
36	Correct	62	710	62	7	0	0	64965	684	0	correct_rejection	NA	0
36	Correct	63	711	63	9	0	0	65682	683	0	correct_rejection	NA	0
36	Correct	64	712	64	0	1	1	66399	683	1	hit	376	0
36	Correct	65	713	65	8	0	0	67115	684	0	correct_rejection	NA	0
36	Correct	66	714	66	7	0	0	67832	683	0	correct_rejection	NA	0
36	Correct	67	715	67	9	0	0	68549	683	0	correct_rejection	NA	0
36	Correct	68	716	68	8	0	0	69265	684	0	correct_rejection	NA	0
36	Correct	69	717	69	7	0	0	69982	683	0	correct_rejection	NA	0
36	Correct	70	718	70	7	0	0	70699	683	0	correct_rejection	NA	0
36	Correct	71	719	71	8	0	0	71415	684	0	correct_rejection	NA	0
36	Correct	72	720	72	9	0	0	72132	683	0	correct_rejection	NA	0
36	Correct	73	721	73	7	0	0	72849	683	0	correct_rejection	NA	0
36	Correct	74	722	74	8	0	0	73565	684	0	correct_rejection	NA	0
36	Correct	75	723	75	9	0	0	74282	683	0	correct_rejection	NA	0
36	Correct	76	724	76	7	0	0	74999	683	0	correct_rejection	NA	0
36	Correct	77	725	77	0	1	1	75715	684	1	hit	406	0
36	Correct	78	726	78	8	0	0	76432	683	0	correct_rejection	NA	0
36	Correct	79	727	79	9	0	0	77149	683	0	correct_rejection	NA	0
36	Correct	80	728	80	4	0	0	77865	684	0	correct_rejection	NA	0
36	Correct	81	729	81	5	0	0	78582	683	0	correct_rejection	NA	0
36	Correct	82	730	82	6	0	0	79299	683	0	correct_rejection	NA	0
36	Correct	83	731	83	4	0	0	80015	684	0	correct_rejection	NA	0
36	Correct	84	732	84	5	0	0	80732	683	0	correct_rejection	NA	0
36	Correct	85	733	85	6	0	0	81449	683	0	correct_rejection	NA	0
36	Correct	86	734	86	4	0	0	82165	684	0	correct_rejection	NA	0
36	Correct	87	735	87	5	0	0	82882	683	0	correct_rejection	NA	0
36	Correct	88	736	88	6	0	0	83598	684	0	correct_rejection	NA	0
36	Correct	89	737	89	6	0	0	84315	683	0	correct_rejection	NA	0
36	Correct	90	738	90	5	0	0	85032	683	0	correct_rejection	NA	0
36	Correct	91	739	91	4	0	0	85748	684	0	correct_rejection	NA	0
36	Correct	92	740	92	6	0	0	86465	683	0	correct_rejection	NA	0
36	Correct	93	741	93	0	1	1	87182	683	1	hit	408	0
36	Correct	94	742	94	5	0	0	87898	684	0	correct_rejection	NA	0
36	Correct	95	743	95	4	0	0	88615	683	0	correct_rejection	NA	0
36	Correct	96	744	96	6	0	0	89332	683	0	correct_rejection	NA	0
36	Correct	97	745	97	5	0	0	90048	684	0	correct_rejection	NA	0
36	Correct	98	746	98	4	0	0	90765	683	0	correct_rejection	NA	0
36	Correct	99	747	99	0	1	3	91482	683	1	hit	421	0
36	Correct	100	748	100	9	0	0	92198	684	0	correct_rejection	NA	0
36	Correct	101	749	101	8	0	0	92915	683	0	correct_rejection	NA	0
36	Correct	102	750	102	7	0	0	93632	683	0	correct_rejection	NA	0
36	Correct	103	751	103	9	0	0	94348	684	0	correct_rejection	NA	0
36	Correct	104	752	104	8	0	0	95065	683	0	correct_rejection	NA	0
36	Correct	105	753	105	7	0	0	95782	683	0	correct_rejection	NA	0
36	Correct	106	754	106	9	0	0	96498	684	0	correct_rejection	NA	0
36	Correct	107	755	107	8	0	0	97215	683	0	correct_rejection	NA	0
36	Correct	108	756	108	7	0	0	97932	683	0	correct_rejection	NA	0
36	Correct	109	757	109	0	1	3	98648	684	1	hit	398	0
36	Correct	110	758	110	7	0	0	99365	683	0	correct_rejection	NA	0
36	Correct	111	759	111	8	0	0	100082	683	0	correct_rejection	NA	0
36	Correct	112	760	112	9	0	0	100798	684	0	correct_rejection	NA	0
36	Correct	113	761	113	0	1	2	101515	683	1	hit	434	0
36	Correct	114	762	114	7	0	0	102232	683	0	correct_rejection	NA	0
36	Correct	115	763	115	8	0	0	102948	684	0	correct_rejection	NA	0
36	Correct	116	764	116	9	0	0	103665	683	0	correct_rejection	NA	0
36	Correct	117	765	117	7	0	0	104382	683	0	correct_rejection	NA	0
36	Correct	118	766	118	8	0	0	105098	684	0	correct_rejection	NA	0
36	Correct	119	767	119	9	0	0	105815	683	0	correct_rejection	NA	0
36	Correct	120	768	120	4	0	0	106532	683	0	correct_rejection	NA	0
36	Correct	121	769	121	0	1	1	107248	684	1	hit	400	0
36	Correct	122	770	122	5	0	0	107965	683	0	correct_rejection	NA	0
36	Correct	123	771	123	6	0	0	108682	683	0	correct_rejection	NA	0
36	Correct	124	772	124	4	0	0	109398	684	0	correct_rejection	NA	0
36	Correct	125	773	125	5	0	0	110115	683	0	correct_rejection	NA	0
36	Correct	126	774	126	0	1	1	110831	684	1	hit	409	0
36	Correct	127	775	127	6	0	0	111548	684	0	correct_rejection	NA	0
36	Correct	128	776	128	4	0	0	112265	683	0	correct_rejection	NA	0
36	Correct	129	777	129	5	0	0	112981	684	0	correct_rejection	NA	0
36	Correct	130	778	130	6	0	0	113698	683	0	correct_rejection	NA	0
36	Correct	131	779	131	6	0	0	114415	683	0	correct_rejection	NA	0
36	Correct	132	780	132	5	0	0	115131	684	0	correct_rejection	NA	0
36	Correct	133	781	133	0	1	1	115848	683	0	miss	NA	0
36	Correct	134	782	134	4	0	0	116565	683	0	correct_rejection	NA	0
36	Correct	135	783	135	6	0	0	117281	684	0	correct_rejection	NA	0
36	Correct	136	784	136	0	1	1	117998	683	1	hit	404	0
36	Correct	137	785	137	5	0	0	118715	683	0	correct_rejection	NA	0
36	Correct	138	786	138	4	0	0	119431	684	0	correct_rejection	NA	0
36	Correct	139	787	139	6	0	0	120148	683	0	correct_rejection	NA	0
36	Correct	140	788	140	5	0	0	120865	683	0	correct_rejection	NA	0
36	Correct	141	789	141	4	0	0	121581	684	0	correct_rejection	NA	0
36	Correct	142	790	142	9	0	0	122298	683	0	correct_rejection	NA	0
36	Correct	143	791	143	8	0	0	123015	683	0	correct_rejection	NA	0
36	Correct	144	792	144	0	1	1	123731	684	1	hit	400	0
36	Correct	145	793	145	7	0	0	124448	683	0	correct_rejection	NA	0
36	Correct	146	794	146	9	0	0	125165	683	0	correct_rejection	NA	0
36	Correct	147	795	147	8	0	0	125881	684	0	correct_rejection	NA	0
36	Correct	148	796	148	7	0	0	126598	683	0	correct_rejection	NA	0
36	Correct	149	797	149	9	0	0	127315	683	0	correct_rejection	NA	0
36	Correct	150	798	150	8	0	0	128031	684	0	correct_rejection	NA	0
36	Correct	151	799	151	7	0	0	128748	683	0	correct_rejection	NA	0
36	Correct	152	800	152	7	0	0	129465	683	0	correct_rejection	NA	0
36	Correct	153	801	153	8	0	0	130181	684	0	correct_rejection	NA	0
36	Correct	154	802	154	9	0	0	130898	683	0	correct_rejection	NA	0
36	Correct	155	803	155	7	0	0	131615	683	0	correct_rejection	NA	0
36	Correct	156	804	156	8	0	0	132331	684	0	correct_rejection	NA	0
36	Correct	157	805	157	0	1	1	133048	683	1	hit	408	0
36	Correct	158	806	158	9	0	0	133765	683	0	correct_rejection	NA	0
36	Correct	159	807	159	7	0	0	134481	684	0	correct_rejection	NA	0
36	Correct	160	808	160	8	0	0	135198	683	0	correct_rejection	NA	0
36	Correct	161	809	161	0	1	1	135915	683	1	hit	426	0
36	Correct	162	810	162	9	0	0	136631	684	0	correct_rejection	NA	0
36	Single	1	649	163	8	0	0	146614	684	0	correct_rejection	NA	7337
36	Single	2	650	164	9	0	0	147331	683	0	correct_rejection	NA	0
36	Single	3	651	165	8	0	0	148048	683	0	correct_rejection	NA	0
36	Single	4	652	166	5	0	0	148764	684	0	correct_rejection	NA	0
36	Single	5	653	167	4	0	0	149481	683	0	correct_rejection	NA	0
36	Single	6	654	168	4	0	0	150198	683	0	correct_rejection	NA	0
36	Single	7	655	169	9	0	0	150914	684	0	correct_rejection	NA	0
36	Single	8	656	170	9	0	0	151631	683	0	correct_rejection	NA	0
36	Single	9	657	171	4	0	0	152348	683	0	correct_rejection	NA	0
36	Single	10	658	172	7	0	0	153064	684	0	correct_rejection	NA	0
36	Single	11	659	173	4	0	0	153781	683	0	correct_rejection	NA	0
36	Single	12	660	174	5	0	0	154498	683	0	correct_rejection	NA	0
36	Single	13	661	175	7	0	0	155214	684	0	correct_rejection	NA	0
36	Single	14	662	176	6	0	0	155931	683	0	correct_rejection	NA	0
36	Single	15	663	177	8	0	0	156648	683	0	correct_rejection	NA	0
36	Single	16	664	178	7	0	0	157364	684	0	correct_rejection	NA	0
36	Single	17	665	179	5	0	0	158081	683	0	correct_rejection	NA	0
36	Single	18	666	180	5	0	0	158798	683	0	correct_rejection	NA	0
36	Single	19	667	181	9	0	0	159514	684	0	correct_rejection	NA	0
36	Single	20	668	182	5	0	0	160231	683	0	correct_rejection	NA	0
36	Single	21	669	183	0	1	1	160948	683	1	hit	401	0
36	Single	22	670	184	8	0	0	161664	684	0	correct_rejection	NA	0
36	Single	23	671	185	6	0	0	162381	683	0	correct_rejection	NA	0
36	Single	24	672	186	5	0	0	163098	683	0	correct_rejection	NA	0
36	Single	25	673	187	6	0	0	163814	684	0	correct_rejection	NA	0
36	Single	26	674	188	6	0	0	164531	683	0	correct_rejection	NA	0
36	Single	27	675	189	7	0	0	165247	684	0	correct_rejection	NA	0
36	Single	28	676	190	9	0	0	165964	684	0	correct_rejection	NA	0
36	Single	29	677	191	6	0	0	166681	683	0	correct_rejection	NA	0
36	Single	30	678	192	9	0	0	167397	684	0	correct_rejection	NA	0
36	Single	31	679	193	7	0	0	168114	683	0	correct_rejection	NA	0
36	Single	32	680	194	7	0	0	168831	683	0	correct_rejection	NA	0
36	Single	33	681	195	0	1	1	169547	684	1	hit	412	0
36	Single	34	682	196	8	0	0	170264	683	0	correct_rejection	NA	0
36	Single	35	683	197	8	0	0	170981	683	0	correct_rejection	NA	0
36	Single	36	684	198	4	0	0	171697	684	0	correct_rejection	NA	0
36	Single	37	685	199	6	0	0	172414	683	0	correct_rejection	NA	0
36	Single	38	686	200	4	0	0	173131	683	0	correct_rejection	NA	0
36	Single	39	687	201	7	0	0	173847	684	0	correct_rejection	NA	0
36	Single	40	688	202	9	0	0	174564	683	0	correct_rejection	NA	0
36	Single	41	689	203	5	0	0	175281	683	0	correct_rejection	NA	0
36	Single	42	690	204	9	0	0	175997	684	0	correct_rejection	NA	0
36	Single	43	691	205	4	0	0	176714	683	0	correct_rejection	NA	0
36	Single	44	692	206	8	0	0	177431	683	0	correct_rejection	NA	0
36	Single	45	693	207	4	0	0	178147	684	0	correct_rejection	NA	0
36	Single	46	694	208	9	0	0	178864	683	0	correct_rejection	NA	0
36	Single	47	695	209	7	0	0	179581	683	0	correct_rejection	NA	0
36	Single	48	696	210	8	0	0	180297	684	0	correct_rejection	NA	0
36	Single	49	697	211	9	0	0	181014	683	0	correct_rejection	NA	0
36	Single	50	698	212	6	0	0	181731	683	0	correct_rejection	NA	0
36	Single	51	699	213	8	0	0	182447	684	0	correct_rejection	NA	0
36	Single	52	700	214	8	0	0	183164	683	0	correct_rejection	NA	0
36	Single	53	701	215	5	0	0	183881	683	0	correct_rejection	NA	0
36	Single	54	702	216	8	0	0	184597	684	0	correct_rejection	NA	0
36	Single	55	703	217	7	0	0	185314	683	0	correct_rejection	NA	0
36	Single	56	704	218	7	0	0	186031	683	0	correct_rejection	NA	0
36	Single	57	705	219	4	0	0	186747	684	0	correct_rejection	NA	0
36	Single	58	706	220	0	1	1	187464	683	1	hit	436	0
36	Single	59	707	221	4	0	0	188181	683	0	correct_rejection	NA	0
36	Single	60	708	222	6	0	0	188897	684	0	correct_rejection	NA	0
36	Single	61	709	223	5	0	0	189614	683	0	correct_rejection	NA	0
36	Single	62	710	224	4	0	0	190331	683	0	correct_rejection	NA	0
36	Single	63	711	225	7	0	0	191047	684	0	correct_rejection	NA	0
36	Single	64	712	226	6	0	0	191764	683	0	correct_rejection	NA	0
36	Single	65	713	227	6	0	0	192481	683	0	correct_rejection	NA	0
36	Single	66	714	228	9	0	0	193197	684	0	correct_rejection	NA	0
36	Single	67	715	229	0	1	1	193914	683	1	hit	422	0
36	Single	68	716	230	9	0	0	194630	684	0	correct_rejection	NA	0
36	Single	69	717	231	8	0	0	195347	683	0	correct_rejection	NA	0
36	Single	70	718	232	0	1	1	196064	683	1	hit	441	0
36	Single	71	719	233	6	0	0	196780	684	0	correct_rejection	NA	0
36	Single	72	720	234	4	0	0	197497	683	0	correct_rejection	NA	0
36	Single	73	721	235	5	0	0	198214	683	0	correct_rejection	NA	0
36	Single	74	722	236	5	0	0	198930	684	0	correct_rejection	NA	0
36	Single	75	723	237	0	1	1	199647	683	1	hit	430	0
36	Single	76	724	238	6	0	0	200364	683	0	correct_rejection	NA	0
36	Single	77	725	239	7	0	0	201080	684	0	correct_rejection	NA	0
36	Single	78	726	240	0	1	1	201797	683	1	hit	436	0
36	Single	79	727	241	5	0	0	202514	683	0	correct_rejection	NA	0
36	Single	80	728	242	5	0	0	203230	684	0	correct_rejection	NA	0
36	Single	81	729	243	4	0	0	203947	683	0	correct_rejection	NA	0
36	Single	82	730	244	0	1	1	204664	683	1	hit	452	0
36	Single	83	731	245	9	0	0	205380	684	0	correct_rejection	NA	0
36	Single	84	732	246	5	0	0	206097	683	0	correct_rejection	NA	0
36	Single	85	733	247	6	0	0	206814	683	0	correct_rejection	NA	0
36	Single	86	734	248	4	0	0	207530	684	0	correct_rejection	NA	0
36	Single	87	735	249	0	1	1	208247	683	1	hit	421	0
36	Single	88	736	250	7	0	0	208964	683	0	correct_rejection	NA	0
36	Single	89	737	251	9	0	0	209680	684	0	correct_rejection	NA	0
36	Single	90	738	252	8	0	0	210397	683	0	correct_rejection	NA	0
36	Single	91	739	253	8	0	0	211114	683	0	correct_rejection	NA	0
36	Single	92	740	254	7	0	0	211830	684	0	correct_rejection	NA	0
36	Single	93	741	255	8	0	0	212547	683	0	correct_rejection	NA	0
36	Single	94	742	256	0	1	1	213264	683	1	hit	473	0
36	Single	95	743	257	4	0	0	213980	684	0	correct_rejection	NA	0
36	Single	96	744	258	8	0	0	214697	683	0	correct_rejection	NA	0
36	Single	97	745	259	5	0	0	215414	683	0	correct_rejection	NA	0
36	Single	98	746	260	5	0	0	216130	684	0	correct_rejection	NA	0
36	Single	99	747	261	8	0	0	216847	683	0	correct_rejection	NA	0
36	Single	100	748	262	9	0	0	217564	683	0	correct_rejection	NA	0
36	Single	101	749	263	4	0	0	218280	684	0	correct_rejection	NA	0
36	Single	102	750	264	4	0	0	218997	683	0	correct_rejection	NA	0
36	Single	103	751	265	0	1	1	219714	683	1	hit	530	0
36	Single	104	752	266	5	0	0	220430	684	0	correct_rejection	NA	0
36	Single	105	753	267	9	0	0	221147	683	0	correct_rejection	NA	0
36	Single	106	754	268	9	0	0	221863	684	0	correct_rejection	NA	0
36	Single	107	755	269	7	0	0	222580	684	0	correct_rejection	NA	0
36	Single	108	756	270	6	0	0	223297	683	0	correct_rejection	NA	0
36	Single	109	757	271	7	0	0	224013	684	0	correct_rejection	NA	0
36	Single	110	758	272	7	0	0	224730	683	0	correct_rejection	NA	0
36	Single	111	759	273	5	0	0	225447	683	0	correct_rejection	NA	0
36	Single	112	760	274	0	1	1	226163	684	1	hit	389	0
36	Single	113	761	275	7	0	0	226880	683	0	correct_rejection	NA	0
36	Single	114	762	276	4	0	0	227597	683	0	correct_rejection	NA	0
36	Single	115	763	277	6	0	0	228313	684	0	correct_rejection	NA	0
36	Single	116	764	278	9	0	0	229030	683	0	correct_rejection	NA	0
36	Single	117	765	279	6	0	0	229747	683	0	correct_rejection	NA	0
36	Single	118	766	280	6	0	0	230463	684	0	correct_rejection	NA	0
36	Single	119	767	281	8	0	0	231180	683	0	correct_rejection	NA	0
36	Single	120	768	282	6	0	0	231897	683	0	correct_rejection	NA	0
36	Single	121	769	283	0	1	1	232613	684	1	hit	429	0
36	Single	122	770	284	7	0	0	233330	683	0	correct_rejection	NA	0
36	Single	123	771	285	7	0	0	234047	683	0	correct_rejection	NA	0
36	Single	124	772	286	8	0	0	234763	684	0	correct_rejection	NA	0
36	Single	125	773	287	7	0	0	235480	683	0	correct_rejection	NA	0
36	Single	126	774	288	6	0	0	236197	683	0	correct_rejection	NA	0
36	Single	127	775	289	9	0	0	236913	684	0	correct_rejection	NA	0
36	Single	128	776	290	7	0	0	237630	683	0	correct_rejection	NA	0
36	Single	129	777	291	0	1	1	238347	683	1	hit	370	0
36	Single	130	778	292	4	0	0	239063	684	0	correct_rejection	NA	0
36	Single	131	779	293	9	0	0	239780	683	0	correct_rejection	NA	0
36	Single	132	780	294	6	0	0	240497	683	0	correct_rejection	NA	0
36	Single	133	781	295	5	0	0	241213	684	0	correct_rejection	NA	0
36	Single	134	782	296	6	0	0	241930	683	0	correct_rejection	NA	0
36	Single	135	783	297	0	1	1	242647	683	1	hit	441	0
36	Single	136	784	298	6	0	0	243363	684	0	correct_rejection	NA	0
36	Single	137	785	299	7	0	0	244080	683	0	correct_rejection	NA	0
36	Single	138	786	300	9	0	0	244797	683	0	correct_rejection	NA	0
36	Single	139	787	301	9	0	0	245513	684	0	correct_rejection	NA	0
36	Single	140	788	302	4	0	0	246230	683	0	correct_rejection	NA	0
36	Single	141	789	303	5	0	0	246947	683	0	correct_rejection	NA	0
36	Single	142	790	304	8	0	0	247663	684	0	correct_rejection	NA	0
36	Single	143	791	305	6	0	0	248380	683	0	correct_rejection	NA	0
36	Single	144	792	306	8	0	0	249096	684	0	correct_rejection	NA	0
36	Single	145	793	307	9	0	0	249813	683	0	correct_rejection	NA	0
36	Single	146	794	308	5	0	0	250530	683	0	correct_rejection	NA	0
36	Single	147	795	309	7	0	0	251246	684	0	correct_rejection	NA	0
36	Single	148	796	310	5	0	0	251963	683	0	correct_rejection	NA	0
36	Single	149	797	311	5	0	0	252680	683	0	correct_rejection	NA	0
36	Single	150	798	312	9	0	0	253396	684	0	correct_rejection	NA	0
36	Single	151	799	313	8	0	0	254113	683	0	correct_rejection	NA	0
36	Single	152	800	314	0	1	1	254830	683	1	hit	482	0
36	Single	153	801	315	5	0	0	255546	684	0	correct_rejection	NA	0
36	Single	154	802	316	4	0	0	256263	683	0	correct_rejection	NA	0
36	Single	155	803	317	6	0	0	256980	683	0	correct_rejection	NA	0
36	Single	156	804	318	0	1	1	257696	684	1	hit	453	0
36	Single	157	805	319	4	0	0	258413	683	0	correct_rejection	NA	0
36	Single	158	806	320	4	0	0	259130	683	0	correct_rejection	NA	0
36	Single	159	807	321	8	0	0	259846	684	0	correct_rejection	NA	0
36	Single	160	808	322	0	1	1	260563	683	1	hit	450	0
36	Single	161	809	323	8	0	0	261280	683	0	correct_rejection	NA	0
36	Single	162	810	324	4	0	0	261996	684	0	correct_rejection	NA	0
36	Nonet	1	649	325	6	0	0	272096	684	0	correct_rejection	NA	7817
36	Nonet	2	650	326	5	0	0	272813	683	0	correct_rejection	NA	0
36	Nonet	3	651	327	4	0	0	273530	683	0	correct_rejection	NA	0
36	Nonet	4	652	328	6	0	0	274246	684	0	correct_rejection	NA	0
36	Nonet	5	653	329	5	0	0	274963	683	0	correct_rejection	NA	0
36	Nonet	6	654	330	4	0	0	275679	684	0	correct_rejection	NA	0
36	Nonet	7	655	331	6	0	0	276396	684	0	correct_rejection	NA	0
36	Nonet	8	656	332	5	0	0	277113	683	0	correct_rejection	NA	0
36	Nonet	9	657	333	4	0	0	277829	684	0	correct_rejection	NA	0
36	Nonet	10	658	334	9	0	0	278546	683	0	correct_rejection	NA	0
36	Nonet	11	659	335	8	0	0	279263	683	0	correct_rejection	NA	0
36	Nonet	12	660	336	7	0	0	279979	684	0	correct_rejection	NA	0
36	Nonet	13	661	337	9	0	0	280696	683	0	correct_rejection	NA	0
36	Nonet	14	662	338	8	0	0	281413	683	0	correct_rejection	NA	0
36	Nonet	15	663	339	7	0	0	282129	684	0	correct_rejection	NA	0
36	Nonet	16	664	340	0	1	2	282846	683	1	hit	442	0
36	Nonet	17	665	341	9	0	0	283563	683	0	correct_rejection	NA	0
36	Nonet	18	666	342	8	0	0	284279	684	0	correct_rejection	NA	0
36	Nonet	19	667	343	7	0	0	284996	683	0	correct_rejection	NA	0
36	Nonet	20	668	344	0	1	3	285713	683	1	hit	382	0
36	Nonet	21	669	345	4	0	0	286429	684	0	correct_rejection	NA	0
36	Nonet	22	670	346	5	0	0	287146	683	0	correct_rejection	NA	0
36	Nonet	23	671	347	0	1	1	287863	683	1	hit	461	0
36	Nonet	24	672	348	6	0	0	288579	684	0	correct_rejection	NA	0
36	Nonet	25	673	349	4	0	0	289296	683	0	correct_rejection	NA	0
36	Nonet	26	674	350	5	0	0	290013	683	0	correct_rejection	NA	0
36	Nonet	27	675	351	6	0	0	290729	684	0	correct_rejection	NA	0
36	Nonet	28	676	352	4	0	0	291446	683	0	correct_rejection	NA	0
36	Nonet	29	677	353	5	0	0	292163	683	0	correct_rejection	NA	0
36	Nonet	30	678	354	0	1	1	292879	684	1	hit	386	0
36	Nonet	31	679	355	6	0	0	293596	683	0	correct_rejection	NA	0
36	Nonet	32	680	356	4	0	0	294313	683	0	correct_rejection	NA	0
36	Nonet	33	681	357	5	0	0	295029	684	0	correct_rejection	NA	0
36	Nonet	34	682	358	6	0	0	295746	683	0	correct_rejection	NA	0
36	Nonet	35	683	359	4	0	0	296463	683	0	correct_rejection	NA	0
36	Nonet	36	684	360	5	0	0	297179	684	0	correct_rejection	NA	0
36	Nonet	37	685	361	6	0	0	297896	683	0	correct_rejection	NA	0
36	Nonet	38	686	362	4	0	0	298613	683	0	correct_rejection	NA	0
36	Nonet	39	687	363	5	0	0	299329	684	0	correct_rejection	NA	0
36	Nonet	40	688	364	6	0	0	300046	683	0	correct_rejection	NA	0
36	Nonet	41	689	365	6	0	0	300763	683	0	correct_rejection	NA	0
36	Nonet	42	690	366	5	0	0	301479	684	0	correct_rejection	NA	0
36	Nonet	43	691	367	4	0	0	302196	683	0	correct_rejection	NA	0
36	Nonet	44	692	368	6	0	0	302913	683	0	correct_rejection	NA	0
36	Nonet	45	693	369	5	0	0	303629	684	0	correct_rejection	NA	0
36	Nonet	46	694	370	4	0	0	304346	683	0	correct_rejection	NA	0
36	Nonet	47	695	371	6	0	0	305062	684	0	correct_rejection	NA	0
36	Nonet	48	696	372	5	0	0	305779	683	0	correct_rejection	NA	0
36	Nonet	49	697	373	0	1	1	306496	683	1	hit	399	0
36	Nonet	50	698	374	4	0	0	307212	684	0	correct_rejection	NA	0
36	Nonet	51	699	375	6	0	0	307929	683	0	correct_rejection	NA	0
36	Nonet	52	700	376	5	0	0	308646	683	0	correct_rejection	NA	0
36	Nonet	53	701	377	4	0	0	309362	684	0	correct_rejection	NA	0
36	Nonet	54	702	378	6	0	0	310079	683	0	correct_rejection	NA	0
36	Nonet	55	703	379	0	1	1	310796	683	1	hit	422	0
36	Nonet	56	704	380	5	0	0	311512	684	0	correct_rejection	NA	0
36	Nonet	57	705	381	4	0	0	312229	683	0	correct_rejection	NA	0
36	Nonet	58	706	382	0	1	2	312946	683	1	hit	447	0
36	Nonet	59	707	383	6	0	0	313662	684	0	correct_rejection	NA	0
36	Nonet	60	708	384	5	0	0	314379	683	0	correct_rejection	NA	0
36	Nonet	61	709	385	4	0	0	315096	683	0	correct_rejection	NA	0
36	Nonet	62	710	386	4	0	0	315812	684	0	correct_rejection	NA	0
36	Nonet	63	711	387	5	0	0	316529	683	0	correct_rejection	NA	0
36	Nonet	64	712	388	6	0	0	317246	683	0	correct_rejection	NA	0
36	Nonet	65	713	389	4	0	0	317962	684	0	correct_rejection	NA	0
36	Nonet	66	714	390	5	0	0	318679	683	0	correct_rejection	NA	0
36	Nonet	67	715	391	6	0	0	319396	683	0	correct_rejection	NA	0
36	Nonet	68	716	392	4	0	0	320112	684	0	correct_rejection	NA	0
36	Nonet	69	717	393	5	0	0	320829	683	0	correct_rejection	NA	0
36	Nonet	70	718	394	6	0	0	321546	683	0	correct_rejection	NA	0
36	Nonet	71	719	395	7	0	0	322262	684	0	correct_rejection	NA	0
36	Nonet	72	720	396	8	0	0	322979	683	0	correct_rejection	NA	0
36	Nonet	73	721	397	9	0	0	323696	683	0	correct_rejection	NA	0
36	Nonet	74	722	398	0	1	2	324412	684	1	hit	424	0
36	Nonet	75	723	399	7	0	0	325129	683	0	correct_rejection	NA	0
36	Nonet	76	724	400	8	0	0	325846	683	0	correct_rejection	NA	0
36	Nonet	77	725	401	0	1	1	326562	684	1	hit	419	0
36	Nonet	78	726	402	9	0	0	327279	683	0	correct_rejection	NA	0
36	Nonet	79	727	403	7	0	0	327996	683	0	correct_rejection	NA	0
36	Nonet	80	728	404	8	0	0	328712	684	0	correct_rejection	NA	0
36	Nonet	81	729	405	9	0	0	329429	683	0	correct_rejection	NA	0
36	Nonet	82	730	406	6	0	0	330146	683	0	correct_rejection	NA	0
36	Nonet	83	731	407	5	0	0	330862	684	0	correct_rejection	NA	0
36	Nonet	84	732	408	4	0	0	331579	683	0	correct_rejection	NA	0
36	Nonet	85	733	409	6	0	0	332295	684	0	correct_rejection	NA	0
36	Nonet	86	734	410	5	0	0	333012	684	0	correct_rejection	NA	0
36	Nonet	87	735	411	4	0	0	333729	683	0	correct_rejection	NA	0
36	Nonet	88	736	412	0	1	2	334445	684	1	hit	514	0
36	Nonet	89	737	413	6	0	0	335162	683	0	correct_rejection	NA	0
36	Nonet	90	738	414	5	0	0	335879	683	0	correct_rejection	NA	0
36	Nonet	91	739	415	4	0	0	336595	684	0	correct_rejection	NA	0
36	Nonet	92	740	416	7	0	0	337312	683	0	correct_rejection	NA	0
36	Nonet	93	741	417	8	0	0	338029	683	0	correct_rejection	NA	0
36	Nonet	94	742	418	9	0	0	338745	684	0	correct_rejection	NA	0
36	Nonet	95	743	419	7	0	0	339462	683	0	correct_rejection	NA	0
36	Nonet	96	744	420	8	0	0	340179	683	0	correct_rejection	NA	0
36	Nonet	97	745	421	9	0	0	340895	684	0	correct_rejection	NA	0
36	Nonet	98	746	422	7	0	0	341612	683	0	correct_rejection	NA	0
36	Nonet	99	747	423	0	1	1	342329	683	1	hit	475	0
36	Nonet	100	748	424	8	0	0	343045	684	0	correct_rejection	NA	0
36	Nonet	101	749	425	9	0	0	343762	683	0	correct_rejection	NA	0
36	Nonet	102	750	426	4	0	0	344479	683	0	correct_rejection	NA	0
36	Nonet	103	751	427	0	1	1	345195	684	1	hit	550	0
36	Nonet	104	752	428	5	0	0	345912	683	0	correct_rejection	NA	0
36	Nonet	105	753	429	6	0	0	346629	683	0	correct_rejection	NA	0
36	Nonet	106	754	430	0	1	2	347345	684	1	hit	398	0
36	Nonet	107	755	431	4	0	0	348062	683	0	correct_rejection	NA	0
36	Nonet	108	756	432	5	0	0	348779	683	0	correct_rejection	NA	0
36	Nonet	109	757	433	6	0	0	349495	684	0	correct_rejection	NA	0
36	Nonet	110	758	434	4	0	0	350212	683	0	correct_rejection	NA	0
36	Nonet	111	759	435	5	0	0	350929	683	0	correct_rejection	NA	0
36	Nonet	112	760	436	6	0	0	351645	684	0	correct_rejection	NA	0
36	Nonet	113	761	437	9	0	0	352362	683	0	correct_rejection	NA	0
36	Nonet	114	762	438	8	0	0	353079	683	0	correct_rejection	NA	0
36	Nonet	115	763	439	7	0	0	353795	684	0	correct_rejection	NA	0
36	Nonet	116	764	440	9	0	0	354512	683	0	correct_rejection	NA	0
36	Nonet	117	765	441	0	1	1	355229	683	1	hit	424	0
36	Nonet	118	766	442	8	0	0	355945	684	0	correct_rejection	NA	0
36	Nonet	119	767	443	7	0	0	356662	683	0	correct_rejection	NA	0
36	Nonet	120	768	444	9	0	0	357379	683	0	correct_rejection	NA	0
36	Nonet	121	769	445	8	0	0	358095	684	0	correct_rejection	NA	0
36	Nonet	122	770	446	0	1	1	358812	683	1	hit	431	0
36	Nonet	123	771	447	7	0	0	359529	683	0	correct_rejection	NA	0
36	Nonet	124	772	448	9	0	0	360245	684	0	correct_rejection	NA	0
36	Nonet	125	773	449	8	0	0	360962	683	0	correct_rejection	NA	0
36	Nonet	126	774	450	7	0	0	361678	684	0	correct_rejection	NA	0
36	Nonet	127	775	451	0	1	2	362395	683	1	hit	391	0
36	Nonet	128	776	452	9	0	0	363112	683	0	correct_rejection	NA	0
36	Nonet	129	777	453	8	0	0	363828	684	0	correct_rejection	NA	0
36	Nonet	130	778	454	0	1	1	364545	683	1	hit	418	0
36	Nonet	131	779	455	7	0	0	365262	683	0	correct_rejection	NA	0
36	Nonet	132	780	456	9	0	0	365978	684	0	correct_rejection	NA	0
36	Nonet	133	781	457	8	0	0	366695	683	0	correct_rejection	NA	0
36	Nonet	134	782	458	7	0	0	367412	683	0	correct_rejection	NA	0
36	Nonet	135	783	459	7	0	0	368128	684	0	correct_rejection	NA	0
36	Nonet	136	784	460	8	0	0	368845	683	0	correct_rejection	NA	0
36	Nonet	137	785	461	9	0	0	369562	683	0	correct_rejection	NA	0
36	Nonet	138	786	462	7	0	0	370278	684	0	correct_rejection	NA	0
36	Nonet	139	787	463	8	0	0	370995	683	0	correct_rejection	NA	0
36	Nonet	140	788	464	9	0	0	371712	683	0	correct_rejection	NA	0
36	Nonet	141	789	465	7	0	0	372428	684	0	correct_rejection	NA	0
36	Nonet	142	790	466	8	0	0	373145	683	0	correct_rejection	NA	0
36	Nonet	143	791	467	9	0	0	373862	683	0	correct_rejection	NA	0
36	Nonet	144	792	468	0	1	3	374578	684	1	hit	475	0
36	Nonet	145	793	469	7	0	0	375295	683	0	correct_rejection	NA	0
36	Nonet	146	794	470	8	0	0	376012	683	0	correct_rejection	NA	0
36	Nonet	147	795	471	9	0	0	376728	684	0	correct_rejection	NA	0
36	Nonet	148	796	472	7	0	0	377445	683	0	correct_rejection	NA	0
36	Nonet	149	797	473	8	0	0	378162	683	0	correct_rejection	NA	0
36	Nonet	150	798	474	9	0	0	378878	684	0	correct_rejection	NA	0
36	Nonet	151	799	475	7	0	0	379595	683	0	correct_rejection	NA	0
36	Nonet	152	800	476	8	0	0	380312	683	0	correct_rejection	NA	0
36	Nonet	153	801	477	9	0	0	381028	684	0	correct_rejection	NA	0
36	Nonet	154	802	478	9	0	0	381745	683	0	correct_rejection	NA	0
36	Nonet	155	803	479	8	0	0	382462	683	0	correct_rejection	NA	0
36	Nonet	156	804	480	7	0	0	383178	684	0	correct_rejection	NA	0
36	Nonet	157	805	481	9	0	0	383895	683	0	correct_rejection	NA	0
36	Nonet	158	806	482	8	0	0	384612	683	0	correct_rejection	NA	0
36	Nonet	159	807	483	7	0	0	385328	684	0	correct_rejection	NA	0
36	Nonet	160	808	484	9	0	0	386045	683	0	correct_rejection	NA	0
36	Nonet	161	809	485	8	0	0	386761	684	0	correct_rejection	NA	0
36	Nonet	162	810	486	7	0	0	387478	684	0	correct_rejection	NA	0
36	Correct	1	1	487	4	0	0	396378	683	0	correct_rejection	NA	7107
36	Correct	2	2	488	5	0	0	397095	683	0	correct_rejection	NA	0
36	Correct	3	3	489	6	0	0	397811	684	0	correct_rejection	NA	0
36	Correct	4	4	490	0	1	2	398528	683	1	hit	478	0
36	Correct	5	5	491	4	0	0	399245	683	0	correct_rejection	NA	0
36	Correct	6	6	492	5	0	0	399961	684	0	correct_rejection	NA	0
36	Correct	7	7	493	6	0	0	400678	683	0	correct_rejection	NA	0
36	Correct	8	8	494	4	0	0	401395	683	0	correct_rejection	NA	0
36	Correct	9	9	495	5	0	0	402111	684	0	correct_rejection	NA	0
36	Correct	10	10	496	6	0	0	402828	683	0	correct_rejection	NA	0
36	Correct	11	11	497	0	1	3	403545	683	1	hit	415	0
36	Correct	12	12	498	6	0	0	404261	684	0	correct_rejection	NA	0
36	Correct	13	13	499	5	0	0	404978	683	0	correct_rejection	NA	0
36	Correct	14	14	500	4	0	0	405695	683	0	correct_rejection	NA	0
36	Correct	15	15	501	6	0	0	406411	684	0	correct_rejection	NA	0
36	Correct	16	16	502	0	1	1	407128	683	1	hit	429	0
36	Correct	17	17	503	5	0	0	407845	683	0	correct_rejection	NA	0
36	Correct	18	18	504	4	0	0	408561	684	0	correct_rejection	NA	0
36	Correct	19	19	505	6	0	0	409278	683	0	correct_rejection	NA	0
36	Correct	20	20	506	5	0	0	409995	683	0	correct_rejection	NA	0
36	Correct	21	21	507	4	0	0	410711	684	0	correct_rejection	NA	0
36	Correct	22	22	508	9	0	0	411428	683	0	correct_rejection	NA	0
36	Correct	23	23	509	8	0	0	412145	683	0	correct_rejection	NA	0
36	Correct	24	24	510	7	0	0	412861	684	0	correct_rejection	NA	0
36	Correct	25	25	511	9	0	0	413578	683	0	correct_rejection	NA	0
36	Correct	26	26	512	8	0	0	414294	684	0	correct_rejection	NA	0
36	Correct	27	27	513	7	0	0	415011	684	0	correct_rejection	NA	0
36	Correct	28	28	514	0	1	2	415728	683	1	hit	404	0
36	Correct	29	29	515	9	0	0	416444	684	0	correct_rejection	NA	0
36	Correct	30	30	516	8	0	0	417161	683	0	correct_rejection	NA	0
36	Correct	31	31	517	7	0	0	417878	683	0	correct_rejection	NA	0
36	Correct	32	32	518	7	0	0	418594	684	0	correct_rejection	NA	0
36	Correct	33	33	519	8	0	0	419311	683	0	correct_rejection	NA	0
36	Correct	34	34	520	9	0	0	420028	683	0	correct_rejection	NA	0
36	Correct	35	35	521	7	0	0	420744	684	0	correct_rejection	NA	0
36	Correct	36	36	522	8	0	0	421461	683	0	correct_rejection	NA	0
36	Correct	37	37	523	9	0	0	422178	683	0	correct_rejection	NA	0
36	Correct	38	38	524	7	0	0	422894	684	0	correct_rejection	NA	0
36	Correct	39	39	525	8	0	0	423611	683	0	correct_rejection	NA	0
36	Correct	40	40	526	9	0	0	424328	683	0	correct_rejection	NA	0
36	Correct	41	41	527	0	1	4	425044	684	1	hit	448	0
36	Correct	42	42	528	4	0	0	425761	683	0	correct_rejection	NA	0
36	Correct	43	43	529	5	0	0	426478	683	0	correct_rejection	NA	0
36	Correct	44	44	530	0	1	1	427194	684	1	hit	484	0
36	Correct	45	45	531	6	0	0	427911	683	0	correct_rejection	NA	0
36	Correct	46	46	532	4	0	0	428628	683	0	correct_rejection	NA	0
36	Correct	47	47	533	5	0	0	429344	684	0	correct_rejection	NA	0
36	Correct	48	48	534	6	0	0	430061	683	0	correct_rejection	NA	0
36	Correct	49	49	535	4	0	0	430778	683	0	correct_rejection	NA	0
36	Correct	50	50	536	5	0	0	431494	684	0	correct_rejection	NA	0
36	Correct	51	51	537	6	0	0	432211	683	0	correct_rejection	NA	0
36	Correct	52	52	538	6	0	0	432928	683	0	correct_rejection	NA	0
36	Correct	53	53	539	5	0	0	433644	684	0	correct_rejection	NA	0
36	Correct	54	54	540	4	0	0	434361	683	0	correct_rejection	NA	0
36	Correct	55	55	541	6	0	0	435078	683	0	correct_rejection	NA	0
36	Correct	56	56	542	5	0	0	435794	684	0	correct_rejection	NA	0
36	Correct	57	57	543	4	0	0	436511	683	0	correct_rejection	NA	0
36	Correct	58	58	544	6	0	0	437228	683	0	correct_rejection	NA	0
36	Correct	59	59	545	5	0	0	437944	684	0	correct_rejection	NA	0
36	Correct	60	60	546	4	0	0	438661	683	0	correct_rejection	NA	0
36	Correct	61	61	547	9	0	0	439378	683	0	correct_rejection	NA	0
36	Correct	62	62	548	8	0	0	440094	684	0	correct_rejection	NA	0
36	Correct	63	63	549	7	0	0	440811	683	0	correct_rejection	NA	0
36	Correct	64	64	550	9	0	0	441528	683	0	correct_rejection	NA	0
36	Correct	65	65	551	8	0	0	442244	684	0	correct_rejection	NA	0
36	Correct	66	66	552	7	0	0	442961	683	0	correct_rejection	NA	0
36	Correct	67	67	553	9	0	0	443677	684	0	correct_rejection	NA	0
36	Correct	68	68	554	8	0	0	444394	683	0	correct_rejection	NA	0
36	Correct	69	69	555	7	0	0	445111	683	0	correct_rejection	NA	0
36	Correct	70	70	556	7	0	0	445827	684	0	correct_rejection	NA	0
36	Correct	71	71	557	8	0	0	446544	683	0	correct_rejection	NA	0
36	Correct	72	72	558	9	0	0	447261	683	0	correct_rejection	NA	0
36	Correct	73	73	559	7	0	0	447977	684	0	correct_rejection	NA	0
36	Correct	74	74	560	8	0	0	448694	683	0	correct_rejection	NA	0
36	Correct	75	75	561	9	0	0	449411	683	0	correct_rejection	NA	0
36	Correct	76	76	562	7	0	0	450127	684	0	correct_rejection	NA	0
36	Correct	77	77	563	8	0	0	450844	683	0	correct_rejection	NA	0
36	Correct	78	78	564	9	0	0	451561	683	0	correct_rejection	NA	0
36	Correct	79	79	565	4	0	0	452277	684	0	correct_rejection	NA	0
36	Correct	80	80	566	0	1	1	452994	683	1	hit	392	0
36	Correct	81	81	567	5	0	0	453711	683	0	correct_rejection	NA	0
36	Correct	82	82	568	6	0	0	454427	684	0	correct_rejection	NA	0
36	Correct	83	83	569	4	0	0	455144	683	0	correct_rejection	NA	0
36	Correct	84	84	570	5	0	0	455861	683	0	correct_rejection	NA	0
36	Correct	85	85	571	6	0	0	456577	684	0	correct_rejection	NA	0
36	Correct	86	86	572	4	0	0	457294	683	0	correct_rejection	NA	0
36	Correct	87	87	573	0	1	1	458011	683	1	hit	410	0
36	Correct	88	88	574	5	0	0	458727	684	0	correct_rejection	NA	0
36	Correct	89	89	575	6	0	0	459444	683	0	correct_rejection	NA	0
36	Correct	90	90	576	6	0	0	460161	683	0	correct_rejection	NA	0
36	Correct	91	91	577	5	0	0	460877	684	0	correct_rejection	NA	0
36	Correct	92	92	578	0	1	1	461594	683	1	hit	613	0
36	Correct	93	93	579	4	0	0	462311	683	0	correct_rejection	NA	0
36	Correct	94	94	580	6	0	0	463027	684	0	correct_rejection	NA	0
36	Correct	95	95	581	5	0	0	463744	683	0	correct_rejection	NA	0
36	Correct	96	96	582	0	1	1	464461	683	1	hit	422	0
36	Correct	97	97	583	4	0	0	465177	684	0	correct_rejection	NA	0
36	Correct	98	98	584	6	0	0	465894	683	0	correct_rejection	NA	0
36	Correct	99	99	585	5	0	0	466611	683	0	correct_rejection	NA	0
36	Correct	100	100	586	4	0	0	467327	684	0	correct_rejection	NA	0
36	Correct	101	101	587	9	0	0	468044	683	0	correct_rejection	NA	0
36	Correct	102	102	588	0	1	1	468761	683	1	hit	429	0
36	Correct	103	103	589	8	0	0	469477	684	0	correct_rejection	NA	0
36	Correct	104	104	590	7	0	0	470194	683	0	correct_rejection	NA	0
36	Correct	105	105	591	9	0	0	470910	684	0	correct_rejection	NA	0
36	Correct	106	106	592	8	0	0	471627	684	0	correct_rejection	NA	0
36	Correct	107	107	593	7	0	0	472344	683	0	correct_rejection	NA	0
36	Correct	108	108	594	9	0	0	473060	684	0	correct_rejection	NA	0
36	Correct	109	109	595	8	0	0	473777	683	0	correct_rejection	NA	0
36	Correct	110	110	596	0	1	1	474494	683	1	hit	386	0
36	Correct	111	111	597	7	0	0	475210	684	0	correct_rejection	NA	0
36	Correct	112	112	598	7	0	0	475927	683	0	correct_rejection	NA	0
36	Correct	113	113	599	8	0	0	476644	683	0	correct_rejection	NA	0
36	Correct	114	114	600	9	0	0	477360	684	0	correct_rejection	NA	0
36	Correct	115	115	601	7	0	0	478077	683	0	correct_rejection	NA	0
36	Correct	116	116	602	8	0	0	478794	683	0	correct_rejection	NA	0
36	Correct	117	117	603	9	0	0	479510	684	0	correct_rejection	NA	0
36	Correct	118	118	604	7	0	0	480227	683	0	correct_rejection	NA	0
36	Correct	119	119	605	8	0	0	480944	683	0	correct_rejection	NA	0
36	Correct	120	120	606	0	1	1	481660	684	1	hit	436	0
36	Correct	121	121	607	9	0	0	482377	683	0	correct_rejection	NA	0
36	Correct	122	122	608	4	0	0	483094	683	0	correct_rejection	NA	0
36	Correct	123	123	609	5	0	0	483810	684	0	correct_rejection	NA	0
36	Correct	124	124	610	6	0	0	484527	683	0	correct_rejection	NA	0
36	Correct	125	125	611	4	0	0	485244	683	0	correct_rejection	NA	0
36	Correct	126	126	612	5	0	0	485960	684	0	correct_rejection	NA	0
36	Correct	127	127	613	6	0	0	486677	683	0	correct_rejection	NA	0
36	Correct	128	128	614	4	0	0	487394	683	0	correct_rejection	NA	0
36	Correct	129	129	615	5	0	0	488110	684	0	correct_rejection	NA	0
36	Correct	130	130	616	0	1	1	488827	683	1	hit	431	0
36	Correct	131	131	617	6	0	0	489544	683	0	correct_rejection	NA	0
36	Correct	132	132	618	6	0	0	490260	684	0	correct_rejection	NA	0
36	Correct	133	133	619	0	1	1	490977	683	1	hit	474	0
36	Correct	134	134	620	5	0	0	491694	683	0	correct_rejection	NA	0
36	Correct	135	135	621	4	0	0	492410	684	0	correct_rejection	NA	0
36	Correct	136	136	622	6	0	0	493127	683	0	correct_rejection	NA	0
36	Correct	137	137	623	5	0	0	493844	683	0	correct_rejection	NA	0
36	Correct	138	138	624	4	0	0	494560	684	0	correct_rejection	NA	0
36	Correct	139	139	625	0	1	2	495277	683	1	hit	438	0
36	Correct	140	140	626	6	0	0	495994	683	0	correct_rejection	NA	0
36	Correct	141	141	627	5	0	0	496710	684	0	correct_rejection	NA	0
36	Correct	142	142	628	4	0	0	497427	683	0	correct_rejection	NA	0
36	Correct	143	143	629	9	0	0	498144	683	0	correct_rejection	NA	0
36	Correct	144	144	630	8	0	0	498860	684	0	correct_rejection	NA	0
36	Correct	145	145	631	7	0	0	499577	683	0	correct_rejection	NA	0
36	Correct	146	146	632	9	0	0	500293	684	0	correct_rejection	NA	0
36	Correct	147	147	633	8	0	0	501010	683	0	correct_rejection	NA	0
36	Correct	148	148	634	7	0	0	501727	683	0	correct_rejection	NA	0
36	Correct	149	149	635	9	0	0	502443	684	0	correct_rejection	NA	0
36	Correct	150	150	636	0	1	1	503160	683	1	hit	436	0
36	Correct	151	151	637	8	0	0	503877	683	0	correct_rejection	NA	0
36	Correct	152	152	638	7	0	0	504593	684	0	correct_rejection	NA	0
36	Correct	153	153	639	7	0	0	505310	683	0	correct_rejection	NA	0
36	Correct	154	154	640	8	0	0	506027	683	0	correct_rejection	NA	0
36	Correct	155	155	641	9	0	0	506743	684	0	correct_rejection	NA	0
36	Correct	156	156	642	0	1	2	507460	683	1	hit	466	0
36	Correct	157	157	643	7	0	0	508177	683	0	correct_rejection	NA	0
36	Correct	158	158	644	8	0	0	508893	684	0	correct_rejection	NA	0
36	Correct	159	159	645	9	0	0	509610	683	0	correct_rejection	NA	0
36	Correct	160	160	646	7	0	0	510327	683	0	correct_rejection	NA	0
36	Correct	161	161	647	8	0	0	511043	684	0	correct_rejection	NA	0
36	Correct	162	162	648	9	0	0	511760	683	0	correct_rejection	NA	0
36	Triplet	1	1	649	9	0	0	522110	683	0	correct_rejection	NA	7837
36	Triplet	2	2	650	8	0	0	522827	683	0	correct_rejection	NA	0
36	Triplet	3	3	651	7	0	0	523543	684	0	correct_rejection	NA	0
36	Triplet	4	4	652	6	0	0	524260	683	0	correct_rejection	NA	0
36	Triplet	5	5	653	5	0	0	524977	683	0	correct_rejection	NA	0
36	Triplet	6	6	654	4	0	0	525693	684	0	correct_rejection	NA	0
36	Triplet	7	7	655	7	0	0	526410	683	0	correct_rejection	NA	0
36	Triplet	8	8	656	8	0	0	527126	684	0	correct_rejection	NA	0
36	Triplet	9	9	657	9	0	0	527843	684	0	correct_rejection	NA	0
36	Triplet	10	10	658	7	0	0	528560	683	0	correct_rejection	NA	0
36	Triplet	11	11	659	8	0	0	529276	684	0	correct_rejection	NA	0
36	Triplet	12	12	660	9	0	0	529993	683	0	correct_rejection	NA	0
36	Triplet	13	13	661	0	1	2	530710	683	1	hit	533	0
36	Triplet	14	14	662	4	0	0	531426	684	0	correct_rejection	NA	0
36	Triplet	15	15	663	5	0	0	532143	683	0	correct_rejection	NA	0
36	Triplet	16	16	664	0	1	1	532860	683	1	hit	427	0
36	Triplet	17	17	665	6	0	0	533576	684	0	correct_rejection	NA	0
36	Triplet	18	18	666	6	0	0	534293	683	0	correct_rejection	NA	0
36	Triplet	19	19	667	0	1	1	535010	683	1	hit	410	0
36	Triplet	20	20	668	5	0	0	535726	684	0	correct_rejection	NA	0
36	Triplet	21	21	669	4	0	0	536443	683	0	correct_rejection	NA	0
36	Triplet	22	22	670	4	0	0	537160	683	0	correct_rejection	NA	0
36	Triplet	23	23	671	5	0	0	537876	684	0	correct_rejection	NA	0
36	Triplet	24	24	672	6	0	0	538593	683	0	correct_rejection	NA	0
36	Triplet	25	25	673	0	1	2	539310	683	1	hit	453	0
36	Triplet	26	26	674	7	0	0	540026	684	0	correct_rejection	NA	0
36	Triplet	27	27	675	8	0	0	540743	683	0	correct_rejection	NA	0
36	Triplet	28	28	676	9	0	0	541460	683	0	correct_rejection	NA	0
36	Triplet	29	29	677	9	0	0	542176	684	0	correct_rejection	NA	0
36	Triplet	30	30	678	8	0	0	542893	683	0	correct_rejection	NA	0
36	Triplet	31	31	679	7	0	0	543610	683	0	correct_rejection	NA	0
36	Triplet	32	32	680	7	0	0	544326	684	0	correct_rejection	NA	0
36	Triplet	33	33	681	8	0	0	545043	683	0	correct_rejection	NA	0
36	Triplet	34	34	682	9	0	0	545760	683	0	correct_rejection	NA	0
36	Triplet	35	35	683	6	0	0	546476	684	0	correct_rejection	NA	0
36	Triplet	36	36	684	5	0	0	547193	683	0	correct_rejection	NA	0
36	Triplet	37	37	685	4	0	0	547910	683	0	correct_rejection	NA	0
36	Triplet	38	38	686	6	0	0	548626	684	0	correct_rejection	NA	0
36	Triplet	39	39	687	5	0	0	549343	683	0	correct_rejection	NA	0
36	Triplet	40	40	688	4	0	0	550060	683	0	correct_rejection	NA	0
36	Triplet	41	41	689	9	0	0	550776	684	0	correct_rejection	NA	0
36	Triplet	42	42	690	8	0	0	551493	683	0	correct_rejection	NA	0
36	Triplet	43	43	691	7	0	0	552210	683	0	correct_rejection	NA	0
36	Triplet	44	44	692	9	0	0	552926	684	0	correct_rejection	NA	0
36	Triplet	45	45	693	8	0	0	553643	683	0	correct_rejection	NA	0
36	Triplet	46	46	694	7	0	0	554359	684	0	correct_rejection	NA	0
36	Triplet	47	47	695	0	1	2	555076	683	1	hit	420	0
36	Triplet	48	48	696	4	0	0	555793	683	0	correct_rejection	NA	0
36	Triplet	49	49	697	5	0	0	556509	684	0	correct_rejection	NA	0
36	Triplet	50	50	698	0	1	1	557226	683	1	hit	368	0
36	Triplet	51	51	699	6	0	0	557943	683	0	correct_rejection	NA	0
36	Triplet	52	52	700	4	0	0	558659	684	0	correct_rejection	NA	0
36	Triplet	53	53	701	5	0	0	559376	683	0	correct_rejection	NA	0
36	Triplet	54	54	702	6	0	0	560093	683	0	correct_rejection	NA	0
36	Triplet	55	55	703	9	0	0	560809	684	0	correct_rejection	NA	0
36	Triplet	56	56	704	8	0	0	561526	683	0	correct_rejection	NA	0
36	Triplet	57	57	705	7	0	0	562243	683	0	correct_rejection	NA	0
36	Triplet	58	58	706	4	0	0	562959	684	0	correct_rejection	NA	0
36	Triplet	59	59	707	5	0	0	563676	683	0	correct_rejection	NA	0
36	Triplet	60	60	708	6	0	0	564393	683	0	correct_rejection	NA	0
36	Triplet	61	61	709	0	1	2	565109	684	1	hit	445	0
36	Triplet	62	62	710	6	0	0	565826	683	0	correct_rejection	NA	0
36	Triplet	63	63	711	5	0	0	566543	683	0	correct_rejection	NA	0
36	Triplet	64	64	712	0	1	1	567259	684	1	hit	423	0
36	Triplet	65	65	713	4	0	0	567976	683	0	correct_rejection	NA	0
36	Triplet	66	66	714	6	0	0	568693	683	0	correct_rejection	NA	0
36	Triplet	67	67	715	5	0	0	569409	684	0	correct_rejection	NA	0
36	Triplet	68	68	716	4	0	0	570126	683	0	correct_rejection	NA	0
36	Triplet	69	69	717	0	1	2	570843	683	1	hit	424	0
36	Triplet	70	70	718	7	0	0	571559	684	0	correct_rejection	NA	0
36	Triplet	71	71	719	8	0	0	572276	683	0	correct_rejection	NA	0
36	Triplet	72	72	720	0	1	1	572993	683	1	hit	458	0
36	Triplet	73	73	721	9	0	0	573709	684	0	correct_rejection	NA	0
36	Triplet	74	74	722	4	0	0	574426	683	0	correct_rejection	NA	0
36	Triplet	75	75	723	0	1	1	575143	683	1	hit	369	0
36	Triplet	76	76	724	5	0	0	575859	684	0	correct_rejection	NA	0
36	Triplet	77	77	725	6	0	0	576576	683	0	correct_rejection	NA	0
36	Triplet	78	78	726	9	0	0	577293	683	0	correct_rejection	NA	0
36	Triplet	79	79	727	8	0	0	578009	684	0	correct_rejection	NA	0
36	Triplet	80	80	728	7	0	0	578726	683	0	correct_rejection	NA	0
36	Triplet	81	81	729	7	0	0	579443	683	0	correct_rejection	NA	0
36	Triplet	82	82	730	8	0	0	580159	684	0	correct_rejection	NA	0
36	Triplet	83	83	731	9	0	0	580876	683	0	correct_rejection	NA	0
36	Triplet	84	84	732	0	1	2	581592	684	1	hit	595	0
36	Triplet	85	85	733	9	0	0	582309	684	0	correct_rejection	NA	0
36	Triplet	86	86	734	8	0	0	583026	683	0	correct_rejection	NA	0
36	Triplet	87	87	735	7	0	0	583742	684	0	correct_rejection	NA	0
36	Triplet	88	88	736	6	0	0	584459	683	0	correct_rejection	NA	0
36	Triplet	89	89	737	5	0	0	585176	683	0	correct_rejection	NA	0
36	Triplet	90	90	738	4	0	0	585892	684	0	correct_rejection	NA	0
36	Triplet	91	91	739	4	0	0	586609	683	0	correct_rejection	NA	0
36	Triplet	92	92	740	5	0	0	587326	683	0	correct_rejection	NA	0
36	Triplet	93	93	741	6	0	0	588042	684	0	correct_rejection	NA	0
36	Triplet	94	94	742	4	0	0	588759	683	0	correct_rejection	NA	0
36	Triplet	95	95	743	0	1	1	589476	683	1	hit	397	0
36	Triplet	96	96	744	5	0	0	590192	684	0	correct_rejection	NA	0
36	Triplet	97	97	745	6	0	0	590909	683	0	correct_rejection	NA	0
36	Triplet	98	98	746	7	0	0	591626	683	0	correct_rejection	NA	0
36	Triplet	99	99	747	8	0	0	592342	684	0	correct_rejection	NA	0
36	Triplet	100	100	748	9	0	0	593059	683	0	correct_rejection	NA	0
36	Triplet	101	101	749	7	0	0	593776	683	0	correct_rejection	NA	0
36	Triplet	102	102	750	8	0	0	594492	684	0	correct_rejection	NA	0
36	Triplet	103	103	751	9	0	0	595209	683	0	correct_rejection	NA	0
36	Triplet	104	104	752	6	0	0	595926	683	0	correct_rejection	NA	0
36	Triplet	105	105	753	5	0	0	596642	684	0	correct_rejection	NA	0
36	Triplet	106	106	754	4	0	0	597359	683	0	correct_rejection	NA	0
36	Triplet	107	107	755	9	0	0	598076	683	0	correct_rejection	NA	0
36	Triplet	108	108	756	8	0	0	598792	684	0	correct_rejection	NA	0
36	Triplet	109	109	757	0	1	1	599509	683	1	hit	403	0
36	Triplet	110	110	758	7	0	0	600226	683	0	correct_rejection	NA	0
36	Triplet	111	111	759	7	0	0	600942	684	0	correct_rejection	NA	0
36	Triplet	112	112	760	8	0	0	601659	683	0	correct_rejection	NA	0
36	Triplet	113	113	761	9	0	0	602376	683	0	correct_rejection	NA	0
36	Triplet	114	114	762	4	0	0	603092	684	0	correct_rejection	NA	0
36	Triplet	115	115	763	5	0	0	603809	683	0	correct_rejection	NA	0
36	Triplet	116	116	764	6	0	0	604526	683	0	correct_rejection	NA	0
36	Triplet	117	117	765	4	0	0	605242	684	0	correct_rejection	NA	0
36	Triplet	118	118	766	5	0	0	605959	683	0	correct_rejection	NA	0
36	Triplet	119	119	767	6	0	0	606676	683	0	correct_rejection	NA	0
36	Triplet	120	120	768	0	1	2	607392	684	1	hit	512	0
36	Triplet	121	121	769	9	0	0	608109	683	0	correct_rejection	NA	0
36	Triplet	122	122	770	8	0	0	608826	683	0	correct_rejection	NA	0
36	Triplet	123	123	771	7	0	0	609542	684	0	correct_rejection	NA	0
36	Triplet	124	124	772	4	0	0	610259	683	0	correct_rejection	NA	0
36	Triplet	125	125	773	5	0	0	610975	684	0	correct_rejection	NA	0
36	Triplet	126	126	774	6	0	0	611692	683	0	correct_rejection	NA	0
36	Triplet	127	127	775	7	0	0	612409	683	0	correct_rejection	NA	0
36	Triplet	128	128	776	8	0	0	613125	684	0	correct_rejection	NA	0
36	Triplet	129	129	777	0	1	1	613842	683	1	hit	415	0
36	Triplet	130	130	778	9	0	0	614559	683	0	correct_rejection	NA	0
36	Triplet	131	131	779	6	0	0	615275	684	0	correct_rejection	NA	0
36	Triplet	132	132	780	5	0	0	615992	683	0	correct_rejection	NA	0
36	Triplet	133	133	781	4	0	0	616709	683	0	correct_rejection	NA	0
36	Triplet	134	134	782	0	1	2	617425	684	1	hit	425	0
36	Triplet	135	135	783	4	0	0	618142	683	0	correct_rejection	NA	0
36	Triplet	136	136	784	5	0	0	618859	683	0	correct_rejection	NA	0
36	Triplet	137	137	785	6	0	0	619575	684	0	correct_rejection	NA	0
36	Triplet	138	138	786	6	0	0	620292	683	0	correct_rejection	NA	0
36	Triplet	139	139	787	5	0	0	621009	683	0	correct_rejection	NA	0
36	Triplet	140	140	788	4	0	0	621725	684	0	correct_rejection	NA	0
36	Triplet	141	141	789	9	0	0	622442	683	0	correct_rejection	NA	0
36	Triplet	142	142	790	8	0	0	623159	683	0	correct_rejection	NA	0
36	Triplet	143	143	791	7	0	0	623875	684	0	correct_rejection	NA	0
36	Triplet	144	144	792	7	0	0	624592	683	0	correct_rejection	NA	0
36	Triplet	145	145	793	8	0	0	625309	683	0	correct_rejection	NA	0
36	Triplet	146	146	794	9	0	0	626025	684	0	correct_rejection	NA	0
36	Triplet	147	147	795	7	0	0	626742	683	0	correct_rejection	NA	0
36	Triplet	148	148	796	8	0	0	627459	683	0	correct_rejection	NA	0
36	Triplet	149	149	797	9	0	0	628175	684	0	correct_rejection	NA	0
36	Triplet	150	150	798	9	0	0	628892	683	0	correct_rejection	NA	0
36	Triplet	151	151	799	0	1	1	629609	683	1	hit	409	0
36	Triplet	152	152	800	8	0	0	630325	684	0	correct_rejection	NA	0
36	Triplet	153	153	801	7	0	0	631042	683	0	correct_rejection	NA	0
36	Triplet	154	154	802	9	0	0	631759	683	0	correct_rejection	NA	0
36	Triplet	155	155	803	8	0	0	632475	684	0	correct_rejection	NA	0
36	Triplet	156	156	804	7	0	0	633192	683	0	correct_rejection	NA	0
36	Triplet	157	157	805	6	0	0	633909	683	0	correct_rejection	NA	0
36	Triplet	158	158	806	5	0	0	634625	684	0	correct_rejection	NA	0
36	Triplet	159	159	807	4	0	0	635342	683	0	correct_rejection	NA	0
36	Triplet	160	160	808	6	0	0	636059	683	0	correct_rejection	NA	0
36	Triplet	161	161	809	5	0	0	636775	684	0	correct_rejection	NA	0
36	Triplet	162	162	810	4	0	0	637492	683	0	correct_rejection	NA	0
trigger nr 629 at 639200
trigger nr 633 at 714115
36	Nonet	1	325	811	4	0	0	721724	684	0	correct_rejection	NA	7537
36	Nonet	2	326	812	5	0	0	722441	683	0	correct_rejection	NA	0
36	Nonet	3	327	813	6	0	0	723157	684	0	correct_rejection	NA	0
36	Nonet	4	328	814	4	0	0	723874	683	0	correct_rejection	NA	0
36	Nonet	5	329	815	5	0	0	724591	683	0	correct_rejection	NA	0
36	Nonet	6	330	816	6	0	0	725307	684	0	correct_rejection	NA	0
36	Nonet	7	331	817	0	1	2	726024	683	1	hit	411	0
36	Nonet	8	332	818	4	0	0	726741	683	0	correct_rejection	NA	0
36	Nonet	9	333	819	5	0	0	727457	684	0	correct_rejection	NA	0
36	Nonet	10	334	820	6	0	0	728174	683	0	correct_rejection	NA	0
36	Nonet	11	335	821	6	0	0	728891	683	0	correct_rejection	NA	0
36	Nonet	12	336	822	0	1	1	729607	684	1	hit	430	0
36	Nonet	13	337	823	5	0	0	730324	683	0	correct_rejection	NA	0
36	Nonet	14	338	824	4	0	0	731041	683	0	correct_rejection	NA	0
36	Nonet	15	339	825	6	0	0	731757	684	0	correct_rejection	NA	0
36	Nonet	16	340	826	5	0	0	732474	683	0	correct_rejection	NA	0
36	Nonet	17	341	827	4	0	0	733191	683	0	correct_rejection	NA	0
36	Nonet	18	342	828	6	0	0	733907	684	0	correct_rejection	NA	0
36	Nonet	19	343	829	5	0	0	734624	683	0	correct_rejection	NA	0
36	Nonet	20	344	830	4	0	0	735341	683	0	correct_rejection	NA	0
36	Nonet	21	345	831	4	0	0	736057	684	0	correct_rejection	NA	0
36	Nonet	22	346	832	5	0	0	736774	683	0	correct_rejection	NA	0
36	Nonet	23	347	833	6	0	0	737491	683	0	correct_rejection	NA	0
36	Nonet	24	348	834	4	0	0	738207	684	0	correct_rejection	NA	0
36	Nonet	25	349	835	0	1	1	738924	683	1	hit	395	0
36	Nonet	26	350	836	5	0	0	739641	683	0	correct_rejection	NA	0
36	Nonet	27	351	837	6	0	0	740357	684	0	correct_rejection	NA	0
36	Nonet	28	352	838	4	0	0	741074	683	0	correct_rejection	NA	0
36	Nonet	29	353	839	5	0	0	741791	683	0	correct_rejection	NA	0
36	Nonet	30	354	840	6	0	0	742507	684	0	correct_rejection	NA	0
36	Nonet	31	355	841	9	0	0	743224	683	0	correct_rejection	NA	0
36	Nonet	32	356	842	8	0	0	743941	683	0	correct_rejection	NA	0
36	Nonet	33	357	843	7	0	0	744657	684	0	correct_rejection	NA	0
36	Nonet	34	358	844	9	0	0	745374	683	0	correct_rejection	NA	0
36	Nonet	35	359	845	8	0	0	746091	683	0	correct_rejection	NA	0
36	Nonet	36	360	846	7	0	0	746807	684	0	correct_rejection	NA	0
36	Nonet	37	361	847	9	0	0	747524	683	0	correct_rejection	NA	0
36	Nonet	38	362	848	8	0	0	748241	683	0	correct_rejection	NA	0
36	Nonet	39	363	849	7	0	0	748957	684	0	correct_rejection	NA	0
36	Nonet	40	364	850	4	0	0	749674	683	0	correct_rejection	NA	0
36	Nonet	41	365	851	5	0	0	750390	684	0	correct_rejection	NA	0
36	Nonet	42	366	852	6	0	0	751107	683	0	correct_rejection	NA	0
36	Nonet	43	367	853	4	0	0	751824	683	0	correct_rejection	NA	0
36	Nonet	44	368	854	5	0	0	752540	684	0	correct_rejection	NA	0
36	Nonet	45	369	855	0	1	1	753257	683	1	hit	419	0
36	Nonet	46	370	856	6	0	0	753974	683	0	correct_rejection	NA	0
36	Nonet	47	371	857	4	0	0	754690	684	0	correct_rejection	NA	0
36	Nonet	48	372	858	5	0	0	755407	683	0	correct_rejection	NA	0
36	Nonet	49	373	859	6	0	0	756124	683	0	correct_rejection	NA	0
36	Nonet	50	374	860	7	0	0	756840	684	0	correct_rejection	NA	0
36	Nonet	51	375	861	0	1	1	757557	683	1	hit	414	0
36	Nonet	52	376	862	8	0	0	758274	683	0	correct_rejection	NA	0
36	Nonet	53	377	863	9	0	0	758990	684	0	correct_rejection	NA	0
36	Nonet	54	378	864	7	0	0	759707	683	0	correct_rejection	NA	0
36	Nonet	55	379	865	8	0	0	760424	683	0	correct_rejection	NA	0
36	Nonet	56	380	866	9	0	0	761140	684	0	correct_rejection	NA	0
36	Nonet	57	381	867	7	0	0	761857	683	0	correct_rejection	NA	0
36	Nonet	58	382	868	8	0	0	762574	683	0	correct_rejection	NA	0
36	Nonet	59	383	869	9	0	0	763290	684	0	correct_rejection	NA	0
36	Nonet	60	384	870	9	0	0	764007	683	0	correct_rejection	NA	0
36	Nonet	61	385	871	8	0	0	764724	683	0	correct_rejection	NA	0
36	Nonet	62	386	872	7	0	0	765440	684	0	correct_rejection	NA	0
36	Nonet	63	387	873	9	0	0	766157	683	0	correct_rejection	NA	0
36	Nonet	64	388	874	8	0	0	766874	683	0	correct_rejection	NA	0
36	Nonet	65	389	875	0	1	1	767590	684	1	hit	420	0
36	Nonet	66	390	876	7	0	0	768307	683	0	correct_rejection	NA	0
36	Nonet	67	391	877	9	0	0	769024	683	0	correct_rejection	NA	0
36	Nonet	68	392	878	8	0	0	769740	684	0	correct_rejection	NA	0
36	Nonet	69	393	879	7	0	0	770457	683	0	correct_rejection	NA	0
36	Nonet	70	394	880	0	1	3	771174	683	1	hit	424	0
36	Nonet	71	395	881	9	0	0	771890	684	0	correct_rejection	NA	0
36	Nonet	72	396	882	8	0	0	772607	683	0	correct_rejection	NA	0
36	Nonet	73	397	883	7	0	0	773324	683	0	correct_rejection	NA	0
36	Nonet	74	398	884	9	0	0	774040	684	0	correct_rejection	NA	0
36	Nonet	75	399	885	8	0	0	774757	683	0	correct_rejection	NA	0
36	Nonet	76	400	886	7	0	0	775474	683	0	correct_rejection	NA	0
36	Nonet	77	401	887	9	0	0	776190	684	0	correct_rejection	NA	0
36	Nonet	78	402	888	0	1	1	776907	683	1	hit	433	0
36	Nonet	79	403	889	8	0	0	777623	684	0	correct_rejection	NA	0
36	Nonet	80	404	890	7	0	0	778340	683	0	correct_rejection	NA	0
36	Nonet	81	405	891	6	0	0	779057	683	0	correct_rejection	NA	0
36	Nonet	82	406	892	5	0	0	779773	684	0	correct_rejection	NA	0
36	Nonet	83	407	893	4	0	0	780490	683	0	correct_rejection	NA	0
36	Nonet	84	408	894	0	1	2	781207	683	1	hit	400	0
36	Nonet	85	409	895	6	0	0	781923	684	0	correct_rejection	NA	0
36	Nonet	86	410	896	5	0	0	782640	683	0	correct_rejection	NA	0
36	Nonet	87	411	897	4	0	0	783357	683	0	correct_rejection	NA	0
36	Nonet	88	412	898	6	0	0	784073	684	0	correct_rejection	NA	0
36	Nonet	89	413	899	5	0	0	784790	683	0	correct_rejection	NA	0
36	Nonet	90	414	900	4	0	0	785507	683	0	correct_rejection	NA	0
36	Nonet	91	415	901	7	0	0	786223	684	0	correct_rejection	NA	0
36	Nonet	92	416	902	8	0	0	786940	683	0	correct_rejection	NA	0
36	Nonet	93	417	903	9	0	0	787657	683	0	correct_rejection	NA	0
36	Nonet	94	418	904	7	0	0	788373	684	0	correct_rejection	NA	0
36	Nonet	95	419	905	8	0	0	789090	683	0	correct_rejection	NA	0
36	Nonet	96	420	906	9	0	0	789807	683	0	correct_rejection	NA	0
36	Nonet	97	421	907	7	0	0	790523	684	0	correct_rejection	NA	0
36	Nonet	98	422	908	8	0	0	791240	683	0	correct_rejection	NA	0
36	Nonet	99	423	909	9	0	0	791957	683	0	correct_rejection	NA	0
36	Nonet	100	424	910	6	0	0	792673	684	0	correct_rejection	NA	0
36	Nonet	101	425	911	0	1	1	793390	683	1	hit	441	0
36	Nonet	102	426	912	5	0	0	794107	683	0	correct_rejection	NA	0
36	Nonet	103	427	913	4	0	0	794823	684	0	correct_rejection	NA	0
36	Nonet	104	428	914	6	0	0	795540	683	0	correct_rejection	NA	0
36	Nonet	105	429	915	5	0	0	796257	683	0	correct_rejection	NA	0
36	Nonet	106	430	916	4	0	0	796973	684	0	correct_rejection	NA	0
36	Nonet	107	431	917	6	0	0	797690	683	0	correct_rejection	NA	0
36	Nonet	108	432	918	5	0	0	798407	683	0	correct_rejection	NA	0
36	Nonet	109	433	919	4	0	0	799123	684	0	correct_rejection	NA	0
36	Nonet	110	434	920	0	1	3	799840	683	1	hit	401	0
36	Nonet	111	435	921	6	0	0	800557	683	0	correct_rejection	NA	0
36	Nonet	112	436	922	5	0	0	801273	684	0	correct_rejection	NA	0
36	Nonet	113	437	923	0	1	1	801990	683	1	hit	465	0
36	Nonet	114	438	924	4	0	0	802707	683	0	correct_rejection	NA	0
36	Nonet	115	439	925	6	0	0	803423	684	0	correct_rejection	NA	0
36	Nonet	116	440	926	5	0	0	804140	683	0	correct_rejection	NA	0
36	Nonet	117	441	927	4	0	0	804856	684	0	correct_rejection	NA	0
36	Nonet	118	442	928	6	0	0	805573	683	0	correct_rejection	NA	0
36	Nonet	119	443	929	5	0	0	806290	683	0	correct_rejection	NA	0
36	Nonet	120	444	930	4	0	0	807006	684	0	correct_rejection	NA	0
36	Nonet	121	445	931	9	0	0	807723	683	0	correct_rejection	NA	0
36	Nonet	122	446	932	8	0	0	808440	683	0	correct_rejection	NA	0
36	Nonet	123	447	933	0	1	1	809156	684	1	hit	420	0
36	Nonet	124	448	934	7	0	0	809873	683	0	correct_rejection	NA	0
36	Nonet	125	449	935	9	0	0	810590	683	0	correct_rejection	NA	0
36	Nonet	126	450	936	8	0	0	811306	684	0	correct_rejection	NA	0
36	Nonet	127	451	937	7	0	0	812023	683	0	correct_rejection	NA	0
36	Nonet	128	452	938	9	0	0	812740	683	0	correct_rejection	NA	0
36	Nonet	129	453	939	8	0	0	813456	684	0	correct_rejection	NA	0
36	Nonet	130	454	940	7	0	0	814173	683	0	correct_rejection	NA	0
36	Nonet	131	455	941	0	1	3	814890	683	1	hit	504	0
36	Nonet	132	456	942	7	0	0	815606	684	0	correct_rejection	NA	0
36	Nonet	133	457	943	8	0	0	816323	683	0	correct_rejection	NA	0
36	Nonet	134	458	944	9	0	0	817040	683	0	correct_rejection	NA	0
36	Nonet	135	459	945	7	0	0	817756	684	0	correct_rejection	NA	0
36	Nonet	136	460	946	8	0	0	818473	683	0	correct_rejection	NA	0
36	Nonet	137	461	947	0	1	1	819190	683	1	hit	472	0
36	Nonet	138	462	948	9	0	0	819906	684	0	correct_rejection	NA	0
36	Nonet	139	463	949	7	0	0	820623	683	0	correct_rejection	NA	0
36	Nonet	140	464	950	8	0	0	821340	683	0	correct_rejection	NA	0
36	Nonet	141	465	951	9	0	0	822056	684	0	correct_rejection	NA	0
36	Nonet	142	466	952	0	1	3	822773	683	1	hit	396	0
36	Nonet	143	467	953	7	0	0	823490	683	0	correct_rejection	NA	0
36	Nonet	144	468	954	8	0	0	824206	684	0	correct_rejection	NA	0
36	Nonet	145	469	955	9	0	0	824923	683	0	correct_rejection	NA	0
36	Nonet	146	470	956	7	0	0	825640	683	0	correct_rejection	NA	0
36	Nonet	147	471	957	8	0	0	826356	684	0	correct_rejection	NA	0
36	Nonet	148	472	958	9	0	0	827073	683	0	correct_rejection	NA	0
36	Nonet	149	473	959	7	0	0	827790	683	0	correct_rejection	NA	0
36	Nonet	150	474	960	8	0	0	828506	684	0	correct_rejection	NA	0
36	Nonet	151	475	961	9	0	0	829223	683	0	correct_rejection	NA	0
36	Nonet	152	476	962	4	0	0	829940	683	0	correct_rejection	NA	0
36	Nonet	153	477	963	5	0	0	830656	684	0	correct_rejection	NA	0
36	Nonet	154	478	964	0	1	1	831373	683	1	hit	428	0
36	Nonet	155	479	965	6	0	0	832089	684	0	correct_rejection	NA	0
36	Nonet	156	480	966	4	0	0	832806	683	0	correct_rejection	NA	0
36	Nonet	157	481	967	0	1	1	833523	683	1	hit	470	0
36	Nonet	158	482	968	5	0	0	834239	684	0	correct_rejection	NA	0
36	Nonet	159	483	969	6	0	0	834956	683	0	correct_rejection	NA	0
36	Nonet	160	484	970	4	0	0	835673	683	0	correct_rejection	NA	0
36	Nonet	161	485	971	5	0	0	836389	684	0	correct_rejection	NA	0
36	Nonet	162	486	972	6	0	0	837106	683	0	correct_rejection	NA	0
36	Triplet	1	325	973	6	0	0	845573	683	0	correct_rejection	NA	6386
36	Triplet	2	326	974	5	0	0	846289	684	0	correct_rejection	NA	0
36	Triplet	3	327	975	4	0	0	847006	683	0	correct_rejection	NA	0
36	Triplet	4	328	976	6	0	0	847723	683	0	correct_rejection	NA	0
36	Triplet	5	329	977	5	0	0	848439	684	0	correct_rejection	NA	0
36	Triplet	6	330	978	4	0	0	849156	683	0	correct_rejection	NA	0
36	Triplet	7	331	979	9	0	0	849873	683	0	correct_rejection	NA	0
36	Triplet	8	332	980	8	0	0	850589	684	0	correct_rejection	NA	0
36	Triplet	9	333	981	7	0	0	851306	683	0	correct_rejection	NA	0
36	Triplet	10	334	982	9	0	0	852023	683	0	correct_rejection	NA	0
36	Triplet	11	335	983	8	0	0	852739	684	0	correct_rejection	NA	0
36	Triplet	12	336	984	7	0	0	853456	683	0	correct_rejection	NA	0
36	Triplet	13	337	985	7	0	0	854173	683	0	correct_rejection	NA	0
36	Triplet	14	338	986	0	1	1	854889	684	1	hit	493	0
36	Triplet	15	339	987	8	0	0	855606	683	0	correct_rejection	NA	0
36	Triplet	16	340	988	9	0	0	856323	683	0	correct_rejection	NA	0
36	Triplet	17	341	989	9	0	0	857039	684	0	correct_rejection	NA	0
36	Triplet	18	342	990	8	0	0	857756	683	0	correct_rejection	NA	0
36	Triplet	19	343	991	7	0	0	858473	683	0	correct_rejection	NA	0
36	Triplet	20	344	992	6	0	0	859189	684	0	correct_rejection	NA	0
36	Triplet	21	345	993	5	0	0	859906	683	0	correct_rejection	NA	0
36	Triplet	22	346	994	4	0	0	860622	684	0	correct_rejection	NA	0
36	Triplet	23	347	995	7	0	0	861339	683	0	correct_rejection	NA	0
36	Triplet	24	348	996	8	0	0	862056	683	0	correct_rejection	NA	0
36	Triplet	25	349	997	9	0	0	862772	684	0	correct_rejection	NA	0
36	Triplet	26	350	998	4	0	0	863489	683	0	correct_rejection	NA	0
36	Triplet	27	351	999	5	0	0	864206	683	0	correct_rejection	NA	0
36	Triplet	28	352	1000	6	0	0	864922	684	0	correct_rejection	NA	0
36	Triplet	29	353	1001	6	0	0	865639	683	0	correct_rejection	NA	0
36	Triplet	30	354	1002	0	1	1	866356	683	1	hit	603	0
36	Triplet	31	355	1003	5	0	0	867072	684	0	correct_rejection	NA	0
36	Triplet	32	356	1004	4	0	0	867789	683	0	correct_rejection	NA	0
36	Triplet	33	357	1005	4	0	0	868506	683	0	correct_rejection	NA	0
36	Triplet	34	358	1006	5	0	0	869222	684	0	correct_rejection	NA	0
36	Triplet	35	359	1007	6	0	0	869939	683	0	correct_rejection	NA	0
36	Triplet	36	360	1008	9	0	0	870656	683	0	correct_rejection	NA	0
36	Triplet	37	361	1009	8	0	0	871372	684	0	correct_rejection	NA	0
36	Triplet	38	362	1010	7	0	0	872089	683	0	correct_rejection	NA	0
36	Triplet	39	363	1011	4	0	0	872806	683	0	correct_rejection	NA	0
36	Triplet	40	364	1012	5	0	0	873522	684	0	correct_rejection	NA	0
36	Triplet	41	365	1013	6	0	0	874239	683	0	correct_rejection	NA	0
36	Triplet	42	366	1014	4	0	0	874956	683	0	correct_rejection	NA	0
36	Triplet	43	367	1015	0	1	1	875672	684	1	hit	429	0
36	Triplet	44	368	1016	5	0	0	876389	683	0	correct_rejection	NA	0
36	Triplet	45	369	1017	6	0	0	877106	683	0	correct_rejection	NA	0
36	Triplet	46	370	1018	7	0	0	877822	684	0	correct_rejection	NA	0
36	Triplet	47	371	1019	8	0	0	878539	683	0	correct_rejection	NA	0
36	Triplet	48	372	1020	9	0	0	879256	683	0	correct_rejection	NA	0
36	Triplet	49	373	1021	7	0	0	879972	684	0	correct_rejection	NA	0
36	Triplet	50	374	1022	8	0	0	880689	683	0	correct_rejection	NA	0
36	Triplet	51	375	1023	9	0	0	881406	683	0	correct_rejection	NA	0
36	Triplet	52	376	1024	0	1	2	882122	684	1	hit	451	0
36	Triplet	53	377	1025	6	0	0	882839	683	0	correct_rejection	NA	0
36	Triplet	54	378	1026	5	0	0	883556	683	0	correct_rejection	NA	0
36	Triplet	55	379	1027	4	0	0	884272	684	0	correct_rejection	NA	0
36	Triplet	56	380	1028	0	1	2	884989	683	1	hit	408	0
36	Triplet	57	381	1029	7	0	0	885706	683	0	correct_rejection	NA	0
36	Triplet	58	382	1030	8	0	0	886422	684	0	correct_rejection	NA	0
36	Triplet	59	383	1031	9	0	0	887139	683	0	correct_rejection	NA	0
36	Triplet	60	384	1032	9	0	0	887855	684	0	correct_rejection	NA	0
36	Triplet	61	385	1033	8	0	0	888572	683	0	correct_rejection	NA	0
36	Triplet	62	386	1034	7	0	0	889289	683	0	correct_rejection	NA	0
36	Triplet	63	387	1035	4	0	0	890005	684	0	correct_rejection	NA	0
36	Triplet	64	388	1036	5	0	0	890722	683	0	correct_rejection	NA	0
36	Triplet	65	389	1037	6	0	0	891439	683	0	correct_rejection	NA	0
36	Triplet	66	390	1038	7	0	0	892155	684	0	correct_rejection	NA	0
36	Triplet	67	391	1039	8	0	0	892872	683	0	correct_rejection	NA	0
36	Triplet	68	392	1040	0	1	1	893589	683	1	hit	448	0
36	Triplet	69	393	1041	9	0	0	894305	684	0	correct_rejection	NA	0
36	Triplet	70	394	1042	4	0	0	895022	683	0	correct_rejection	NA	0
36	Triplet	71	395	1043	5	0	0	895739	683	0	correct_rejection	NA	0
36	Triplet	72	396	1044	0	1	1	896455	684	1	hit	438	0
36	Triplet	73	397	1045	6	0	0	897172	683	0	correct_rejection	NA	0
36	Triplet	74	398	1046	4	0	0	897889	683	0	correct_rejection	NA	0
36	Triplet	75	399	1047	0	1	1	898605	684	1	hit	387	0
36	Triplet	76	400	1048	5	0	0	899322	683	0	correct_rejection	NA	0
36	Triplet	77	401	1049	6	0	0	900039	683	0	correct_rejection	NA	0
36	Triplet	78	402	1050	9	0	0	900755	684	0	correct_rejection	NA	0
36	Triplet	79	403	1051	0	1	1	901472	683	1	hit	391	0
36	Triplet	80	404	1052	8	0	0	902189	683	0	correct_rejection	NA	0
36	Triplet	81	405	1053	7	0	0	902905	684	0	correct_rejection	NA	0
36	Triplet	82	406	1054	9	0	0	903622	683	0	correct_rejection	NA	0
36	Triplet	83	407	1055	8	0	0	904339	683	0	correct_rejection	NA	0
36	Triplet	84	408	1056	7	0	0	905055	684	0	correct_rejection	NA	0
36	Triplet	85	409	1057	6	0	0	905772	683	0	correct_rejection	NA	0
36	Triplet	86	410	1058	5	0	0	906489	683	0	correct_rejection	NA	0
36	Triplet	87	411	1059	4	0	0	907205	684	0	correct_rejection	NA	0
36	Triplet	88	412	1060	4	0	0	907922	683	0	correct_rejection	NA	0
36	Triplet	89	413	1061	5	0	0	908639	683	0	correct_rejection	NA	0
36	Triplet	90	414	1062	6	0	0	909355	684	0	correct_rejection	NA	0
36	Triplet	91	415	1063	6	0	0	910072	683	0	correct_rejection	NA	0
36	Triplet	92	416	1064	5	0	0	910789	683	0	correct_rejection	NA	0
36	Triplet	93	417	1065	4	0	0	911505	684	0	correct_rejection	NA	0
36	Triplet	94	418	1066	9	0	0	912222	683	0	correct_rejection	NA	0
36	Triplet	95	419	1067	8	0	0	912939	683	0	correct_rejection	NA	0
36	Triplet	96	420	1068	7	0	0	913655	684	0	correct_rejection	NA	0
36	Triplet	97	421	1069	0	1	2	914372	683	1	hit	417	0
36	Triplet	98	422	1070	7	0	0	915088	684	0	correct_rejection	NA	0
36	Triplet	99	423	1071	8	0	0	915805	684	0	correct_rejection	NA	0
36	Triplet	100	424	1072	9	0	0	916522	683	0	correct_rejection	NA	0
36	Triplet	101	425	1073	7	0	0	917238	684	0	correct_rejection	NA	0
36	Triplet	102	426	1074	8	0	0	917955	683	0	correct_rejection	NA	0
36	Triplet	103	427	1075	9	0	0	918672	683	0	correct_rejection	NA	0
36	Triplet	104	428	1076	6	0	0	919388	684	0	correct_rejection	NA	0
36	Triplet	105	429	1077	5	0	0	920105	683	0	correct_rejection	NA	0
36	Triplet	106	430	1078	4	0	0	920822	683	0	correct_rejection	NA	0
36	Triplet	107	431	1079	0	1	2	921538	684	1	hit	397	0
36	Triplet	108	432	1080	6	0	0	922255	683	0	correct_rejection	NA	0
36	Triplet	109	433	1081	5	0	0	922972	683	0	correct_rejection	NA	0
36	Triplet	110	434	1082	0	1	1	923688	684	1	hit	400	0
36	Triplet	111	435	1083	4	0	0	924405	683	0	correct_rejection	NA	0
36	Triplet	112	436	1084	9	0	0	925122	683	0	correct_rejection	NA	0
36	Triplet	113	437	1085	8	0	0	925838	684	0	correct_rejection	NA	0
36	Triplet	114	438	1086	7	0	0	926555	683	0	correct_rejection	NA	0
36	Triplet	115	439	1087	4	0	0	927272	683	0	correct_rejection	NA	0
36	Triplet	116	440	1088	5	0	0	927988	684	0	correct_rejection	NA	0
36	Triplet	117	441	1089	6	0	0	928705	683	0	correct_rejection	NA	0
36	Triplet	118	442	1090	9	0	0	929422	683	0	correct_rejection	NA	0
36	Triplet	119	443	1091	8	0	0	930138	684	0	correct_rejection	NA	0
36	Triplet	120	444	1092	7	0	0	930855	683	0	correct_rejection	NA	0
36	Triplet	121	445	1093	7	0	0	931572	683	0	correct_rejection	NA	0
36	Triplet	122	446	1094	8	0	0	932288	684	0	correct_rejection	NA	0
36	Triplet	123	447	1095	9	0	0	933005	683	0	correct_rejection	NA	0
36	Triplet	124	448	1096	6	0	0	933722	683	0	correct_rejection	NA	0
36	Triplet	125	449	1097	5	0	0	934438	684	0	correct_rejection	NA	0
36	Triplet	126	450	1098	4	0	0	935155	683	0	correct_rejection	NA	0
36	Triplet	127	451	1099	4	0	0	935872	683	0	correct_rejection	NA	0
36	Triplet	128	452	1100	0	1	1	936588	684	1	hit	448	0
36	Triplet	129	453	1101	5	0	0	937305	683	0	correct_rejection	NA	0
36	Triplet	130	454	1102	6	0	0	938022	683	0	correct_rejection	NA	0
36	Triplet	131	455	1103	0	1	2	938738	684	1	hit	474	0
36	Triplet	132	456	1104	4	0	0	939455	683	0	correct_rejection	NA	0
36	Triplet	133	457	1105	5	0	0	940172	683	0	correct_rejection	NA	0
36	Triplet	134	458	1106	6	0	0	940888	684	0	correct_rejection	NA	0
36	Triplet	135	459	1107	6	0	0	941605	683	0	correct_rejection	NA	0
36	Triplet	136	460	1108	5	0	0	942322	683	0	correct_rejection	NA	0
36	Triplet	137	461	1109	4	0	0	943038	684	0	correct_rejection	NA	0
36	Triplet	138	462	1110	6	0	0	943755	683	0	correct_rejection	NA	0
36	Triplet	139	463	1111	5	0	0	944471	684	0	correct_rejection	NA	0
36	Triplet	140	464	1112	0	1	1	945188	683	1	hit	406	0
36	Triplet	141	465	1113	4	0	0	945905	683	0	correct_rejection	NA	0
36	Triplet	142	466	1114	7	0	0	946621	684	0	correct_rejection	NA	0
36	Triplet	143	467	1115	8	0	0	947338	683	0	correct_rejection	NA	0
36	Triplet	144	468	1116	9	0	0	948055	683	0	correct_rejection	NA	0
36	Triplet	145	469	1117	7	0	0	948771	684	0	correct_rejection	NA	0
36	Triplet	146	470	1118	8	0	0	949488	683	0	correct_rejection	NA	0
36	Triplet	147	471	1119	9	0	0	950205	683	0	correct_rejection	NA	0
36	Triplet	148	472	1120	4	0	0	950921	684	0	correct_rejection	NA	0
36	Triplet	149	473	1121	5	0	0	951638	683	0	correct_rejection	NA	0
36	Triplet	150	474	1122	6	0	0	952355	683	0	correct_rejection	NA	0
36	Triplet	151	475	1123	0	1	2	953071	684	1	hit	407	0
36	Triplet	152	476	1124	7	0	0	953788	683	0	correct_rejection	NA	0
36	Triplet	153	477	1125	8	0	0	954505	683	0	correct_rejection	NA	0
36	Triplet	154	478	1126	0	1	1	955221	684	1	hit	459	0
36	Triplet	155	479	1127	9	0	0	955938	683	0	correct_rejection	NA	0
36	Triplet	156	480	1128	9	0	0	956655	683	0	correct_rejection	NA	0
36	Triplet	157	481	1129	8	0	0	957371	684	0	correct_rejection	NA	0
36	Triplet	158	482	1130	7	0	0	958088	683	0	correct_rejection	NA	0
36	Triplet	159	483	1131	9	0	0	958805	683	0	correct_rejection	NA	0
36	Triplet	160	484	1132	0	1	1	959521	684	1	hit	387	0
36	Triplet	161	485	1133	8	0	0	960238	683	0	correct_rejection	NA	0
36	Triplet	162	486	1134	7	0	0	960955	683	0	correct_rejection	NA	0
36	Single	1	325	1135	9	0	0	970804	684	0	correct_rejection	NA	7616
36	Single	2	326	1136	5	0	0	971521	684	0	correct_rejection	NA	0
36	Single	3	327	1137	7	0	0	972238	683	0	correct_rejection	NA	0
36	Single	4	328	1138	6	0	0	972954	684	0	correct_rejection	NA	0
36	Single	5	329	1139	0	1	1	973671	683	1	hit	459	0
36	Single	6	330	1140	9	0	0	974388	683	0	correct_rejection	NA	0
36	Single	7	331	1141	4	0	0	975104	684	0	correct_rejection	NA	0
36	Single	8	332	1142	4	0	0	975821	683	0	correct_rejection	NA	0
36	Single	9	333	1143	7	0	0	976538	683	0	correct_rejection	NA	0
36	Single	10	334	1144	8	0	0	977254	684	0	correct_rejection	NA	0
36	Single	11	335	1145	5	0	0	977971	683	0	correct_rejection	NA	0
36	Single	12	336	1146	9	0	0	978688	683	0	correct_rejection	NA	0
36	Single	13	337	1147	0	1	1	979404	684	1	hit	379	0
36	Single	14	338	1148	8	0	0	980121	683	0	correct_rejection	NA	0
36	Single	15	339	1149	6	0	0	980838	683	0	correct_rejection	NA	0
36	Single	16	340	1150	7	0	0	981554	684	0	correct_rejection	NA	0
36	Single	17	341	1151	4	0	0	982271	683	0	correct_rejection	NA	0
36	Single	18	342	1152	0	1	1	982988	683	1	hit	396	0
36	Single	19	343	1153	5	0	0	983704	684	0	correct_rejection	NA	0
36	Single	20	344	1154	8	0	0	984421	683	0	correct_rejection	NA	0
36	Single	21	345	1155	8	0	0	985138	683	0	correct_rejection	NA	0
36	Single	22	346	1156	9	0	0	985854	684	0	correct_rejection	NA	0
36	Single	23	347	1157	7	0	0	986571	683	0	correct_rejection	NA	0
36	Single	24	348	1158	5	0	0	987288	683	0	correct_rejection	NA	0
36	Single	25	349	1159	5	0	0	988004	684	0	correct_rejection	NA	0
36	Single	26	350	1160	4	0	0	988721	683	0	correct_rejection	NA	0
36	Single	27	351	1161	9	0	0	989438	683	0	correct_rejection	NA	0
36	Single	28	352	1162	9	0	0	990154	684	0	correct_rejection	NA	0
36	Single	29	353	1163	6	0	0	990871	683	0	correct_rejection	NA	0
36	Single	30	354	1164	8	0	0	991588	683	0	correct_rejection	NA	0
36	Single	31	355	1165	4	0	0	992304	684	0	correct_rejection	NA	0
36	Single	32	356	1166	6	0	0	993021	683	0	correct_rejection	NA	0
36	Single	33	357	1167	0	1	1	993738	683	1	hit	354	0
36	Single	34	358	1168	6	0	0	994454	684	0	correct_rejection	NA	0
36	Single	35	359	1169	5	0	0	995171	683	0	correct_rejection	NA	0
36	Single	36	360	1170	6	0	0	995888	683	0	correct_rejection	NA	0
36	Single	37	361	1171	4	0	0	996604	684	0	correct_rejection	NA	0
36	Single	38	362	1172	8	0	0	997321	683	0	correct_rejection	NA	0
36	Single	39	363	1173	7	0	0	998038	683	0	correct_rejection	NA	0
36	Single	40	364	1174	7	0	0	998754	684	0	correct_rejection	NA	0
36	Single	41	365	1175	5	0	0	999471	683	0	correct_rejection	NA	0
36	Single	42	366	1176	8	0	0	1000187	684	0	correct_rejection	NA	0
36	Single	43	367	1177	4	0	0	1000904	683	0	correct_rejection	NA	0
36	Single	44	368	1178	5	0	0	1001621	683	0	correct_rejection	NA	0
36	Single	45	369	1179	6	0	0	1002337	684	0	correct_rejection	NA	0
36	Single	46	370	1180	8	0	0	1003054	683	0	correct_rejection	NA	0
36	Single	47	371	1181	6	0	0	1003771	683	0	correct_rejection	NA	0
36	Single	48	372	1182	6	0	0	1004487	684	0	correct_rejection	NA	0
36	Single	49	373	1183	0	1	1	1005204	683	1	hit	495	0
36	Single	50	374	1184	4	0	0	1005921	683	0	correct_rejection	NA	0
36	Single	51	375	1185	7	0	0	1006637	684	0	correct_rejection	NA	0
36	Single	52	376	1186	9	0	0	1007354	683	0	correct_rejection	NA	0
36	Single	53	377	1187	0	1	1	1008071	683	1	hit	416	0
36	Single	54	378	1188	7	0	0	1008787	684	0	correct_rejection	NA	0
36	Single	55	379	1189	7	0	0	1009504	683	0	correct_rejection	NA	0
36	Single	56	380	1190	8	0	0	1010221	683	0	correct_rejection	NA	0
36	Single	57	381	1191	0	1	1	1010937	684	1	hit	433	0
36	Single	58	382	1192	7	0	0	1011654	683	0	correct_rejection	NA	0
36	Single	59	383	1193	4	0	0	1012371	683	0	correct_rejection	NA	0
36	Single	60	384	1194	0	1	1	1013087	684	1	hit	420	0
36	Single	61	385	1195	9	0	0	1013804	683	0	correct_rejection	NA	0
36	Single	62	386	1196	8	0	0	1014521	683	0	correct_rejection	NA	0
36	Single	63	387	1197	9	0	0	1015237	684	0	correct_rejection	NA	0
36	Single	64	388	1198	5	0	0	1015954	683	0	correct_rejection	NA	0
36	Single	65	389	1199	5	0	0	1016671	683	0	correct_rejection	NA	0
36	Single	66	390	1200	7	0	0	1017387	684	0	correct_rejection	NA	0
36	Single	67	391	1201	5	0	0	1018104	683	0	correct_rejection	NA	0
36	Single	68	392	1202	9	0	0	1018821	683	0	correct_rejection	NA	0
36	Single	69	393	1203	6	0	0	1019537	684	0	correct_rejection	NA	0
36	Single	70	394	1204	9	0	0	1020254	683	0	correct_rejection	NA	0
36	Single	71	395	1205	9	0	0	1020971	683	0	correct_rejection	NA	0
36	Single	72	396	1206	4	0	0	1021687	684	0	correct_rejection	NA	0
36	Single	73	397	1207	6	0	0	1022404	683	0	correct_rejection	NA	0
36	Single	74	398	1208	7	0	0	1023121	683	0	correct_rejection	NA	0
36	Single	75	399	1209	6	0	0	1023837	684	0	correct_rejection	NA	0
36	Single	76	400	1210	5	0	0	1024554	683	0	correct_rejection	NA	0
36	Single	77	401	1211	0	1	1	1025271	683	1	hit	444	0
36	Single	78	402	1212	4	0	0	1025987	684	0	correct_rejection	NA	0
36	Single	79	403	1213	4	0	0	1026704	683	0	correct_rejection	NA	0
36	Single	80	404	1214	8	0	0	1027420	684	0	correct_rejection	NA	0
36	Single	81	405	1215	8	0	0	1028137	683	0	correct_rejection	NA	0
36	Single	82	406	1216	0	1	1	1028854	683	1	hit	475	0
36	Single	83	407	1217	8	0	0	1029570	684	0	correct_rejection	NA	0
36	Single	84	408	1218	4	0	0	1030287	683	0	correct_rejection	NA	0
36	Single	85	409	1219	9	0	0	1031004	683	0	correct_rejection	NA	0
36	Single	86	410	1220	7	0	0	1031720	684	0	correct_rejection	NA	0
36	Single	87	411	1221	4	0	0	1032437	683	0	correct_rejection	NA	0
36	Single	88	412	1222	8	0	0	1033154	683	0	correct_rejection	NA	0
36	Single	89	413	1223	9	0	0	1033870	684	0	correct_rejection	NA	0
36	Single	90	414	1224	4	0	0	1034587	683	0	correct_rejection	NA	0
36	Single	91	415	1225	7	0	0	1035304	683	0	correct_rejection	NA	0
36	Single	92	416	1226	6	0	0	1036020	684	0	correct_rejection	NA	0
36	Single	93	417	1227	6	0	0	1036737	683	0	correct_rejection	NA	0
36	Single	94	418	1228	0	1	1	1037454	683	1	hit	463	0
36	Single	95	419	1229	8	0	0	1038170	684	0	correct_rejection	NA	0
36	Single	96	420	1230	8	0	0	1038887	683	0	correct_rejection	NA	0
36	Single	97	421	1231	5	0	0	1039604	683	0	correct_rejection	NA	0
36	Single	98	422	1232	5	0	0	1040320	684	0	correct_rejection	NA	0
36	Single	99	423	1233	6	0	0	1041037	683	0	correct_rejection	NA	0
36	Single	100	424	1234	0	1	1	1041754	683	1	hit	573	0
36	Single	101	425	1235	7	0	0	1042470	684	0	correct_rejection	NA	0
36	Single	102	426	1236	9	0	0	1043187	683	0	correct_rejection	NA	0
36	Single	103	427	1237	6	0	0	1043904	683	0	correct_rejection	NA	0
36	Single	104	428	1238	4	0	0	1044620	684	0	correct_rejection	NA	0
36	Single	105	429	1239	4	0	0	1045337	683	0	correct_rejection	NA	0
36	Single	106	430	1240	6	0	0	1046054	683	0	correct_rejection	NA	0
36	Single	107	431	1241	9	0	0	1046770	684	0	correct_rejection	NA	0
36	Single	108	432	1242	5	0	0	1047487	683	0	correct_rejection	NA	0
36	Single	109	433	1243	4	0	0	1048204	683	0	correct_rejection	NA	0
36	Single	110	434	1244	5	0	0	1048920	684	0	correct_rejection	NA	0
36	Single	111	435	1245	9	0	0	1049637	683	0	correct_rejection	NA	0
36	Single	112	436	1246	9	0	0	1050354	683	0	correct_rejection	NA	0
36	Single	113	437	1247	8	0	0	1051070	684	0	correct_rejection	NA	0
36	Single	114	438	1248	7	0	0	1051787	683	0	correct_rejection	NA	0
36	Single	115	439	1249	8	0	0	1052504	683	0	correct_rejection	NA	0
36	Single	116	440	1250	6	0	0	1053220	684	0	correct_rejection	NA	0
36	Single	117	441	1251	5	0	0	1053937	683	0	correct_rejection	NA	0
36	Single	118	442	1252	7	0	0	1054653	684	0	correct_rejection	NA	0
36	Single	119	443	1253	7	0	0	1055370	683	0	correct_rejection	NA	0
36	Single	120	444	1254	5	0	0	1056087	683	0	correct_rejection	NA	0
36	Single	121	445	1255	8	0	0	1056803	684	0	correct_rejection	NA	0
36	Single	122	446	1256	7	0	0	1057520	683	0	correct_rejection	NA	0
36	Single	123	447	1257	9	0	0	1058237	683	0	correct_rejection	NA	0
36	Single	124	448	1258	0	1	1	1058953	684	1	hit	440	0
36	Single	125	449	1259	9	0	0	1059670	683	0	correct_rejection	NA	0
36	Single	126	450	1260	6	0	0	1060387	683	0	correct_rejection	NA	0
36	Single	127	451	1261	0	1	1	1061103	684	1	hit	390	0
36	Single	128	452	1262	5	0	0	1061820	683	0	correct_rejection	NA	0
36	Single	129	453	1263	5	0	0	1062537	683	0	correct_rejection	NA	0
36	Single	130	454	1264	9	0	0	1063253	684	0	correct_rejection	NA	0
36	Single	131	455	1265	4	0	0	1063970	683	0	correct_rejection	NA	0
36	Single	132	456	1266	9	0	0	1064687	683	0	correct_rejection	NA	0
36	Single	133	457	1267	5	0	0	1065403	684	0	correct_rejection	NA	0
36	Single	134	458	1268	7	0	0	1066120	683	0	correct_rejection	NA	0
36	Single	135	459	1269	4	0	0	1066837	683	0	correct_rejection	NA	0
36	Single	136	460	1270	4	0	0	1067553	684	0	correct_rejection	NA	0
36	Single	137	461	1271	5	0	0	1068270	683	0	correct_rejection	NA	0
36	Single	138	462	1272	8	0	0	1068987	683	0	correct_rejection	NA	0
36	Single	139	463	1273	8	0	0	1069703	684	0	correct_rejection	NA	0
36	Single	140	464	1274	0	1	1	1070420	683	1	hit	488	0
36	Single	141	465	1275	9	0	0	1071137	683	0	correct_rejection	NA	0
36	Single	142	466	1276	7	0	0	1071853	684	0	correct_rejection	NA	0
36	Single	143	467	1277	8	0	0	1072570	683	0	correct_rejection	NA	0
36	Single	144	468	1278	4	0	0	1073287	683	0	correct_rejection	NA	0
36	Single	145	469	1279	8	0	0	1074003	684	0	correct_rejection	NA	0
36	Single	146	470	1280	6	0	0	1074720	683	0	correct_rejection	NA	0
36	Single	147	471	1281	9	0	0	1075437	683	0	correct_rejection	NA	0
36	Single	148	472	1282	8	0	0	1076153	684	0	correct_rejection	NA	0
36	Single	149	473	1283	0	1	1	1076870	683	1	hit	419	0
36	Single	150	474	1284	5	0	0	1077587	683	0	correct_rejection	NA	0
36	Single	151	475	1285	4	0	0	1078303	684	0	correct_rejection	NA	0
36	Single	152	476	1286	0	1	1	1079020	683	1	hit	444	0
36	Single	153	477	1287	7	0	0	1079737	683	0	correct_rejection	NA	0
36	Single	154	478	1288	5	0	0	1080453	684	0	correct_rejection	NA	0
36	Single	155	479	1289	0	1	1	1081170	683	1	hit	419	0
36	Single	156	480	1290	6	0	0	1081886	684	0	correct_rejection	NA	0
36	Single	157	481	1291	6	0	0	1082603	683	0	correct_rejection	NA	0
36	Single	158	482	1292	7	0	0	1083320	683	0	correct_rejection	NA	0
36	Single	159	483	1293	7	0	0	1084036	684	0	correct_rejection	NA	0
36	Single	160	484	1294	6	0	0	1084753	683	0	correct_rejection	NA	0
36	Single	161	485	1295	4	0	0	1085470	683	0	correct_rejection	NA	0
36	Single	162	486	1296	6	0	0	1086186	684	0	correct_rejection	NA	0
36	Correct	1	325	1297	4	0	0	1095986	684	0	correct_rejection	NA	7807
36	Correct	2	326	1298	5	0	0	1096703	683	0	correct_rejection	NA	0
36	Correct	3	327	1299	6	0	0	1097420	683	0	correct_rejection	NA	0
36	Correct	4	328	1300	4	0	0	1098136	684	0	correct_rejection	NA	0
36	Correct	5	329	1301	5	0	0	1098853	683	0	correct_rejection	NA	0
36	Correct	6	330	1302	6	0	0	1099570	683	0	correct_rejection	NA	0
36	Correct	7	331	1303	4	0	0	1100286	684	0	correct_rejection	NA	0
36	Correct	8	332	1304	5	0	0	1101003	683	0	correct_rejection	NA	0
36	Correct	9	333	1305	6	0	0	1101720	683	0	correct_rejection	NA	0
36	Correct	10	334	1306	0	1	3	1102436	684	1	hit	392	0
36	Correct	11	335	1307	6	0	0	1103153	683	0	correct_rejection	NA	0
36	Correct	12	336	1308	5	0	0	1103870	683	0	correct_rejection	NA	0
36	Correct	13	337	1309	4	0	0	1104586	684	0	correct_rejection	NA	0
36	Correct	14	338	1310	6	0	0	1105303	683	0	correct_rejection	NA	0
36	Correct	15	339	1311	5	0	0	1106020	683	0	correct_rejection	NA	0
36	Correct	16	340	1312	4	0	0	1106736	684	0	correct_rejection	NA	0
36	Correct	17	341	1313	6	0	0	1107453	683	0	correct_rejection	NA	0
36	Correct	18	342	1314	0	1	1	1108170	683	1	hit	481	0
36	Correct	19	343	1315	5	0	0	1108886	684	0	correct_rejection	NA	0
36	Correct	20	344	1316	4	0	0	1109603	683	0	correct_rejection	NA	0
36	Correct	21	345	1317	9	0	0	1110319	684	0	correct_rejection	NA	0
36	Correct	22	346	1318	8	0	0	1111036	683	0	correct_rejection	NA	0
36	Correct	23	347	1319	7	0	0	1111753	683	0	correct_rejection	NA	0
36	Correct	24	348	1320	0	1	2	1112469	684	1	hit	397	0
36	Correct	25	349	1321	9	0	0	1113186	683	0	correct_rejection	NA	0
36	Correct	26	350	1322	8	0	0	1113903	683	0	correct_rejection	NA	0
36	Correct	27	351	1323	7	0	0	1114619	684	0	correct_rejection	NA	0
36	Correct	28	352	1324	9	0	0	1115336	683	0	correct_rejection	NA	0
36	Correct	29	353	1325	8	0	0	1116053	683	0	correct_rejection	NA	0
36	Correct	30	354	1326	7	0	0	1116769	684	0	correct_rejection	NA	0
36	Correct	31	355	1327	7	0	0	1117486	683	0	correct_rejection	NA	0
36	Correct	32	356	1328	8	0	0	1118203	683	0	correct_rejection	NA	0
36	Correct	33	357	1329	9	0	0	1118919	684	0	correct_rejection	NA	0
36	Correct	34	358	1330	7	0	0	1119636	683	0	correct_rejection	NA	0
36	Correct	35	359	1331	8	0	0	1120353	683	0	correct_rejection	NA	0
36	Correct	36	360	1332	9	0	0	1121069	684	0	correct_rejection	NA	0
36	Correct	37	361	1333	7	0	0	1121786	683	0	correct_rejection	NA	0
36	Correct	38	362	1334	0	1	1	1122503	683	1	hit	413	0
36	Correct	39	363	1335	8	0	0	1123219	684	0	correct_rejection	NA	0
36	Correct	40	364	1336	9	0	0	1123936	683	0	correct_rejection	NA	0
36	Correct	41	365	1337	4	0	0	1124653	683	0	correct_rejection	NA	0
36	Correct	42	366	1338	5	0	0	1125369	684	0	correct_rejection	NA	0
36	Correct	43	367	1339	6	0	0	1126086	683	0	correct_rejection	NA	0
36	Correct	44	368	1340	4	0	0	1126803	683	0	correct_rejection	NA	0
36	Correct	45	369	1341	5	0	0	1127519	684	0	correct_rejection	NA	0
36	Correct	46	370	1342	6	0	0	1128236	683	0	correct_rejection	NA	0
36	Correct	47	371	1343	4	0	0	1128953	683	0	correct_rejection	NA	0
36	Correct	48	372	1344	0	1	1	1129669	684	1	hit	427	0
36	Correct	49	373	1345	5	0	0	1130386	683	0	correct_rejection	NA	0
36	Correct	50	374	1346	6	0	0	1131103	683	0	correct_rejection	NA	0
36	Correct	51	375	1347	6	0	0	1131819	684	0	correct_rejection	NA	0
36	Correct	52	376	1348	5	0	0	1132536	683	0	correct_rejection	NA	0
36	Correct	53	377	1349	4	0	0	1133253	683	0	correct_rejection	NA	0
36	Correct	54	378	1350	6	0	0	1133969	684	0	correct_rejection	NA	0
36	Correct	55	379	1351	5	0	0	1134686	683	0	correct_rejection	NA	0
36	Correct	56	380	1352	4	0	0	1135403	683	0	correct_rejection	NA	0
36	Correct	57	381	1353	6	0	0	1136119	684	0	correct_rejection	NA	0
36	Correct	58	382	1354	5	0	0	1136836	683	0	correct_rejection	NA	0
36	Correct	59	383	1355	4	0	0	1137552	684	0	correct_rejection	NA	0
36	Correct	60	384	1356	9	0	0	1138269	683	0	correct_rejection	NA	0
36	Correct	61	385	1357	8	0	0	1138986	683	0	correct_rejection	NA	0
36	Correct	62	386	1358	7	0	0	1139702	684	0	correct_rejection	NA	0
36	Correct	63	387	1359	9	0	0	1140419	683	0	correct_rejection	NA	0
36	Correct	64	388	1360	8	0	0	1141136	683	0	correct_rejection	NA	0
36	Correct	65	389	1361	0	1	1	1141852	684	1	hit	438	0
36	Correct	66	390	1362	7	0	0	1142569	683	0	correct_rejection	NA	0
36	Correct	67	391	1363	9	0	0	1143286	683	0	correct_rejection	NA	0
36	Correct	68	392	1364	8	0	0	1144002	684	0	correct_rejection	NA	0
36	Correct	69	393	1365	7	0	0	1144719	683	0	correct_rejection	NA	0
36	Correct	70	394	1366	7	0	0	1145436	683	0	correct_rejection	NA	0
36	Correct	71	395	1367	8	0	0	1146152	684	0	correct_rejection	NA	0
36	Correct	72	396	1368	9	0	0	1146869	683	0	correct_rejection	NA	0
36	Correct	73	397	1369	0	1	2	1147586	683	1	hit	444	0
36	Correct	74	398	1370	7	0	0	1148302	684	0	correct_rejection	NA	0
36	Correct	75	399	1371	8	0	0	1149019	683	0	correct_rejection	NA	0
36	Correct	76	400	1372	0	1	1	1149736	683	1	hit	445	0
36	Correct	77	401	1373	9	0	0	1150452	684	0	correct_rejection	NA	0
36	Correct	78	402	1374	7	0	0	1151169	683	0	correct_rejection	NA	0
36	Correct	79	403	1375	8	0	0	1151886	683	0	correct_rejection	NA	0
36	Correct	80	404	1376	0	1	1	1152602	684	1	hit	405	0
36	Correct	81	405	1377	9	0	0	1153319	683	0	correct_rejection	NA	0
36	Correct	82	406	1378	4	0	0	1154036	683	0	correct_rejection	NA	0
36	Correct	83	407	1379	5	0	0	1154752	684	0	correct_rejection	NA	0
36	Correct	84	408	1380	0	1	1	1155469	683	1	hit	404	0
36	Correct	85	409	1381	6	0	0	1156186	683	0	correct_rejection	NA	0
36	Correct	86	410	1382	4	0	0	1156902	684	0	correct_rejection	NA	0
36	Correct	87	411	1383	5	0	0	1157619	683	0	correct_rejection	NA	0
36	Correct	88	412	1384	6	0	0	1158336	683	0	correct_rejection	NA	0
36	Correct	89	413	1385	4	0	0	1159052	684	0	correct_rejection	NA	0
36	Correct	90	414	1386	5	0	0	1159769	683	0	correct_rejection	NA	0
36	Correct	91	415	1387	6	0	0	1160486	683	0	correct_rejection	NA	0
36	Correct	92	416	1388	6	0	0	1161202	684	0	correct_rejection	NA	0
36	Correct	93	417	1389	5	0	0	1161919	683	0	correct_rejection	NA	0
36	Correct	94	418	1390	4	0	0	1162636	683	0	correct_rejection	NA	0
36	Correct	95	419	1391	6	0	0	1163352	684	0	correct_rejection	NA	0
36	Correct	96	420	1392	5	0	0	1164069	683	0	correct_rejection	NA	0
36	Correct	97	421	1393	4	0	0	1164785	684	0	correct_rejection	NA	0
36	Correct	98	422	1394	6	0	0	1165502	684	0	correct_rejection	NA	0
36	Correct	99	423	1395	5	0	0	1166219	683	0	correct_rejection	NA	0
36	Correct	100	424	1396	4	0	0	1166935	684	0	correct_rejection	NA	0
36	Correct	101	425	1397	9	0	0	1167652	683	0	correct_rejection	NA	0
36	Correct	102	426	1398	8	0	0	1168369	683	0	correct_rejection	NA	0
36	Correct	103	427	1399	7	0	0	1169085	684	0	correct_rejection	NA	0
36	Correct	104	428	1400	0	1	2	1169802	683	1	hit	580	0
36	Correct	105	429	1401	9	0	0	1170519	683	0	correct_rejection	NA	0
36	Correct	106	430	1402	8	0	0	1171235	684	0	correct_rejection	NA	0
36	Correct	107	431	1403	7	0	0	1171952	683	0	correct_rejection	NA	0
36	Correct	108	432	1404	9	0	0	1172669	683	0	correct_rejection	NA	0
36	Correct	109	433	1405	8	0	0	1173385	684	0	correct_rejection	NA	0
36	Correct	110	434	1406	7	0	0	1174102	683	0	correct_rejection	NA	0
36	Correct	111	435	1407	0	1	3	1174819	683	1	hit	426	0
36	Correct	112	436	1408	7	0	0	1175535	684	0	correct_rejection	NA	0
36	Correct	113	437	1409	8	0	0	1176252	683	0	correct_rejection	NA	0
36	Correct	114	438	1410	9	0	0	1176969	683	0	correct_rejection	NA	0
36	Correct	115	439	1411	7	0	0	1177685	684	0	correct_rejection	NA	0
36	Correct	116	440	1412	0	1	1	1178402	683	1	hit	517	0
36	Correct	117	441	1413	8	0	0	1179119	683	0	correct_rejection	NA	0
36	Correct	118	442	1414	9	0	0	1179835	684	0	correct_rejection	NA	0
36	Correct	119	443	1415	7	0	0	1180552	683	0	correct_rejection	NA	0
36	Correct	120	444	1416	0	1	1	1181269	683	1	hit	409	0
36	Correct	121	445	1417	8	0	0	1181985	684	0	correct_rejection	NA	0
36	Correct	122	446	1418	9	0	0	1182702	683	0	correct_rejection	NA	0
36	Correct	123	447	1419	4	0	0	1183419	683	0	correct_rejection	NA	0
36	Correct	124	448	1420	5	0	0	1184135	684	0	correct_rejection	NA	0
36	Correct	125	449	1421	6	0	0	1184852	683	0	correct_rejection	NA	0
36	Correct	126	450	1422	4	0	0	1185569	683	0	correct_rejection	NA	0
36	Correct	127	451	1423	0	1	1	1186285	684	1	hit	432	0
36	Correct	128	452	1424	5	0	0	1187002	683	0	correct_rejection	NA	0
36	Correct	129	453	1425	6	0	0	1187719	683	0	correct_rejection	NA	0
36	Correct	130	454	1426	4	0	0	1188435	684	0	correct_rejection	NA	0
36	Correct	131	455	1427	5	0	0	1189152	683	0	correct_rejection	NA	0
36	Correct	132	456	1428	6	0	0	1189869	683	0	correct_rejection	NA	0
36	Correct	133	457	1429	6	0	0	1190585	684	0	correct_rejection	NA	0
36	Correct	134	458	1430	5	0	0	1191302	683	0	correct_rejection	NA	0
36	Correct	135	459	1431	0	1	1	1192018	684	1	hit	429	0
36	Correct	136	460	1432	4	0	0	1192735	684	0	correct_rejection	NA	0
36	Correct	137	461	1433	6	0	0	1193452	683	0	correct_rejection	NA	0
36	Correct	138	462	1434	5	0	0	1194168	684	0	correct_rejection	NA	0
36	Correct	139	463	1435	4	0	0	1194885	683	0	correct_rejection	NA	0
36	Correct	140	464	1436	6	0	0	1195602	683	0	correct_rejection	NA	0
36	Correct	141	465	1437	5	0	0	1196318	684	0	correct_rejection	NA	0
36	Correct	142	466	1438	4	0	0	1197035	683	0	correct_rejection	NA	0
36	Correct	143	467	1439	9	0	0	1197752	683	0	correct_rejection	NA	0
36	Correct	144	468	1440	8	0	0	1198468	684	0	correct_rejection	NA	0
36	Correct	145	469	1441	7	0	0	1199185	683	0	correct_rejection	NA	0
36	Correct	146	470	1442	9	0	0	1199902	683	0	correct_rejection	NA	0
36	Correct	147	471	1443	0	1	1	1200618	684	1	hit	461	0
36	Correct	148	472	1444	8	0	0	1201335	683	0	correct_rejection	NA	0
36	Correct	149	473	1445	7	0	0	1202052	683	0	correct_rejection	NA	0
36	Correct	150	474	1446	9	0	0	1202768	684	0	correct_rejection	NA	0
36	Correct	151	475	1447	8	0	0	1203485	683	0	correct_rejection	NA	0
36	Correct	152	476	1448	7	0	0	1204202	683	0	correct_rejection	NA	0
36	Correct	153	477	1449	7	0	0	1204918	684	0	correct_rejection	NA	0
36	Correct	154	478	1450	8	0	0	1205635	683	0	correct_rejection	NA	0
36	Correct	155	479	1451	9	0	0	1206352	683	0	correct_rejection	NA	0
36	Correct	156	480	1452	0	1	2	1207068	684	1	hit	565	0
36	Correct	157	481	1453	7	0	0	1207785	683	0	correct_rejection	NA	0
36	Correct	158	482	1454	8	0	0	1208502	683	0	correct_rejection	NA	0
36	Correct	159	483	1455	9	0	0	1209218	684	0	correct_rejection	NA	0
36	Correct	160	484	1456	7	0	0	1209935	683	0	correct_rejection	NA	0
36	Correct	161	485	1457	8	0	0	1210652	683	0	correct_rejection	NA	0
36	Correct	162	486	1458	9	0	0	1211368	684	0	correct_rejection	NA	0
36	Triplet	1	649	1459	4	0	0	1220901	684	0	correct_rejection	NA	7726
36	Triplet	2	650	1460	5	0	0	1221618	684	0	correct_rejection	NA	0
36	Triplet	3	651	1461	6	0	0	1222335	683	0	correct_rejection	NA	0
36	Triplet	4	652	1462	6	0	0	1223051	684	0	correct_rejection	NA	0
36	Triplet	5	653	1463	5	0	0	1223768	683	0	correct_rejection	NA	0
36	Triplet	6	654	1464	4	0	0	1224485	683	0	correct_rejection	NA	0
36	Triplet	7	655	1465	4	0	0	1225201	684	0	correct_rejection	NA	0
36	Triplet	8	656	1466	5	0	0	1225918	683	0	correct_rejection	NA	0
36	Triplet	9	657	1467	6	0	0	1226635	683	0	correct_rejection	NA	0
36	Triplet	10	658	1468	9	0	0	1227351	684	0	correct_rejection	NA	0
36	Triplet	11	659	1469	0	1	1	1228068	683	1	hit	437	0
36	Triplet	12	660	1470	8	0	0	1228785	683	0	correct_rejection	NA	0
36	Triplet	13	661	1471	7	0	0	1229501	684	0	correct_rejection	NA	0
36	Triplet	14	662	1472	6	0	0	1230218	683	0	correct_rejection	NA	0
36	Triplet	15	663	1473	0	1	1	1230935	683	1	hit	475	0
36	Triplet	16	664	1474	5	0	0	1231651	684	0	correct_rejection	NA	0
36	Triplet	17	665	1475	4	0	0	1232368	683	0	correct_rejection	NA	0
36	Triplet	18	666	1476	6	0	0	1233085	683	0	correct_rejection	NA	0
36	Triplet	19	667	1477	5	0	0	1233801	684	0	correct_rejection	NA	0
36	Triplet	20	668	1478	4	0	0	1234518	683	0	correct_rejection	NA	0
36	Triplet	21	669	1479	7	0	0	1235235	683	0	correct_rejection	NA	0
36	Triplet	22	670	1480	8	0	0	1235951	684	0	correct_rejection	NA	0
36	Triplet	23	671	1481	9	0	0	1236668	683	0	correct_rejection	NA	0
36	Triplet	24	672	1482	6	0	0	1237385	683	0	correct_rejection	NA	0
36	Triplet	25	673	1483	0	1	1	1238101	684	1	hit	480	0
36	Triplet	26	674	1484	5	0	0	1238818	683	0	correct_rejection	NA	0
36	Triplet	27	675	1485	4	0	0	1239535	683	0	correct_rejection	NA	0
36	Triplet	28	676	1486	9	0	0	1240251	684	0	correct_rejection	NA	0
36	Triplet	29	677	1487	8	0	0	1240968	683	0	correct_rejection	NA	0
36	Triplet	30	678	1488	7	0	0	1241685	683	0	correct_rejection	NA	0
36	Triplet	31	679	1489	7	0	0	1242401	684	0	correct_rejection	NA	0
36	Triplet	32	680	1490	8	0	0	1243118	683	0	correct_rejection	NA	0
36	Triplet	33	681	1491	9	0	0	1243835	683	0	correct_rejection	NA	0
36	Triplet	34	682	1492	4	0	0	1244551	684	0	correct_rejection	NA	0
36	Triplet	35	683	1493	5	0	0	1245268	683	0	correct_rejection	NA	0
36	Triplet	36	684	1494	6	0	0	1245985	683	0	correct_rejection	NA	0
36	Triplet	37	685	1495	4	0	0	1246701	684	0	correct_rejection	NA	0
36	Triplet	38	686	1496	5	0	0	1247418	683	0	correct_rejection	NA	0
36	Triplet	39	687	1497	0	1	1	1248134	684	1	hit	542	0
36	Triplet	40	688	1498	6	0	0	1248851	684	0	correct_rejection	NA	0
36	Triplet	41	689	1499	7	0	0	1249568	683	0	correct_rejection	NA	0
36	Triplet	42	690	1500	8	0	0	1250284	684	0	correct_rejection	NA	0
36	Triplet	43	691	1501	9	0	0	1251001	683	0	correct_rejection	NA	0
36	Triplet	44	692	1502	7	0	0	1251718	683	0	correct_rejection	NA	0
36	Triplet	45	693	1503	8	0	0	1252434	684	0	correct_rejection	NA	0
36	Triplet	46	694	1504	9	0	0	1253151	683	0	correct_rejection	NA	0
36	Triplet	47	695	1505	9	0	0	1253868	683	0	correct_rejection	NA	0
36	Triplet	48	696	1506	8	0	0	1254584	684	0	correct_rejection	NA	0
36	Triplet	49	697	1507	0	1	1	1255301	683	1	hit	678	0
36	Triplet	50	698	1508	7	0	0	1256018	683	0	correct_rejection	NA	0
36	Triplet	51	699	1509	9	0	0	1256734	684	0	correct_rejection	NA	0
36	Triplet	52	700	1510	8	0	0	1257451	683	0	correct_rejection	NA	0
36	Triplet	53	701	1511	7	0	0	1258168	683	0	correct_rejection	NA	0
36	Triplet	54	702	1512	7	0	0	1258884	684	0	correct_rejection	NA	0
36	Triplet	55	703	1513	0	1	1	1259601	683	1	hit	443	0
36	Triplet	56	704	1514	8	0	0	1260318	683	0	correct_rejection	NA	0
36	Triplet	57	705	1515	9	0	0	1261034	684	0	correct_rejection	NA	0
36	Triplet	58	706	1516	7	0	0	1261751	683	0	correct_rejection	NA	0
36	Triplet	59	707	1517	8	0	0	1262468	683	0	correct_rejection	NA	0
36	Triplet	60	708	1518	0	1	1	1263184	684	1	hit	411	0
36	Triplet	61	709	1519	9	0	0	1263901	683	0	correct_rejection	NA	0
36	Triplet	62	710	1520	6	0	0	1264618	683	0	correct_rejection	NA	0
36	Triplet	63	711	1521	5	0	0	1265334	684	0	correct_rejection	NA	0
36	Triplet	64	712	1522	4	0	0	1266051	683	0	correct_rejection	NA	0
36	Triplet	65	713	1523	6	0	0	1266768	683	0	correct_rejection	NA	0
36	Triplet	66	714	1524	5	0	0	1267484	684	0	correct_rejection	NA	0
36	Triplet	67	715	1525	4	0	0	1268201	683	0	correct_rejection	NA	0
36	Triplet	68	716	1526	0	1	2	1268918	683	1	hit	550	0
36	Triplet	69	717	1527	4	0	0	1269634	684	0	correct_rejection	NA	0
36	Triplet	70	718	1528	5	0	0	1270351	683	0	correct_rejection	NA	0
36	Triplet	71	719	1529	6	0	0	1271068	683	0	correct_rejection	NA	0
36	Triplet	72	720	1530	4	0	0	1271784	684	0	correct_rejection	NA	0
36	Triplet	73	721	1531	5	0	0	1272501	683	0	correct_rejection	NA	0
36	Triplet	74	722	1532	6	0	0	1273218	683	0	correct_rejection	NA	0
36	Triplet	75	723	1533	6	0	0	1273934	684	0	correct_rejection	NA	0
36	Triplet	76	724	1534	5	0	0	1274651	683	0	correct_rejection	NA	0
36	Triplet	77	725	1535	0	1	1	1275368	683	1	hit	402	0
36	Triplet	78	726	1536	4	0	0	1276084	684	0	correct_rejection	NA	0
36	Triplet	79	727	1537	7	0	0	1276801	683	0	correct_rejection	NA	0
36	Triplet	80	728	1538	8	0	0	1277517	684	0	correct_rejection	NA	0
36	Triplet	81	729	1539	9	0	0	1278234	683	0	correct_rejection	NA	0
36	Triplet	82	730	1540	4	0	0	1278951	683	0	correct_rejection	NA	0
36	Triplet	83	731	1541	5	0	0	1279667	684	0	correct_rejection	NA	0
36	Triplet	84	732	1542	6	0	0	1280384	683	0	correct_rejection	NA	0
36	Triplet	85	733	1543	9	0	0	1281101	683	0	correct_rejection	NA	0
36	Triplet	86	734	1544	8	0	0	1281817	684	0	correct_rejection	NA	0
36	Triplet	87	735	1545	7	0	0	1282534	683	0	correct_rejection	NA	0
36	Triplet	88	736	1546	9	0	0	1283251	683	0	correct_rejection	NA	0
36	Triplet	89	737	1547	8	0	0	1283967	684	0	correct_rejection	NA	0
36	Triplet	90	738	1548	7	0	0	1284684	683	0	correct_rejection	NA	0
36	Triplet	91	739	1549	7	0	0	1285401	683	0	correct_rejection	NA	0
36	Triplet	92	740	1550	8	0	0	1286117	684	0	correct_rejection	NA	0
36	Triplet	93	741	1551	9	0	0	1286834	683	0	correct_rejection	NA	0
36	Triplet	94	742	1552	9	0	0	1287551	683	0	correct_rejection	NA	0
36	Triplet	95	743	1553	8	0	0	1288267	684	0	correct_rejection	NA	0
36	Triplet	96	744	1554	7	0	0	1288984	683	0	correct_rejection	NA	0
36	Triplet	97	745	1555	6	0	0	1289701	683	0	correct_rejection	NA	0
36	Triplet	98	746	1556	5	0	0	1290417	684	0	correct_rejection	NA	0
36	Triplet	99	747	1557	4	0	0	1291134	683	0	correct_rejection	NA	0
36	Triplet	100	748	1558	9	0	0	1291851	683	0	correct_rejection	NA	0
36	Triplet	101	749	1559	8	0	0	1292567	684	0	correct_rejection	NA	0
36	Triplet	102	750	1560	0	1	1	1293284	683	1	hit	450	0
36	Triplet	103	751	1561	7	0	0	1294001	683	0	correct_rejection	NA	0
36	Triplet	104	752	1562	4	0	0	1294717	684	0	correct_rejection	NA	0
36	Triplet	105	753	1563	5	0	0	1295434	683	0	correct_rejection	NA	0
36	Triplet	106	754	1564	6	0	0	1296151	683	0	correct_rejection	NA	0
36	Triplet	107	755	1565	7	0	0	1296867	684	0	correct_rejection	NA	0
36	Triplet	108	756	1566	8	0	0	1297584	683	0	correct_rejection	NA	0
36	Triplet	109	757	1567	9	0	0	1298301	683	0	correct_rejection	NA	0
36	Triplet	110	758	1568	0	1	2	1299017	684	1	hit	424	0
36	Triplet	111	759	1569	9	0	0	1299734	683	0	correct_rejection	NA	0
36	Triplet	112	760	1570	8	0	0	1300451	683	0	correct_rejection	NA	0
36	Triplet	113	761	1571	7	0	0	1301167	684	0	correct_rejection	NA	0
36	Triplet	114	762	1572	4	0	0	1301884	683	0	correct_rejection	NA	0
36	Triplet	115	763	1573	5	0	0	1302601	683	0	correct_rejection	NA	0
36	Triplet	116	764	1574	6	0	0	1303317	684	0	correct_rejection	NA	0
36	Triplet	117	765	1575	0	1	2	1304034	683	1	hit	466	0
36	Triplet	118	766	1576	4	0	0	1304750	684	0	correct_rejection	NA	0
36	Triplet	119	767	1577	5	0	0	1305467	683	0	correct_rejection	NA	0
36	Triplet	120	768	1578	6	0	0	1306184	683	0	correct_rejection	NA	0
36	Triplet	121	769	1579	9	0	0	1306900	684	0	correct_rejection	NA	0
36	Triplet	122	770	1580	8	0	0	1307617	683	0	correct_rejection	NA	0
36	Triplet	123	771	1581	0	1	1	1308334	683	1	hit	444	0
36	Triplet	124	772	1582	7	0	0	1309050	684	0	correct_rejection	NA	0
36	Triplet	125	773	1583	7	0	0	1309767	683	0	correct_rejection	NA	0
36	Triplet	126	774	1584	8	0	0	1310484	683	0	correct_rejection	NA	0
36	Triplet	127	775	1585	9	0	0	1311200	684	0	correct_rejection	NA	0
36	Triplet	128	776	1586	0	1	2	1311917	683	1	hit	486	0
36	Triplet	129	777	1587	6	0	0	1312634	683	0	correct_rejection	NA	0
36	Triplet	130	778	1588	5	0	0	1313350	684	0	correct_rejection	NA	0
36	Triplet	131	779	1589	4	0	0	1314067	683	0	correct_rejection	NA	0
36	Triplet	132	780	1590	7	0	0	1314784	683	0	correct_rejection	NA	0
36	Triplet	133	781	1591	8	0	0	1315500	684	0	correct_rejection	NA	0
36	Triplet	134	782	1592	9	0	0	1316217	683	0	correct_rejection	NA	0
