ID	block	trial_block	trial_cat	trial_total	number	violation	level_violation	onset	duration	Response	Hit_Miss	RT	pre_trial_fixcross_ISI
first_trigger_at: 11086
trigger nr 3 at 13086
37	Single	1	487	1	7	0	0	20273	691	0	correct_rejection	NA	7149
37	Single	2	488	2	4	0	0	20981	692	0	correct_rejection	NA	0
37	Single	3	489	3	5	0	0	21690	692	0	correct_rejection	NA	0
37	Single	4	490	4	0	1	1	22399	691	1	hit	349	0
37	Single	5	491	5	5	0	0	23107	692	0	correct_rejection	NA	0
37	Single	6	492	6	7	0	0	23816	691	0	correct_rejection	NA	0
37	Single	7	493	7	6	0	0	24524	692	0	correct_rejection	NA	0
37	Single	8	494	8	4	0	0	25233	691	0	correct_rejection	NA	0
37	Single	9	495	9	9	0	0	25941	692	0	correct_rejection	NA	0
37	Single	10	496	10	0	1	1	26650	692	1	hit	385	0
37	Single	11	497	11	5	0	0	27358	692	0	correct_rejection	NA	0
37	Single	12	498	12	9	0	0	28067	692	0	correct_rejection	NA	0
37	Single	13	499	13	0	1	1	28776	691	1	hit	446	0
37	Single	14	500	14	4	0	0	29484	692	0	correct_rejection	NA	0
37	Single	15	501	15	8	0	0	30193	691	0	correct_rejection	NA	0
37	Single	16	502	16	5	0	0	30901	692	0	correct_rejection	NA	0
37	Single	17	503	17	8	0	0	31610	692	0	correct_rejection	NA	0
37	Single	18	504	18	4	0	0	32318	692	0	correct_rejection	NA	0
37	Single	19	505	19	7	0	0	33027	692	0	correct_rejection	NA	0
37	Single	20	506	20	8	0	0	33736	691	0	correct_rejection	NA	0
37	Single	21	507	21	6	0	0	34444	692	0	correct_rejection	NA	0
37	Single	22	508	22	8	0	0	35153	691	0	correct_rejection	NA	0
37	Single	23	509	23	9	0	0	35861	692	0	correct_rejection	NA	0
37	Single	24	510	24	7	0	0	36570	692	0	correct_rejection	NA	0
37	Single	25	511	25	0	1	1	37278	692	1	hit	336	0
37	Single	26	512	26	5	0	0	37987	692	0	correct_rejection	NA	0
37	Single	27	513	27	6	0	0	38696	691	0	correct_rejection	NA	0
37	Single	28	514	28	9	0	0	39404	692	0	correct_rejection	NA	0
37	Single	29	515	29	6	0	0	40113	691	0	correct_rejection	NA	0
37	Single	30	516	30	6	0	0	40821	692	0	correct_rejection	NA	0
37	Single	31	517	31	5	0	0	41530	691	0	correct_rejection	NA	0
37	Single	32	518	32	4	0	0	42238	692	0	correct_rejection	NA	0
37	Single	33	519	33	4	0	0	42947	692	0	correct_rejection	NA	0
37	Single	34	520	34	0	1	1	43655	692	1	hit	565	0
37	Single	35	521	35	6	0	0	44364	692	0	correct_rejection	NA	0
37	Single	36	522	36	7	0	0	45073	691	0	correct_rejection	NA	0
37	Single	37	523	37	7	0	0	45781	692	0	correct_rejection	NA	0
37	Single	38	524	38	9	0	0	46490	691	0	correct_rejection	NA	0
37	Single	39	525	39	9	0	0	47198	692	0	correct_rejection	NA	0
37	Single	40	526	40	8	0	0	47907	692	0	correct_rejection	NA	0
37	Single	41	527	41	8	0	0	48615	692	0	correct_rejection	NA	0
37	Single	42	528	42	5	0	0	49324	692	0	correct_rejection	NA	0
37	Single	43	529	43	9	0	0	50033	691	0	correct_rejection	NA	0
37	Single	44	530	44	9	0	0	50741	692	0	correct_rejection	NA	0
37	Single	45	531	45	7	0	0	51450	691	0	correct_rejection	NA	0
37	Single	46	532	46	0	1	1	52158	692	1	hit	324	0
37	Single	47	533	47	9	0	0	52867	692	0	correct_rejection	NA	0
37	Single	48	534	48	5	0	0	53575	692	0	correct_rejection	NA	0
37	Single	49	535	49	5	0	0	54284	692	0	correct_rejection	NA	0
37	Single	50	536	50	0	1	1	54993	691	1	hit	340	0
37	Single	51	537	51	8	0	0	55701	692	0	correct_rejection	NA	0
37	Single	52	538	52	7	0	0	56410	691	0	correct_rejection	NA	0
37	Single	53	539	53	5	0	0	57118	692	0	correct_rejection	NA	0
37	Single	54	540	54	4	0	0	57827	691	0	correct_rejection	NA	0
37	Single	55	541	55	5	0	0	58535	692	0	correct_rejection	NA	0
37	Single	56	542	56	7	0	0	59244	692	0	correct_rejection	NA	0
37	Single	57	543	57	7	0	0	59952	692	0	correct_rejection	NA	0
37	Single	58	544	58	4	0	0	60661	692	0	correct_rejection	NA	0
37	Single	59	545	59	9	0	0	61370	691	0	correct_rejection	NA	0
37	Single	60	546	60	6	0	0	62078	692	0	correct_rejection	NA	0
37	Single	61	547	61	7	0	0	62787	691	0	correct_rejection	NA	0
37	Single	62	548	62	8	0	0	63495	692	0	correct_rejection	NA	0
37	Single	63	549	63	4	0	0	64204	692	0	correct_rejection	NA	0
37	Single	64	550	64	6	0	0	64912	692	0	correct_rejection	NA	0
37	Single	65	551	65	5	0	0	65621	692	0	correct_rejection	NA	0
37	Single	66	552	66	6	0	0	66330	691	0	correct_rejection	NA	0
37	Single	67	553	67	6	0	0	67038	692	0	correct_rejection	NA	0
37	Single	68	554	68	9	0	0	67747	691	0	correct_rejection	NA	0
37	Single	69	555	69	8	0	0	68455	692	0	correct_rejection	NA	0
37	Single	70	556	70	9	0	0	69164	692	0	correct_rejection	NA	0
37	Single	71	557	71	4	0	0	69872	692	0	correct_rejection	NA	0
37	Single	72	558	72	4	0	0	70581	692	0	correct_rejection	NA	0
37	Single	73	559	73	8	0	0	71290	691	0	correct_rejection	NA	0
37	Single	74	560	74	6	0	0	71998	692	0	correct_rejection	NA	0
37	Single	75	561	75	4	0	0	72707	691	0	correct_rejection	NA	0
37	Single	76	562	76	7	0	0	73415	692	0	correct_rejection	NA	0
37	Single	77	563	77	6	0	0	74124	691	0	correct_rejection	NA	0
37	Single	78	564	78	8	0	0	74832	692	0	correct_rejection	NA	0
37	Single	79	565	79	8	0	0	75541	692	0	correct_rejection	NA	0
37	Single	80	566	80	4	0	0	76250	691	0	correct_rejection	NA	0
37	Single	81	567	81	7	0	0	76958	692	0	correct_rejection	NA	0
37	Single	82	568	82	5	0	0	77667	691	0	correct_rejection	NA	0
37	Single	83	569	83	5	0	0	78375	692	0	correct_rejection	NA	0
37	Single	84	570	84	4	0	0	79084	691	0	correct_rejection	NA	0
37	Single	85	571	85	0	1	1	79792	692	1	hit	376	0
37	Single	86	572	86	8	0	0	80501	692	0	correct_rejection	NA	0
37	Single	87	573	87	9	0	0	81209	692	0	correct_rejection	NA	0
37	Single	88	574	88	0	1	1	81918	692	1	hit	622	0
37	Single	89	575	89	6	0	0	82627	691	0	correct_rejection	NA	0
37	Single	90	576	90	9	0	0	83335	692	0	correct_rejection	NA	0
37	Single	91	577	91	9	0	0	84044	691	0	correct_rejection	NA	0
37	Single	92	578	92	5	0	0	84752	692	0	correct_rejection	NA	0
37	Single	93	579	93	8	0	0	85461	692	0	correct_rejection	NA	0
37	Single	94	580	94	5	0	0	86169	692	0	correct_rejection	NA	0
37	Single	95	581	95	6	0	0	86878	692	0	correct_rejection	NA	0
37	Single	96	582	96	7	0	0	87587	691	0	correct_rejection	NA	0
37	Single	97	583	97	9	0	0	88295	692	0	correct_rejection	NA	0
37	Single	98	584	98	4	0	0	89004	691	0	correct_rejection	NA	0
37	Single	99	585	99	6	0	0	89712	692	0	correct_rejection	NA	0
37	Single	100	586	100	8	0	0	90421	692	0	correct_rejection	NA	0
37	Single	101	587	101	0	1	1	91129	692	1	hit	343	0
37	Single	102	588	102	4	0	0	91838	692	0	correct_rejection	NA	0
37	Single	103	589	103	5	0	0	92547	691	0	correct_rejection	NA	0
37	Single	104	590	104	9	0	0	93255	692	0	correct_rejection	NA	0
37	Single	105	591	105	8	0	0	93964	691	0	correct_rejection	NA	0
37	Single	106	592	106	7	0	0	94672	692	0	correct_rejection	NA	0
37	Single	107	593	107	0	1	1	95381	691	1	hit	310	0
37	Single	108	594	108	6	0	0	96089	692	0	correct_rejection	NA	0
37	Single	109	595	109	6	0	0	96798	692	0	correct_rejection	NA	0
37	Single	110	596	110	4	0	0	97506	692	0	correct_rejection	NA	0
37	Single	111	597	111	0	1	1	98215	692	1	hit	452	0
37	Single	112	598	112	4	0	0	98924	691	0	correct_rejection	NA	0
37	Single	113	599	113	9	0	0	99632	692	0	correct_rejection	NA	0
37	Single	114	600	114	7	0	0	100341	691	0	correct_rejection	NA	0
37	Single	115	601	115	7	0	0	101049	692	0	correct_rejection	NA	0
37	Single	116	602	116	0	1	1	101758	692	1	hit	349	0
37	Single	117	603	117	8	0	0	102466	692	0	correct_rejection	NA	0
37	Single	118	604	118	8	0	0	103175	692	0	correct_rejection	NA	0
37	Single	119	605	119	6	0	0	103884	691	0	correct_rejection	NA	0
37	Single	120	606	120	5	0	0	104592	692	0	correct_rejection	NA	0
37	Single	121	607	121	7	0	0	105301	691	0	correct_rejection	NA	0
37	Single	122	608	122	0	1	1	106009	692	1	hit	324	0
37	Single	123	609	123	7	0	0	106718	692	0	correct_rejection	NA	0
37	Single	124	610	124	8	0	0	107426	692	0	correct_rejection	NA	0
37	Single	125	611	125	5	0	0	108135	692	0	correct_rejection	NA	0
37	Single	126	612	126	0	1	1	108844	691	1	hit	340	0
37	Single	127	613	127	7	0	0	109552	692	0	correct_rejection	NA	0
37	Single	128	614	128	6	0	0	110261	691	0	correct_rejection	NA	0
37	Single	129	615	129	4	0	0	110969	692	0	correct_rejection	NA	0
37	Single	130	616	130	5	0	0	111678	692	0	correct_rejection	NA	0
37	Single	131	617	131	5	0	0	112386	692	0	correct_rejection	NA	0
37	Single	132	618	132	6	0	0	113095	692	0	correct_rejection	NA	0
37	Single	133	619	133	8	0	0	113804	691	0	correct_rejection	NA	0
37	Single	134	620	134	0	1	1	114512	692	1	hit	366	0
37	Single	135	621	135	6	0	0	115221	691	0	correct_rejection	NA	0
37	Single	136	622	136	9	0	0	115929	692	0	correct_rejection	NA	0
37	Single	137	623	137	4	0	0	116638	691	0	correct_rejection	NA	0
37	Single	138	624	138	8	0	0	117346	692	0	correct_rejection	NA	0
37	Single	139	625	139	7	0	0	118055	692	0	correct_rejection	NA	0
37	Single	140	626	140	0	1	1	118763	692	1	hit	357	0
37	Single	141	627	141	4	0	0	119472	692	0	correct_rejection	NA	0
37	Single	142	628	142	6	0	0	120181	691	0	correct_rejection	NA	0
37	Single	143	629	143	6	0	0	120889	692	0	correct_rejection	NA	0
37	Single	144	630	144	7	0	0	121598	691	0	correct_rejection	NA	0
37	Single	145	631	145	5	0	0	122306	692	0	correct_rejection	NA	0
37	Single	146	632	146	8	0	0	123015	692	0	correct_rejection	NA	0
37	Single	147	633	147	9	0	0	123723	692	0	correct_rejection	NA	0
37	Single	148	634	148	8	0	0	124432	692	0	correct_rejection	NA	0
37	Single	149	635	149	8	0	0	125141	691	0	correct_rejection	NA	0
37	Single	150	636	150	4	0	0	125849	692	0	correct_rejection	NA	0
37	Single	151	637	151	9	0	0	126558	691	0	correct_rejection	NA	0
37	Single	152	638	152	5	0	0	127266	692	0	correct_rejection	NA	0
37	Single	153	639	153	4	0	0	127975	692	0	correct_rejection	NA	0
37	Single	154	640	154	4	0	0	128683	692	0	correct_rejection	NA	0
37	Single	155	641	155	7	0	0	129392	692	0	correct_rejection	NA	0
37	Single	156	642	156	9	0	0	130101	691	0	correct_rejection	NA	0
37	Single	157	643	157	9	0	0	130809	692	0	correct_rejection	NA	0
37	Single	158	644	158	6	0	0	131518	691	0	correct_rejection	NA	0
37	Single	159	645	159	5	0	0	132226	692	0	correct_rejection	NA	0
37	Single	160	646	160	0	1	1	132935	691	1	hit	377	0
37	Single	161	647	161	9	0	0	133643	692	0	correct_rejection	NA	0
37	Single	162	648	162	7	0	0	134352	692	0	correct_rejection	NA	0
37	Nonet	1	1	163	9	0	0	142546	692	0	correct_rejection	NA	6428
37	Nonet	2	2	164	8	0	0	143255	692	0	correct_rejection	NA	0
37	Nonet	3	3	165	7	0	0	143963	692	0	correct_rejection	NA	0
37	Nonet	4	4	166	9	0	0	144672	692	0	correct_rejection	NA	0
37	Nonet	5	5	167	8	0	0	145381	691	0	correct_rejection	NA	0
37	Nonet	6	6	168	7	0	0	146089	692	0	correct_rejection	NA	0
37	Nonet	7	7	169	9	0	0	146798	691	0	correct_rejection	NA	0
37	Nonet	8	8	170	8	0	0	147506	692	0	correct_rejection	NA	0
37	Nonet	9	9	171	7	0	0	148215	691	0	correct_rejection	NA	0
37	Nonet	10	10	172	6	0	0	148923	692	0	correct_rejection	NA	0
37	Nonet	11	11	173	5	0	0	149632	692	0	correct_rejection	NA	0
37	Nonet	12	12	174	4	0	0	150340	692	0	correct_rejection	NA	0
37	Nonet	13	13	175	6	0	0	151049	692	0	correct_rejection	NA	0
37	Nonet	14	14	176	5	0	0	151758	691	0	correct_rejection	NA	0
37	Nonet	15	15	177	4	0	0	152466	692	0	correct_rejection	NA	0
37	Nonet	16	16	178	6	0	0	153175	691	0	correct_rejection	NA	0
37	Nonet	17	17	179	0	1	1	153883	692	1	hit	386	0
37	Nonet	18	18	180	5	0	0	154592	692	0	correct_rejection	NA	0
37	Nonet	19	19	181	4	0	0	155300	692	0	correct_rejection	NA	0
37	Nonet	20	20	182	6	0	0	156009	692	0	correct_rejection	NA	0
37	Nonet	21	21	183	5	0	0	156718	691	0	correct_rejection	NA	0
37	Nonet	22	22	184	0	1	1	157426	692	1	hit	453	0
37	Nonet	23	23	185	4	0	0	158135	691	0	correct_rejection	NA	0
37	Nonet	24	24	186	6	0	0	158843	692	0	correct_rejection	NA	0
37	Nonet	25	25	187	5	0	0	159552	692	0	correct_rejection	NA	0
37	Nonet	26	26	188	4	0	0	160260	692	0	correct_rejection	NA	0
37	Nonet	27	27	189	6	0	0	160969	692	0	correct_rejection	NA	0
37	Nonet	28	28	190	5	0	0	161678	691	0	correct_rejection	NA	0
37	Nonet	29	29	191	4	0	0	162386	692	0	correct_rejection	NA	0
37	Nonet	30	30	192	9	0	0	163095	691	0	correct_rejection	NA	0
37	Nonet	31	31	193	8	0	0	163803	692	0	correct_rejection	NA	0
37	Nonet	32	32	194	0	1	1	164512	692	1	hit	441	0
37	Nonet	33	33	195	7	0	0	165220	692	0	correct_rejection	NA	0
37	Nonet	34	34	196	9	0	0	165929	692	0	correct_rejection	NA	0
37	Nonet	35	35	197	8	0	0	166638	691	0	correct_rejection	NA	0
37	Nonet	36	36	198	7	0	0	167346	692	0	correct_rejection	NA	0
37	Nonet	37	37	199	9	0	0	168055	691	0	correct_rejection	NA	0
37	Nonet	38	38	200	8	0	0	168763	692	0	correct_rejection	NA	0
37	Nonet	39	39	201	7	0	0	169472	691	0	correct_rejection	NA	0
37	Nonet	40	40	202	4	0	0	170180	692	0	correct_rejection	NA	0
37	Nonet	41	41	203	5	0	0	170889	692	0	correct_rejection	NA	0
37	Nonet	42	42	204	6	0	0	171597	692	0	correct_rejection	NA	0
37	Nonet	43	43	205	0	1	2	172306	692	1	hit	347	0
37	Nonet	44	44	206	4	0	0	173015	691	0	correct_rejection	NA	0
37	Nonet	45	45	207	5	0	0	173723	692	0	correct_rejection	NA	0
37	Nonet	46	46	208	6	0	0	174432	691	0	correct_rejection	NA	0
37	Nonet	47	47	209	0	1	2	175140	692	1	hit	398	0
37	Nonet	48	48	210	4	0	0	175849	692	0	correct_rejection	NA	0
37	Nonet	49	49	211	5	0	0	176557	692	0	correct_rejection	NA	0
37	Nonet	50	50	212	6	0	0	177266	692	0	correct_rejection	NA	0
37	Nonet	51	51	213	4	0	0	177975	691	0	correct_rejection	NA	0
37	Nonet	52	52	214	5	0	0	178683	692	0	correct_rejection	NA	0
37	Nonet	53	53	215	0	1	1	179392	691	1	hit	354	0
37	Nonet	54	54	216	6	0	0	180100	692	0	correct_rejection	NA	0
37	Nonet	55	55	217	4	0	0	180809	692	0	correct_rejection	NA	0
37	Nonet	56	56	218	5	0	0	181517	692	0	correct_rejection	NA	0
37	Nonet	57	57	219	6	0	0	182226	692	0	correct_rejection	NA	0
37	Nonet	58	58	220	4	0	0	182935	691	0	correct_rejection	NA	0
37	Nonet	59	59	221	5	0	0	183643	692	0	correct_rejection	NA	0
37	Nonet	60	60	222	6	0	0	184352	691	0	correct_rejection	NA	0
37	Nonet	61	61	223	7	0	0	185060	692	0	correct_rejection	NA	0
37	Nonet	62	62	224	8	0	0	185769	691	0	correct_rejection	NA	0
37	Nonet	63	63	225	9	0	0	186477	692	0	correct_rejection	NA	0
37	Nonet	64	64	226	7	0	0	187186	692	0	correct_rejection	NA	0
37	Nonet	65	65	227	8	0	0	187894	692	0	correct_rejection	NA	0
37	Nonet	66	66	228	0	1	1	188603	692	1	hit	341	0
37	Nonet	67	67	229	9	0	0	189312	691	0	correct_rejection	NA	0
37	Nonet	68	68	230	7	0	0	190020	692	0	correct_rejection	NA	0
37	Nonet	69	69	231	8	0	0	190729	691	0	correct_rejection	NA	0
37	Nonet	70	70	232	9	0	0	191437	692	0	correct_rejection	NA	0
37	Nonet	71	71	233	4	0	0	192146	692	0	correct_rejection	NA	0
37	Nonet	72	72	234	5	0	0	192854	692	0	correct_rejection	NA	0
37	Nonet	73	73	235	6	0	0	193563	692	0	correct_rejection	NA	0
37	Nonet	74	74	236	4	0	0	194272	691	0	correct_rejection	NA	0
37	Nonet	75	75	237	5	0	0	194980	692	0	correct_rejection	NA	0
37	Nonet	76	76	238	6	0	0	195689	691	0	correct_rejection	NA	0
37	Nonet	77	77	239	4	0	0	196397	692	0	correct_rejection	NA	0
37	Nonet	78	78	240	5	0	0	197106	692	0	correct_rejection	NA	0
37	Nonet	79	79	241	6	0	0	197814	692	0	correct_rejection	NA	0
37	Nonet	80	80	242	9	0	0	198523	692	0	correct_rejection	NA	0
37	Nonet	81	81	243	8	0	0	199232	691	0	correct_rejection	NA	0
37	Nonet	82	82	244	0	1	1	199940	692	1	hit	438	0
37	Nonet	83	83	245	7	0	0	200649	691	0	correct_rejection	NA	0
37	Nonet	84	84	246	9	0	0	201357	692	0	correct_rejection	NA	0
37	Nonet	85	85	247	8	0	0	202066	691	0	correct_rejection	NA	0
37	Nonet	86	86	248	0	1	1	202774	692	1	hit	386	0
37	Nonet	87	87	249	7	0	0	203483	692	0	correct_rejection	NA	0
37	Nonet	88	88	250	9	0	0	204192	691	0	correct_rejection	NA	0
37	Nonet	89	89	251	8	0	0	204900	692	0	correct_rejection	NA	0
37	Nonet	90	90	252	7	0	0	205609	691	0	correct_rejection	NA	0
37	Nonet	91	91	253	0	1	3	206317	692	1	hit	345	0
37	Nonet	92	92	254	9	0	0	207026	691	0	correct_rejection	NA	0
37	Nonet	93	93	255	8	0	0	207734	692	0	correct_rejection	NA	0
37	Nonet	94	94	256	7	0	0	208443	692	0	correct_rejection	NA	0
37	Nonet	95	95	257	9	0	0	209151	692	0	correct_rejection	NA	0
37	Nonet	96	96	258	8	0	0	209860	692	0	correct_rejection	NA	0
37	Nonet	97	97	259	7	0	0	210569	691	0	correct_rejection	NA	0
37	Nonet	98	98	260	9	0	0	211277	692	0	correct_rejection	NA	0
37	Nonet	99	99	261	8	0	0	211986	691	0	correct_rejection	NA	0
37	Nonet	100	100	262	7	0	0	212694	692	0	correct_rejection	NA	0
37	Nonet	101	101	263	7	0	0	213403	692	0	correct_rejection	NA	0
37	Nonet	102	102	264	0	1	1	214111	692	1	hit	362	0
37	Nonet	103	103	265	8	0	0	214820	692	0	correct_rejection	NA	0
37	Nonet	104	104	266	9	0	0	215529	691	0	correct_rejection	NA	0
37	Nonet	105	105	267	7	0	0	216237	692	0	correct_rejection	NA	0
37	Nonet	106	106	268	8	0	0	216946	691	0	correct_rejection	NA	0
37	Nonet	107	107	269	9	0	0	217654	692	0	correct_rejection	NA	0
37	Nonet	108	108	270	7	0	0	218363	692	0	correct_rejection	NA	0
37	Nonet	109	109	271	8	0	0	219071	692	0	correct_rejection	NA	0
37	Nonet	110	110	272	9	0	0	219780	692	0	correct_rejection	NA	0
37	Nonet	111	111	273	6	0	0	220489	691	0	correct_rejection	NA	0
37	Nonet	112	112	274	5	0	0	221197	692	0	correct_rejection	NA	0
37	Nonet	113	113	275	0	1	1	221906	691	1	hit	328	0
37	Nonet	114	114	276	4	0	0	222614	692	0	correct_rejection	NA	0
37	Nonet	115	115	277	6	0	0	223323	691	0	correct_rejection	NA	0
37	Nonet	116	116	278	5	0	0	224031	692	0	correct_rejection	NA	0
37	Nonet	117	117	279	4	0	0	224740	692	0	correct_rejection	NA	0
37	Nonet	118	118	280	0	1	2	225448	692	1	hit	321	0
37	Nonet	119	119	281	6	0	0	226157	692	0	correct_rejection	NA	0
37	Nonet	120	120	282	5	0	0	226866	691	0	correct_rejection	NA	0
37	Nonet	121	121	283	4	0	0	227574	692	0	correct_rejection	NA	0
37	Nonet	122	122	284	4	0	0	228283	691	0	correct_rejection	NA	0
37	Nonet	123	123	285	5	0	0	228991	692	0	correct_rejection	NA	0
37	Nonet	124	124	286	6	0	0	229700	692	0	correct_rejection	NA	0
37	Nonet	125	125	287	4	0	0	230408	692	0	correct_rejection	NA	0
37	Nonet	126	126	288	5	0	0	231117	692	0	correct_rejection	NA	0
37	Nonet	127	127	289	0	1	1	231826	691	1	hit	321	0
37	Nonet	128	128	290	6	0	0	232534	692	0	correct_rejection	NA	0
37	Nonet	129	129	291	4	0	0	233243	691	0	correct_rejection	NA	0
37	Nonet	130	130	292	0	1	1	233951	692	1	hit	352	0
37	Nonet	131	131	293	5	0	0	234660	692	0	correct_rejection	NA	0
37	Nonet	132	132	294	6	0	0	235368	692	0	correct_rejection	NA	0
37	Nonet	133	133	295	6	0	0	236077	692	0	correct_rejection	NA	0
37	Nonet	134	134	296	5	0	0	236786	691	0	correct_rejection	NA	0
37	Nonet	135	135	297	4	0	0	237494	692	0	correct_rejection	NA	0
37	Nonet	136	136	298	6	0	0	238203	691	0	correct_rejection	NA	0
37	Nonet	137	137	299	5	0	0	238911	692	0	correct_rejection	NA	0
37	Nonet	138	138	300	4	0	0	239620	691	0	correct_rejection	NA	0
37	Nonet	139	139	301	6	0	0	240328	692	0	correct_rejection	NA	0
37	Nonet	140	140	302	5	0	0	241037	692	0	correct_rejection	NA	0
37	Nonet	141	141	303	4	0	0	241745	692	0	correct_rejection	NA	0
37	Nonet	142	142	304	7	0	0	242454	692	0	correct_rejection	NA	0
37	Nonet	143	143	305	8	0	0	243163	691	0	correct_rejection	NA	0
37	Nonet	144	144	306	0	1	1	243871	692	1	hit	412	0
37	Nonet	145	145	307	9	0	0	244580	691	0	correct_rejection	NA	0
37	Nonet	146	146	308	7	0	0	245288	692	0	correct_rejection	NA	0
37	Nonet	147	147	309	8	0	0	245997	692	0	correct_rejection	NA	0
37	Nonet	148	148	310	9	0	0	246705	692	0	correct_rejection	NA	0
37	Nonet	149	149	311	0	1	2	247414	692	1	hit	466	0
37	Nonet	150	150	312	7	0	0	248123	691	0	correct_rejection	NA	0
37	Nonet	151	151	313	8	0	0	248831	692	0	correct_rejection	NA	0
37	Nonet	152	152	314	9	0	0	249540	691	0	correct_rejection	NA	0
37	Nonet	153	153	315	7	0	0	250248	692	0	correct_rejection	NA	0
37	Nonet	154	154	316	8	0	0	250957	692	0	correct_rejection	NA	0
37	Nonet	155	155	317	9	0	0	251665	692	0	correct_rejection	NA	0
37	Nonet	156	156	318	7	0	0	252374	692	0	correct_rejection	NA	0
37	Nonet	157	157	319	8	0	0	253083	691	0	correct_rejection	NA	0
37	Nonet	158	158	320	9	0	0	253791	692	0	correct_rejection	NA	0
37	Nonet	159	159	321	0	1	2	254500	691	1	hit	322	0
37	Nonet	160	160	322	7	0	0	255208	692	0	correct_rejection	NA	0
37	Nonet	161	161	323	8	0	0	255917	692	0	correct_rejection	NA	0
37	Nonet	162	162	324	9	0	0	256625	692	0	correct_rejection	NA	0
37	Triplet	1	487	325	6	0	0	266337	692	0	correct_rejection	NA	7219
37	Triplet	2	488	326	5	0	0	267045	692	0	correct_rejection	NA	0
37	Triplet	3	489	327	4	0	0	267754	692	0	correct_rejection	NA	0
37	Triplet	4	490	328	4	0	0	268463	691	0	correct_rejection	NA	0
37	Triplet	5	491	329	5	0	0	269171	692	0	correct_rejection	NA	0
37	Triplet	6	492	330	6	0	0	269880	691	0	correct_rejection	NA	0
37	Triplet	7	493	331	9	0	0	270588	692	0	correct_rejection	NA	0
37	Triplet	8	494	332	8	0	0	271297	692	0	correct_rejection	NA	0
37	Triplet	9	495	333	7	0	0	272005	692	0	correct_rejection	NA	0
37	Triplet	10	496	334	0	1	2	272714	692	0	miss	NA	0
37	Triplet	11	497	335	4	0	0	273423	691	1	false_alarm	14	0
37	Triplet	12	498	336	5	0	0	274131	692	0	correct_rejection	NA	0
37	Triplet	13	499	337	0	1	1	274840	691	1	hit	355	0
37	Triplet	14	500	338	6	0	0	275548	692	0	correct_rejection	NA	0
37	Triplet	15	501	339	6	0	0	276257	692	0	correct_rejection	NA	0
37	Triplet	16	502	340	5	0	0	276965	692	0	correct_rejection	NA	0
37	Triplet	17	503	341	0	1	1	277674	692	1	hit	338	0
37	Triplet	18	504	342	4	0	0	278383	691	0	correct_rejection	NA	0
37	Triplet	19	505	343	6	0	0	279091	692	0	correct_rejection	NA	0
37	Triplet	20	506	344	5	0	0	279800	691	0	correct_rejection	NA	0
37	Triplet	21	507	345	4	0	0	280508	692	0	correct_rejection	NA	0
37	Triplet	22	508	346	7	0	0	281217	691	0	correct_rejection	NA	0
37	Triplet	23	509	347	0	1	1	281925	692	1	hit	336	0
37	Triplet	24	510	348	8	0	0	282634	692	0	correct_rejection	NA	0
37	Triplet	25	511	349	9	0	0	283342	692	0	correct_rejection	NA	0
37	Triplet	26	512	350	6	0	0	284051	692	0	correct_rejection	NA	0
37	Triplet	27	513	351	0	1	1	284760	691	1	hit	338	0
37	Triplet	28	514	352	5	0	0	285468	692	0	correct_rejection	NA	0
37	Triplet	29	515	353	4	0	0	286177	691	0	correct_rejection	NA	0
37	Triplet	30	516	354	9	0	0	286885	692	0	correct_rejection	NA	0
37	Triplet	31	517	355	0	1	1	287594	692	1	hit	316	0
37	Triplet	32	518	356	8	0	0	288302	692	0	correct_rejection	NA	0
37	Triplet	33	519	357	7	0	0	289011	692	0	correct_rejection	NA	0
37	Triplet	34	520	358	9	0	0	289720	691	0	correct_rejection	NA	0
37	Triplet	35	521	359	8	0	0	290428	692	0	correct_rejection	NA	0
37	Triplet	36	522	360	0	1	1	291137	691	1	hit	357	0
37	Triplet	37	523	361	7	0	0	291845	692	0	correct_rejection	NA	0
37	Triplet	38	524	362	7	0	0	292554	692	0	correct_rejection	NA	0
37	Triplet	39	525	363	8	0	0	293262	692	0	correct_rejection	NA	0
37	Triplet	40	526	364	9	0	0	293971	692	0	correct_rejection	NA	0
37	Triplet	41	527	365	0	1	2	294680	691	1	hit	351	0
37	Triplet	42	528	366	4	0	0	295388	692	0	correct_rejection	NA	0
37	Triplet	43	529	367	5	0	0	296097	691	0	correct_rejection	NA	0
37	Triplet	44	530	368	6	0	0	296805	692	0	correct_rejection	NA	0
37	Triplet	45	531	369	4	0	0	297514	691	0	correct_rejection	NA	0
37	Triplet	46	532	370	5	0	0	298222	692	0	correct_rejection	NA	0
37	Triplet	47	533	371	6	0	0	298931	692	0	correct_rejection	NA	0
37	Triplet	48	534	372	7	0	0	299639	692	0	correct_rejection	NA	0
37	Triplet	49	535	373	8	0	0	300348	692	0	correct_rejection	NA	0
37	Triplet	50	536	374	9	0	0	301057	691	0	correct_rejection	NA	0
37	Triplet	51	537	375	7	0	0	301765	692	0	correct_rejection	NA	0
37	Triplet	52	538	376	8	0	0	302474	691	0	correct_rejection	NA	0
37	Triplet	53	539	377	0	1	1	303182	692	1	hit	430	0
37	Triplet	54	540	378	9	0	0	303891	692	0	correct_rejection	NA	0
37	Triplet	55	541	379	9	0	0	304599	692	0	correct_rejection	NA	0
37	Triplet	56	542	380	8	0	0	305308	692	0	correct_rejection	NA	0
37	Triplet	57	543	381	7	0	0	306017	691	0	correct_rejection	NA	0
37	Triplet	58	544	382	4	0	0	306725	692	0	correct_rejection	NA	0
37	Triplet	59	545	383	5	0	0	307434	691	0	correct_rejection	NA	0
37	Triplet	60	546	384	0	1	1	308142	692	1	hit	355	0
37	Triplet	61	547	385	6	0	0	308851	692	0	correct_rejection	NA	0
37	Triplet	62	548	386	7	0	0	309559	692	0	correct_rejection	NA	0
37	Triplet	63	549	387	8	0	0	310268	692	0	correct_rejection	NA	0
37	Triplet	64	550	388	9	0	0	310977	691	0	correct_rejection	NA	0
37	Triplet	65	551	389	6	0	0	311685	692	0	correct_rejection	NA	0
37	Triplet	66	552	390	0	1	1	312394	691	1	hit	384	0
37	Triplet	67	553	391	5	0	0	313102	692	0	correct_rejection	NA	0
37	Triplet	68	554	392	4	0	0	313811	692	0	correct_rejection	NA	0
37	Triplet	69	555	393	6	0	0	314519	692	0	correct_rejection	NA	0
37	Triplet	70	556	394	5	0	0	315228	692	0	correct_rejection	NA	0
37	Triplet	71	557	395	4	0	0	315937	691	0	correct_rejection	NA	0
37	Triplet	72	558	396	4	0	0	316645	692	0	correct_rejection	NA	0
37	Triplet	73	559	397	5	0	0	317354	691	0	correct_rejection	NA	0
37	Triplet	74	560	398	6	0	0	318062	692	0	correct_rejection	NA	0
37	Triplet	75	561	399	4	0	0	318771	691	0	correct_rejection	NA	0
37	Triplet	76	562	400	5	0	0	319479	692	0	correct_rejection	NA	0
37	Triplet	77	563	401	6	0	0	320188	692	0	correct_rejection	NA	0
37	Triplet	78	564	402	0	1	2	320896	692	1	hit	389	0
37	Triplet	79	565	403	6	0	0	321605	692	0	correct_rejection	NA	0
37	Triplet	80	566	404	5	0	0	322314	691	0	correct_rejection	NA	0
37	Triplet	81	567	405	4	0	0	323022	692	0	correct_rejection	NA	0
37	Triplet	82	568	406	7	0	0	323731	691	0	correct_rejection	NA	0
37	Triplet	83	569	407	0	1	1	324439	692	0	miss	NA	0
37	Triplet	84	570	408	8	0	0	325148	692	1	false_alarm	42	0
37	Triplet	85	571	409	9	0	0	325856	692	0	correct_rejection	NA	0
37	Triplet	86	572	410	0	1	2	326565	692	1	hit	322	0
37	Triplet	87	573	411	9	0	0	327274	691	0	correct_rejection	NA	0
37	Triplet	88	574	412	8	0	0	327982	692	0	correct_rejection	NA	0
37	Triplet	89	575	413	0	1	1	328691	691	1	hit	437	0
37	Triplet	90	576	414	7	0	0	329399	692	0	correct_rejection	NA	0
37	Triplet	91	577	415	4	0	0	330108	692	0	correct_rejection	NA	0
37	Triplet	92	578	416	5	0	0	330816	692	0	correct_rejection	NA	0
37	Triplet	93	579	417	6	0	0	331525	692	0	correct_rejection	NA	0
37	Triplet	94	580	418	9	0	0	332234	691	0	correct_rejection	NA	0
37	Triplet	95	581	419	8	0	0	332942	692	0	correct_rejection	NA	0
37	Triplet	96	582	420	7	0	0	333651	691	0	correct_rejection	NA	0
37	Triplet	97	583	421	9	0	0	334359	692	0	correct_rejection	NA	0
37	Triplet	98	584	422	8	0	0	335068	691	0	correct_rejection	NA	0
37	Triplet	99	585	423	0	1	1	335776	692	1	hit	388	0
37	Triplet	100	586	424	7	0	0	336485	692	0	correct_rejection	NA	0
37	Triplet	101	587	425	6	0	0	337193	692	0	correct_rejection	NA	0
37	Triplet	102	588	426	5	0	0	337902	692	0	correct_rejection	NA	0
37	Triplet	103	589	427	4	0	0	338611	691	0	correct_rejection	NA	0
37	Triplet	104	590	428	9	0	0	339319	692	0	correct_rejection	NA	0
37	Triplet	105	591	429	8	0	0	340028	691	0	correct_rejection	NA	0
37	Triplet	106	592	430	7	0	0	340736	692	0	correct_rejection	NA	0
37	Triplet	107	593	431	7	0	0	341445	692	0	correct_rejection	NA	0
37	Triplet	108	594	432	8	0	0	342153	692	0	correct_rejection	NA	0
37	Triplet	109	595	433	9	0	0	342862	692	0	correct_rejection	NA	0
37	Triplet	110	596	434	7	0	0	343571	691	0	correct_rejection	NA	0
37	Triplet	111	597	435	8	0	0	344279	692	0	correct_rejection	NA	0
37	Triplet	112	598	436	9	0	0	344988	691	0	correct_rejection	NA	0
37	Triplet	113	599	437	6	0	0	345696	692	0	correct_rejection	NA	0
37	Triplet	114	600	438	5	0	0	346405	692	0	correct_rejection	NA	0
37	Triplet	115	601	439	4	0	0	347113	692	0	correct_rejection	NA	0
37	Triplet	116	602	440	0	1	2	347822	692	1	hit	412	0
37	Triplet	117	603	441	9	0	0	348531	691	0	correct_rejection	NA	0
37	Triplet	118	604	442	8	0	0	349239	692	0	correct_rejection	NA	0
37	Triplet	119	605	443	7	0	0	349948	691	0	correct_rejection	NA	0
37	Triplet	120	606	444	6	0	0	350656	692	0	correct_rejection	NA	0
37	Triplet	121	607	445	5	0	0	351365	692	0	correct_rejection	NA	0
37	Triplet	122	608	446	4	0	0	352073	692	0	correct_rejection	NA	0
37	Triplet	123	609	447	7	0	0	352782	692	0	correct_rejection	NA	0
37	Triplet	124	610	448	8	0	0	353490	692	0	correct_rejection	NA	0
37	Triplet	125	611	449	9	0	0	354199	692	0	correct_rejection	NA	0
37	Triplet	126	612	450	7	0	0	354908	691	0	correct_rejection	NA	0
37	Triplet	127	613	451	8	0	0	355616	692	0	correct_rejection	NA	0
37	Triplet	128	614	452	9	0	0	356325	691	0	correct_rejection	NA	0
37	Triplet	129	615	453	4	0	0	357033	692	0	correct_rejection	NA	0
37	Triplet	130	616	454	5	0	0	357742	692	0	correct_rejection	NA	0
37	Triplet	131	617	455	6	0	0	358450	692	0	correct_rejection	NA	0
37	Triplet	132	618	456	6	0	0	359159	692	0	correct_rejection	NA	0
37	Triplet	133	619	457	5	0	0	359868	691	0	correct_rejection	NA	0
37	Triplet	134	620	458	4	0	0	360576	692	0	correct_rejection	NA	0
37	Triplet	135	621	459	4	0	0	361285	691	0	correct_rejection	NA	0
37	Triplet	136	622	460	5	0	0	361993	692	0	correct_rejection	NA	0
37	Triplet	137	623	461	6	0	0	362702	692	0	correct_rejection	NA	0
37	Triplet	138	624	462	7	0	0	363410	692	0	correct_rejection	NA	0
37	Triplet	139	625	463	8	0	0	364119	692	0	correct_rejection	NA	0
37	Triplet	140	626	464	9	0	0	364828	691	0	correct_rejection	NA	0
37	Triplet	141	627	465	9	0	0	365536	692	0	correct_rejection	NA	0
37	Triplet	142	628	466	8	0	0	366245	691	0	correct_rejection	NA	0
37	Triplet	143	629	467	7	0	0	366953	692	0	correct_rejection	NA	0
37	Triplet	144	630	468	0	1	2	367662	692	1	hit	463	0
37	Triplet	145	631	469	9	0	0	368370	692	0	correct_rejection	NA	0
37	Triplet	146	632	470	8	0	0	369079	692	0	correct_rejection	NA	0
37	Triplet	147	633	471	7	0	0	369788	691	0	correct_rejection	NA	0
37	Triplet	148	634	472	4	0	0	370496	692	0	correct_rejection	NA	0
37	Triplet	149	635	473	5	0	0	371205	691	0	correct_rejection	NA	0
37	Triplet	150	636	474	6	0	0	371913	692	0	correct_rejection	NA	0
37	Triplet	151	637	475	4	0	0	372622	691	0	correct_rejection	NA	0
37	Triplet	152	638	476	5	0	0	373330	692	0	correct_rejection	NA	0
37	Triplet	153	639	477	6	0	0	374039	692	0	correct_rejection	NA	0
37	Triplet	154	640	478	9	0	0	374747	692	0	correct_rejection	NA	0
37	Triplet	155	641	479	8	0	0	375456	692	0	correct_rejection	NA	0
37	Triplet	156	642	480	7	0	0	376165	691	0	correct_rejection	NA	0
37	Triplet	157	643	481	7	0	0	376873	692	0	correct_rejection	NA	0
37	Triplet	158	644	482	8	0	0	377582	691	0	correct_rejection	NA	0
37	Triplet	159	645	483	9	0	0	378290	692	0	correct_rejection	NA	0
37	Triplet	160	646	484	6	0	0	378999	692	0	correct_rejection	NA	0
37	Triplet	161	647	485	5	0	0	379707	692	0	correct_rejection	NA	0
37	Triplet	162	648	486	4	0	0	380416	692	0	correct_rejection	NA	0
37	Nonet	1	649	487	6	0	0	390928	691	0	correct_rejection	NA	7809
37	Nonet	2	650	488	5	0	0	391636	692	0	correct_rejection	NA	0
37	Nonet	3	651	489	4	0	0	392345	692	0	correct_rejection	NA	0
37	Nonet	4	652	490	6	0	0	393053	692	0	correct_rejection	NA	0
37	Nonet	5	653	491	5	0	0	393762	692	0	correct_rejection	NA	0
37	Nonet	6	654	492	4	0	0	394471	691	0	correct_rejection	NA	0
37	Nonet	7	655	493	6	0	0	395179	692	0	correct_rejection	NA	0
37	Nonet	8	656	494	5	0	0	395888	691	0	correct_rejection	NA	0
37	Nonet	9	657	495	4	0	0	396596	692	0	correct_rejection	NA	0
37	Nonet	10	658	496	9	0	0	397305	692	0	correct_rejection	NA	0
37	Nonet	11	659	497	8	0	0	398013	692	0	correct_rejection	NA	0
37	Nonet	12	660	498	7	0	0	398722	692	0	correct_rejection	NA	0
37	Nonet	13	661	499	9	0	0	399431	691	0	correct_rejection	NA	0
37	Nonet	14	662	500	8	0	0	400139	692	0	correct_rejection	NA	0
37	Nonet	15	663	501	7	0	0	400848	691	0	correct_rejection	NA	0
37	Nonet	16	664	502	0	1	2	401556	692	1	hit	500	0
37	Nonet	17	665	503	9	0	0	402265	692	0	correct_rejection	NA	0
37	Nonet	18	666	504	8	0	0	402973	692	0	correct_rejection	NA	0
37	Nonet	19	667	505	7	0	0	403682	692	0	correct_rejection	NA	0
37	Nonet	20	668	506	0	1	3	404391	691	1	hit	296	0
37	Nonet	21	669	507	4	0	0	405099	692	0	correct_rejection	NA	0
37	Nonet	22	670	508	5	0	0	405808	691	0	correct_rejection	NA	0
37	Nonet	23	671	509	0	1	1	406516	692	1	hit	371	0
37	Nonet	24	672	510	6	0	0	407225	691	0	correct_rejection	NA	0
37	Nonet	25	673	511	4	0	0	407933	692	0	correct_rejection	NA	0
37	Nonet	26	674	512	5	0	0	408642	692	0	correct_rejection	NA	0
37	Nonet	27	675	513	6	0	0	409351	691	0	correct_rejection	NA	0
37	Nonet	28	676	514	4	0	0	410059	692	0	correct_rejection	NA	0
37	Nonet	29	677	515	5	0	0	410768	691	0	correct_rejection	NA	0
37	Nonet	30	678	516	0	1	1	411476	692	1	hit	343	0
37	Nonet	31	679	517	6	0	0	412185	691	0	correct_rejection	NA	0
37	Nonet	32	680	518	4	0	0	412893	692	0	correct_rejection	NA	0
37	Nonet	33	681	519	5	0	0	413602	692	0	correct_rejection	NA	0
37	Nonet	34	682	520	6	0	0	414310	692	0	correct_rejection	NA	0
37	Nonet	35	683	521	4	0	0	415019	692	0	correct_rejection	NA	0
37	Nonet	36	684	522	5	0	0	415728	691	0	correct_rejection	NA	0
37	Nonet	37	685	523	6	0	0	416436	692	0	correct_rejection	NA	0
37	Nonet	38	686	524	4	0	0	417145	691	0	correct_rejection	NA	0
37	Nonet	39	687	525	5	0	0	417853	692	0	correct_rejection	NA	0
37	Nonet	40	688	526	6	0	0	418562	692	0	correct_rejection	NA	0
37	Nonet	41	689	527	6	0	0	419270	692	0	correct_rejection	NA	0
37	Nonet	42	690	528	5	0	0	419979	692	0	correct_rejection	NA	0
37	Nonet	43	691	529	4	0	0	420688	691	0	correct_rejection	NA	0
37	Nonet	44	692	530	6	0	0	421396	692	0	correct_rejection	NA	0
37	Nonet	45	693	531	5	0	0	422105	691	0	correct_rejection	NA	0
37	Nonet	46	694	532	4	0	0	422813	692	0	correct_rejection	NA	0
37	Nonet	47	695	533	6	0	0	423522	692	0	correct_rejection	NA	0
37	Nonet	48	696	534	5	0	0	424230	692	0	correct_rejection	NA	0
37	Nonet	49	697	535	0	1	1	424939	692	1	hit	292	0
37	Nonet	50	698	536	4	0	0	425648	691	0	correct_rejection	NA	0
37	Nonet	51	699	537	6	0	0	426356	692	0	correct_rejection	NA	0
37	Nonet	52	700	538	5	0	0	427065	691	0	correct_rejection	NA	0
37	Nonet	53	701	539	4	0	0	427773	692	0	correct_rejection	NA	0
37	Nonet	54	702	540	6	0	0	428482	691	0	correct_rejection	NA	0
37	Nonet	55	703	541	0	1	1	429190	692	1	hit	563	0
37	Nonet	56	704	542	5	0	0	429899	692	0	correct_rejection	NA	0
37	Nonet	57	705	543	4	0	0	430607	692	0	correct_rejection	NA	0
37	Nonet	58	706	544	0	1	2	431316	692	0	miss	NA	0
37	Nonet	59	707	545	6	0	0	432025	691	0	correct_rejection	NA	0
37	Nonet	60	708	546	5	0	0	432733	692	0	correct_rejection	NA	0
37	Nonet	61	709	547	4	0	0	433442	691	0	correct_rejection	NA	0
37	Nonet	62	710	548	4	0	0	434150	692	0	correct_rejection	NA	0
37	Nonet	63	711	549	5	0	0	434859	692	0	correct_rejection	NA	0
37	Nonet	64	712	550	6	0	0	435567	692	0	correct_rejection	NA	0
37	Nonet	65	713	551	4	0	0	436276	692	0	correct_rejection	NA	0
37	Nonet	66	714	552	5	0	0	436985	691	0	correct_rejection	NA	0
37	Nonet	67	715	553	6	0	0	437693	692	0	correct_rejection	NA	0
37	Nonet	68	716	554	4	0	0	438402	691	0	correct_rejection	NA	0
37	Nonet	69	717	555	5	0	0	439110	692	0	correct_rejection	NA	0
37	Nonet	70	718	556	6	0	0	439819	692	0	correct_rejection	NA	0
37	Nonet	71	719	557	7	0	0	440527	692	0	correct_rejection	NA	0
37	Nonet	72	720	558	8	0	0	441236	692	0	correct_rejection	NA	0
37	Nonet	73	721	559	9	0	0	441945	691	0	correct_rejection	NA	0
37	Nonet	74	722	560	0	1	2	442653	692	1	hit	327	0
37	Nonet	75	723	561	7	0	0	443362	691	0	correct_rejection	NA	0
37	Nonet	76	724	562	8	0	0	444070	692	0	correct_rejection	NA	0
37	Nonet	77	725	563	0	1	1	444779	691	1	hit	550	0
37	Nonet	78	726	564	9	0	0	445487	692	0	correct_rejection	NA	0
37	Nonet	79	727	565	7	0	0	446196	692	0	correct_rejection	NA	0
37	Nonet	80	728	566	8	0	0	446904	692	0	correct_rejection	NA	0
37	Nonet	81	729	567	9	0	0	447613	692	0	correct_rejection	NA	0
37	Nonet	82	730	568	6	0	0	448322	691	0	correct_rejection	NA	0
37	Nonet	83	731	569	5	0	0	449030	692	0	correct_rejection	NA	0
37	Nonet	84	732	570	4	0	0	449739	691	0	correct_rejection	NA	0
37	Nonet	85	733	571	6	0	0	450447	692	0	correct_rejection	NA	0
37	Nonet	86	734	572	5	0	0	451156	692	0	correct_rejection	NA	0
37	Nonet	87	735	573	4	0	0	451864	692	0	correct_rejection	NA	0
37	Nonet	88	736	574	0	1	2	452573	692	1	hit	407	0
37	Nonet	89	737	575	6	0	0	453282	691	0	correct_rejection	NA	0
37	Nonet	90	738	576	5	0	0	453990	692	0	correct_rejection	NA	0
37	Nonet	91	739	577	4	0	0	454699	691	0	correct_rejection	NA	0
37	Nonet	92	740	578	7	0	0	455407	692	0	correct_rejection	NA	0
37	Nonet	93	741	579	8	0	0	456116	692	0	correct_rejection	NA	0
37	Nonet	94	742	580	9	0	0	456824	692	0	correct_rejection	NA	0
37	Nonet	95	743	581	7	0	0	457533	692	0	correct_rejection	NA	0
37	Nonet	96	744	582	8	0	0	458242	691	0	correct_rejection	NA	0
37	Nonet	97	745	583	9	0	0	458950	692	0	correct_rejection	NA	0
37	Nonet	98	746	584	7	0	0	459659	691	0	correct_rejection	NA	0
37	Nonet	99	747	585	0	1	1	460367	692	1	hit	370	0
37	Nonet	100	748	586	8	0	0	461076	692	0	correct_rejection	NA	0
37	Nonet	101	749	587	9	0	0	461784	692	0	correct_rejection	NA	0
37	Nonet	102	750	588	4	0	0	462493	692	0	correct_rejection	NA	0
37	Nonet	103	751	589	0	1	1	463202	691	1	hit	347	0
37	Nonet	104	752	590	5	0	0	463910	692	0	correct_rejection	NA	0
37	Nonet	105	753	591	6	0	0	464619	691	0	correct_rejection	NA	0
37	Nonet	106	754	592	0	1	2	465327	692	1	hit	424	0
37	Nonet	107	755	593	4	0	0	466036	691	0	correct_rejection	NA	0
37	Nonet	108	756	594	5	0	0	466744	692	0	correct_rejection	NA	0
37	Nonet	109	757	595	6	0	0	467453	692	0	correct_rejection	NA	0
37	Nonet	110	758	596	4	0	0	468161	692	0	correct_rejection	NA	0
37	Nonet	111	759	597	5	0	0	468870	692	0	correct_rejection	NA	0
37	Nonet	112	760	598	6	0	0	469579	691	0	correct_rejection	NA	0
37	Nonet	113	761	599	9	0	0	470287	692	0	correct_rejection	NA	0
37	Nonet	114	762	600	8	0	0	470996	691	0	correct_rejection	NA	0
37	Nonet	115	763	601	7	0	0	471704	692	0	correct_rejection	NA	0
37	Nonet	116	764	602	9	0	0	472413	692	0	correct_rejection	NA	0
37	Nonet	117	765	603	0	1	1	473121	692	1	hit	379	0
37	Nonet	118	766	604	8	0	0	473830	692	0	correct_rejection	NA	0
37	Nonet	119	767	605	7	0	0	474539	691	0	correct_rejection	NA	0
37	Nonet	120	768	606	9	0	0	475247	692	0	correct_rejection	NA	0
37	Nonet	121	769	607	8	0	0	475956	691	0	correct_rejection	NA	0
37	Nonet	122	770	608	0	1	1	476664	692	1	hit	355	0
37	Nonet	123	771	609	7	0	0	477373	692	0	correct_rejection	NA	0
37	Nonet	124	772	610	9	0	0	478081	692	0	correct_rejection	NA	0
37	Nonet	125	773	611	8	0	0	478790	692	0	correct_rejection	NA	0
37	Nonet	126	774	612	7	0	0	479499	691	0	correct_rejection	NA	0
37	Nonet	127	775	613	0	1	2	480207	692	1	hit	368	0
37	Nonet	128	776	614	9	0	0	480916	691	0	correct_rejection	NA	0
37	Nonet	129	777	615	8	0	0	481624	692	0	correct_rejection	NA	0
37	Nonet	130	778	616	0	1	1	482333	691	1	hit	600	0
37	Nonet	131	779	617	7	0	0	483041	692	0	correct_rejection	NA	0
37	Nonet	132	780	618	9	0	0	483750	692	0	correct_rejection	NA	0
37	Nonet	133	781	619	8	0	0	484458	692	0	correct_rejection	NA	0
37	Nonet	134	782	620	7	0	0	485167	692	0	correct_rejection	NA	0
37	Nonet	135	783	621	7	0	0	485876	691	0	correct_rejection	NA	0
37	Nonet	136	784	622	8	0	0	486584	692	0	correct_rejection	NA	0
37	Nonet	137	785	623	9	0	0	487293	691	0	correct_rejection	NA	0
37	Nonet	138	786	624	7	0	0	488001	692	0	correct_rejection	NA	0
37	Nonet	139	787	625	8	0	0	488710	692	0	correct_rejection	NA	0
37	Nonet	140	788	626	9	0	0	489418	692	0	correct_rejection	NA	0
37	Nonet	141	789	627	7	0	0	490127	692	0	correct_rejection	NA	0
37	Nonet	142	790	628	8	0	0	490836	691	0	correct_rejection	NA	0
37	Nonet	143	791	629	9	0	0	491544	692	0	correct_rejection	NA	0
37	Nonet	144	792	630	0	1	3	492253	691	1	hit	494	0
37	Nonet	145	793	631	7	0	0	492961	692	0	correct_rejection	NA	0
37	Nonet	146	794	632	8	0	0	493670	692	0	correct_rejection	NA	0
37	Nonet	147	795	633	9	0	0	494378	692	0	correct_rejection	NA	0
37	Nonet	148	796	634	7	0	0	495087	692	0	correct_rejection	NA	0
37	Nonet	149	797	635	8	0	0	495796	691	0	correct_rejection	NA	0
37	Nonet	150	798	636	9	0	0	496504	692	0	correct_rejection	NA	0
37	Nonet	151	799	637	7	0	0	497213	691	0	correct_rejection	NA	0
37	Nonet	152	800	638	8	0	0	497921	692	0	correct_rejection	NA	0
37	Nonet	153	801	639	9	0	0	498630	691	0	correct_rejection	NA	0
37	Nonet	154	802	640	9	0	0	499338	692	0	correct_rejection	NA	0
37	Nonet	155	803	641	8	0	0	500047	692	0	correct_rejection	NA	0
37	Nonet	156	804	642	7	0	0	500755	692	0	correct_rejection	NA	0
37	Nonet	157	805	643	9	0	0	501464	692	0	correct_rejection	NA	0
37	Nonet	158	806	644	8	0	0	502173	691	0	correct_rejection	NA	0
37	Nonet	159	807	645	7	0	0	502881	692	0	correct_rejection	NA	0
37	Nonet	160	808	646	9	0	0	503590	691	0	correct_rejection	NA	0
37	Nonet	161	809	647	8	0	0	504298	692	0	correct_rejection	NA	0
37	Nonet	162	810	648	7	0	0	505007	692	0	correct_rejection	NA	0
37	Correct	1	487	649	4	0	0	514827	691	0	correct_rejection	NA	7709
37	Correct	2	488	650	5	0	0	515535	692	0	correct_rejection	NA	0
37	Correct	3	489	651	6	0	0	516244	692	0	correct_rejection	NA	0
37	Correct	4	490	652	4	0	0	516952	692	0	correct_rejection	NA	0
37	Correct	5	491	653	0	1	1	517661	692	1	hit	408	0
37	Correct	6	492	654	5	0	0	518370	691	0	correct_rejection	NA	0
37	Correct	7	493	655	6	0	0	519078	692	0	correct_rejection	NA	0
37	Correct	8	494	656	0	1	2	519787	691	1	hit	422	0
37	Correct	9	495	657	4	0	0	520495	692	0	correct_rejection	NA	0
37	Correct	10	496	658	5	0	0	521204	692	0	correct_rejection	NA	0
37	Correct	11	497	659	6	0	0	521912	692	0	correct_rejection	NA	0
37	Correct	12	498	660	6	0	0	522621	692	0	correct_rejection	NA	0
37	Correct	13	499	661	5	0	0	523330	691	0	correct_rejection	NA	0
37	Correct	14	500	662	4	0	0	524038	692	0	correct_rejection	NA	0
37	Correct	15	501	663	0	1	2	524747	691	1	hit	507	0
37	Correct	16	502	664	6	0	0	525455	692	0	correct_rejection	NA	0
37	Correct	17	503	665	5	0	0	526164	692	0	correct_rejection	NA	0
37	Correct	18	504	666	4	0	0	526872	692	0	correct_rejection	NA	0
37	Correct	19	505	667	6	0	0	527581	692	0	correct_rejection	NA	0
37	Correct	20	506	668	0	1	1	528290	691	1	hit	385	0
37	Correct	21	507	669	5	0	0	528998	692	0	correct_rejection	NA	0
37	Correct	22	508	670	4	0	0	529707	691	0	correct_rejection	NA	0
37	Correct	23	509	671	9	0	0	530415	692	0	correct_rejection	NA	0
37	Correct	24	510	672	8	0	0	531124	691	0	correct_rejection	NA	0
37	Correct	25	511	673	7	0	0	531832	692	0	correct_rejection	NA	0
37	Correct	26	512	674	9	0	0	532541	692	0	correct_rejection	NA	0
37	Correct	27	513	675	0	1	1	533249	692	1	hit	495	0
37	Correct	28	514	676	8	0	0	533958	692	0	correct_rejection	NA	0
37	Correct	29	515	677	7	0	0	534667	691	0	correct_rejection	NA	0
37	Correct	30	516	678	9	0	0	535375	692	0	correct_rejection	NA	0
37	Correct	31	517	679	8	0	0	536084	691	0	correct_rejection	NA	0
37	Correct	32	518	680	0	1	1	536792	692	1	hit	496	0
37	Correct	33	519	681	7	0	0	537501	692	0	correct_rejection	NA	0
37	Correct	34	520	682	7	0	0	538209	692	0	correct_rejection	NA	0
37	Correct	35	521	683	8	0	0	538918	692	0	correct_rejection	NA	0
37	Correct	36	522	684	9	0	0	539627	691	0	correct_rejection	NA	0
37	Correct	37	523	685	7	0	0	540335	692	0	correct_rejection	NA	0
37	Correct	38	524	686	8	0	0	541044	691	0	correct_rejection	NA	0
37	Correct	39	525	687	9	0	0	541752	692	0	correct_rejection	NA	0
37	Correct	40	526	688	7	0	0	542461	692	0	correct_rejection	NA	0
37	Correct	41	527	689	8	0	0	543169	692	0	correct_rejection	NA	0
37	Correct	42	528	690	9	0	0	543878	692	0	correct_rejection	NA	0
37	Correct	43	529	691	4	0	0	544587	691	0	correct_rejection	NA	0
37	Correct	44	530	692	5	0	0	545295	692	0	correct_rejection	NA	0
37	Correct	45	531	693	6	0	0	546004	691	0	correct_rejection	NA	0
37	Correct	46	532	694	4	0	0	546712	692	0	correct_rejection	NA	0
37	Correct	47	533	695	5	0	0	547421	692	0	correct_rejection	NA	0
37	Correct	48	534	696	6	0	0	548129	692	0	correct_rejection	NA	0
37	Correct	49	535	697	4	0	0	548838	692	0	correct_rejection	NA	0
37	Correct	50	536	698	5	0	0	549547	691	0	correct_rejection	NA	0
37	Correct	51	537	699	0	1	1	550255	692	1	hit	440	0
37	Correct	52	538	700	6	0	0	550964	691	0	correct_rejection	NA	0
37	Correct	53	539	701	6	0	0	551672	692	0	correct_rejection	NA	0
37	Correct	54	540	702	5	0	0	552381	691	0	correct_rejection	NA	0
37	Correct	55	541	703	4	0	0	553089	692	0	correct_rejection	NA	0
37	Correct	56	542	704	6	0	0	553798	692	0	correct_rejection	NA	0
37	Correct	57	543	705	5	0	0	554506	692	0	correct_rejection	NA	0
37	Correct	58	544	706	4	0	0	555215	692	0	correct_rejection	NA	0
37	Correct	59	545	707	0	1	2	555924	691	0	miss	NA	0
37	Correct	60	546	708	6	0	0	556632	692	0	correct_rejection	NA	0
37	Correct	61	547	709	5	0	0	557341	691	1	false_alarm	28	0
37	Correct	62	548	710	0	1	1	558049	692	1	hit	461	0
37	Correct	63	549	711	4	0	0	558758	692	0	correct_rejection	NA	0
37	Correct	64	550	712	9	0	0	559466	692	0	correct_rejection	NA	0
37	Correct	65	551	713	0	1	1	560175	692	0	miss	NA	0
37	Correct	66	552	714	8	0	0	560884	691	0	correct_rejection	NA	0
37	Correct	67	553	715	7	0	0	561592	692	0	correct_rejection	NA	0
37	Correct	68	554	716	9	0	0	562301	691	0	correct_rejection	NA	0
37	Correct	69	555	717	8	0	0	563009	692	0	correct_rejection	NA	0
37	Correct	70	556	718	0	1	1	563718	692	1	hit	452	0
37	Correct	71	557	719	7	0	0	564426	692	0	correct_rejection	NA	0
37	Correct	72	558	720	9	0	0	565135	692	0	correct_rejection	NA	0
37	Correct	73	559	721	8	0	0	565844	691	0	correct_rejection	NA	0
37	Correct	74	560	722	7	0	0	566552	692	0	correct_rejection	NA	0
37	Correct	75	561	723	7	0	0	567261	691	0	correct_rejection	NA	0
37	Correct	76	562	724	8	0	0	567969	692	0	correct_rejection	NA	0
37	Correct	77	563	725	9	0	0	568678	691	0	correct_rejection	NA	0
37	Correct	78	564	726	7	0	0	569386	692	0	correct_rejection	NA	0
37	Correct	79	565	727	8	0	0	570095	692	0	correct_rejection	NA	0
37	Correct	80	566	728	9	0	0	570803	692	0	correct_rejection	NA	0
37	Correct	81	567	729	7	0	0	571512	692	0	correct_rejection	NA	0
37	Correct	82	568	730	8	0	0	572221	691	0	correct_rejection	NA	0
37	Correct	83	569	731	9	0	0	572929	692	0	correct_rejection	NA	0
37	Correct	84	570	732	4	0	0	573638	691	0	correct_rejection	NA	0
37	Correct	85	571	733	5	0	0	574346	692	0	correct_rejection	NA	0
37	Correct	86	572	734	6	0	0	575055	692	0	correct_rejection	NA	0
37	Correct	87	573	735	4	0	0	575763	692	0	correct_rejection	NA	0
37	Correct	88	574	736	5	0	0	576472	692	0	correct_rejection	NA	0
37	Correct	89	575	737	0	1	1	577181	691	1	hit	358	0
37	Correct	90	576	738	6	0	0	577889	692	0	correct_rejection	NA	0
37	Correct	91	577	739	4	0	0	578598	691	0	correct_rejection	NA	0
37	Correct	92	578	740	5	0	0	579306	692	0	correct_rejection	NA	0
37	Correct	93	579	741	6	0	0	580015	692	0	correct_rejection	NA	0
37	Correct	94	580	742	6	0	0	580723	692	0	correct_rejection	NA	0
37	Correct	95	581	743	0	1	1	581432	692	1	hit	366	0
37	Correct	96	582	744	5	0	0	582141	691	0	correct_rejection	NA	0
37	Correct	97	583	745	4	0	0	582849	692	0	correct_rejection	NA	0
37	Correct	98	584	746	6	0	0	583558	691	0	correct_rejection	NA	0
37	Correct	99	585	747	5	0	0	584266	692	0	correct_rejection	NA	0
37	Correct	100	586	748	4	0	0	584975	692	0	correct_rejection	NA	0
37	Correct	101	587	749	6	0	0	585683	692	0	correct_rejection	NA	0
37	Correct	102	588	750	5	0	0	586392	692	0	correct_rejection	NA	0
37	Correct	103	589	751	4	0	0	587101	691	0	correct_rejection	NA	0
37	Correct	104	590	752	9	0	0	587809	692	0	correct_rejection	NA	0
37	Correct	105	591	753	8	0	0	588518	691	0	correct_rejection	NA	0
37	Correct	106	592	754	7	0	0	589226	692	0	correct_rejection	NA	0
37	Correct	107	593	755	9	0	0	589935	691	0	correct_rejection	NA	0
37	Correct	108	594	756	8	0	0	590643	692	0	correct_rejection	NA	0
37	Correct	109	595	757	7	0	0	591352	692	0	correct_rejection	NA	0
37	Correct	110	596	758	9	0	0	592060	692	0	correct_rejection	NA	0
37	Correct	111	597	759	8	0	0	592769	692	0	correct_rejection	NA	0
37	Correct	112	598	760	7	0	0	593478	691	0	correct_rejection	NA	0
37	Correct	113	599	761	7	0	0	594186	692	0	correct_rejection	NA	0
37	Correct	114	600	762	8	0	0	594895	691	0	correct_rejection	NA	0
37	Correct	115	601	763	0	1	1	595603	692	1	hit	411	0
37	Correct	116	602	764	9	0	0	596312	692	0	correct_rejection	NA	0
37	Correct	117	603	765	7	0	0	597020	692	0	correct_rejection	NA	0
37	Correct	118	604	766	8	0	0	597729	692	0	correct_rejection	NA	0
37	Correct	119	605	767	9	0	0	598438	691	0	correct_rejection	NA	0
37	Correct	120	606	768	7	0	0	599146	692	0	correct_rejection	NA	0
37	Correct	121	607	769	8	0	0	599855	691	0	correct_rejection	NA	0
37	Correct	122	608	770	9	0	0	600563	692	0	correct_rejection	NA	0
37	Correct	123	609	771	0	1	4	601272	692	1	hit	377	0
37	Correct	124	610	772	4	0	0	601980	692	0	correct_rejection	NA	0
37	Correct	125	611	773	5	0	0	602689	692	0	correct_rejection	NA	0
37	Correct	126	612	774	6	0	0	603398	691	0	correct_rejection	NA	0
37	Correct	127	613	775	4	0	0	604106	692	0	correct_rejection	NA	0
37	Correct	128	614	776	5	0	0	604815	691	0	correct_rejection	NA	0
37	Correct	129	615	777	6	0	0	605523	692	0	correct_rejection	NA	0
37	Correct	130	616	778	0	1	2	606232	691	1	hit	431	0
37	Correct	131	617	779	4	0	0	606940	692	0	correct_rejection	NA	0
37	Correct	132	618	780	5	0	0	607649	692	0	correct_rejection	NA	0
37	Correct	133	619	781	6	0	0	608357	692	0	correct_rejection	NA	0
37	Correct	134	620	782	6	0	0	609066	692	0	correct_rejection	NA	0
37	Correct	135	621	783	5	0	0	609775	691	0	correct_rejection	NA	0
37	Correct	136	622	784	4	0	0	610483	692	0	correct_rejection	NA	0
37	Correct	137	623	785	6	0	0	611192	691	0	correct_rejection	NA	0
37	Correct	138	624	786	5	0	0	611900	692	0	correct_rejection	NA	0
37	Correct	139	625	787	0	1	1	612609	692	1	hit	449	0
37	Correct	140	626	788	4	0	0	613317	692	0	correct_rejection	NA	0
37	Correct	141	627	789	6	0	0	614026	692	0	correct_rejection	NA	0
37	Correct	142	628	790	5	0	0	614735	691	0	correct_rejection	NA	0
37	Correct	143	629	791	4	0	0	615443	692	0	correct_rejection	NA	0
37	Correct	144	630	792	0	1	3	616152	691	1	hit	473	0
37	Correct	145	631	793	9	0	0	616860	692	0	correct_rejection	NA	0
37	Correct	146	632	794	8	0	0	617569	692	0	correct_rejection	NA	0
37	Correct	147	633	795	7	0	0	618277	692	0	correct_rejection	NA	0
37	Correct	148	634	796	9	0	0	618986	692	0	correct_rejection	NA	0
37	Correct	149	635	797	8	0	0	619695	691	0	correct_rejection	NA	0
37	Correct	150	636	798	7	0	0	620403	692	0	correct_rejection	NA	0
37	Correct	151	637	799	9	0	0	621112	691	0	correct_rejection	NA	0
37	Correct	152	638	800	8	0	0	621820	692	0	correct_rejection	NA	0
37	Correct	153	639	801	7	0	0	622529	691	0	correct_rejection	NA	0
37	Correct	154	640	802	7	0	0	623237	692	0	correct_rejection	NA	0
37	Correct	155	641	803	8	0	0	623946	692	0	correct_rejection	NA	0
37	Correct	156	642	804	9	0	0	624654	692	0	correct_rejection	NA	0
37	Correct	157	643	805	7	0	0	625363	692	0	correct_rejection	NA	0
37	Correct	158	644	806	8	0	0	626072	691	0	correct_rejection	NA	0
37	Correct	159	645	807	9	0	0	626780	692	0	correct_rejection	NA	0
37	Correct	160	646	808	7	0	0	627489	691	0	correct_rejection	NA	0
37	Correct	161	647	809	8	0	0	628197	692	0	correct_rejection	NA	0
37	Correct	162	648	810	9	0	0	628906	692	0	correct_rejection	NA	0
trigger nr 621 at 631070
trigger nr 625 at 705349
37	Triplet	1	1	811	9	0	0	713217	692	0	correct_rejection	NA	7829
37	Triplet	2	2	812	8	0	0	713925	692	0	correct_rejection	NA	0
37	Triplet	3	3	813	7	0	0	714634	692	0	correct_rejection	NA	0
37	Triplet	4	4	814	6	0	0	715343	691	0	correct_rejection	NA	0
37	Triplet	5	5	815	5	0	0	716051	692	0	correct_rejection	NA	0
37	Triplet	6	6	816	4	0	0	716760	691	0	correct_rejection	NA	0
37	Triplet	7	7	817	7	0	0	717468	692	0	correct_rejection	NA	0
37	Triplet	8	8	818	8	0	0	718177	692	0	correct_rejection	NA	0
37	Triplet	9	9	819	9	0	0	718885	692	0	correct_rejection	NA	0
37	Triplet	10	10	820	7	0	0	719594	692	0	correct_rejection	NA	0
37	Triplet	11	11	821	8	0	0	720303	691	0	correct_rejection	NA	0
37	Triplet	12	12	822	9	0	0	721011	692	0	correct_rejection	NA	0
37	Triplet	13	13	823	0	1	2	721720	691	1	hit	385	0
37	Triplet	14	14	824	4	0	0	722428	692	0	correct_rejection	NA	0
37	Triplet	15	15	825	5	0	0	723137	692	0	correct_rejection	NA	0
37	Triplet	16	16	826	0	1	1	723845	692	1	hit	381	0
37	Triplet	17	17	827	6	0	0	724554	692	0	correct_rejection	NA	0
37	Triplet	18	18	828	6	0	0	725263	691	0	correct_rejection	NA	0
37	Triplet	19	19	829	0	1	1	725971	692	1	hit	374	0
37	Triplet	20	20	830	5	0	0	726680	691	0	correct_rejection	NA	0
37	Triplet	21	21	831	4	0	0	727388	692	0	correct_rejection	NA	0
37	Triplet	22	22	832	4	0	0	728097	691	0	correct_rejection	NA	0
37	Triplet	23	23	833	5	0	0	728805	692	0	correct_rejection	NA	0
37	Triplet	24	24	834	6	0	0	729514	692	0	correct_rejection	NA	0
37	Triplet	25	25	835	0	1	2	730222	692	1	hit	348	0
37	Triplet	26	26	836	7	0	0	730931	692	0	correct_rejection	NA	0
37	Triplet	27	27	837	8	0	0	731640	691	0	correct_rejection	NA	0
37	Triplet	28	28	838	9	0	0	732348	692	0	correct_rejection	NA	0
37	Triplet	29	29	839	9	0	0	733057	691	0	correct_rejection	NA	0
37	Triplet	30	30	840	8	0	0	733765	692	0	correct_rejection	NA	0
37	Triplet	31	31	841	7	0	0	734474	692	0	correct_rejection	NA	0
37	Triplet	32	32	842	7	0	0	735182	692	0	correct_rejection	NA	0
37	Triplet	33	33	843	8	0	0	735891	692	0	correct_rejection	NA	0
37	Triplet	34	34	844	9	0	0	736600	691	0	correct_rejection	NA	0
37	Triplet	35	35	845	6	0	0	737308	692	0	correct_rejection	NA	0
37	Triplet	36	36	846	5	0	0	738017	691	0	correct_rejection	NA	0
37	Triplet	37	37	847	4	0	0	738725	692	0	correct_rejection	NA	0
37	Triplet	38	38	848	6	0	0	739434	692	0	correct_rejection	NA	0
37	Triplet	39	39	849	5	0	0	740142	692	0	correct_rejection	NA	0
37	Triplet	40	40	850	4	0	0	740851	692	0	correct_rejection	NA	0
37	Triplet	41	41	851	9	0	0	741560	691	0	correct_rejection	NA	0
37	Triplet	42	42	852	8	0	0	742268	692	0	correct_rejection	NA	0
37	Triplet	43	43	853	7	0	0	742977	691	0	correct_rejection	NA	0
37	Triplet	44	44	854	9	0	0	743685	692	0	correct_rejection	NA	0
37	Triplet	45	45	855	8	0	0	744394	691	0	correct_rejection	NA	0
37	Triplet	46	46	856	7	0	0	745102	692	0	correct_rejection	NA	0
37	Triplet	47	47	857	0	1	2	745811	692	1	hit	386	0
37	Triplet	48	48	858	4	0	0	746519	692	0	correct_rejection	NA	0
37	Triplet	49	49	859	5	0	0	747228	692	0	correct_rejection	NA	0
37	Triplet	50	50	860	0	1	1	747937	691	1	hit	445	0
37	Triplet	51	51	861	6	0	0	748645	692	0	correct_rejection	NA	0
37	Triplet	52	52	862	4	0	0	749354	691	0	correct_rejection	NA	0
37	Triplet	53	53	863	5	0	0	750062	692	0	correct_rejection	NA	0
37	Triplet	54	54	864	6	0	0	750771	692	0	correct_rejection	NA	0
37	Triplet	55	55	865	9	0	0	751479	692	0	correct_rejection	NA	0
37	Triplet	56	56	866	8	0	0	752188	692	0	correct_rejection	NA	0
37	Triplet	57	57	867	7	0	0	752897	691	0	correct_rejection	NA	0
37	Triplet	58	58	868	4	0	0	753605	692	0	correct_rejection	NA	0
37	Triplet	59	59	869	5	0	0	754314	691	0	correct_rejection	NA	0
37	Triplet	60	60	870	6	0	0	755022	692	0	correct_rejection	NA	0
37	Triplet	61	61	871	0	1	2	755731	692	1	hit	431	0
37	Triplet	62	62	872	6	0	0	756439	692	0	correct_rejection	NA	0
37	Triplet	63	63	873	5	0	0	757148	692	0	correct_rejection	NA	0
37	Triplet	64	64	874	0	1	1	757857	691	1	hit	365	0
37	Triplet	65	65	875	4	0	0	758565	692	0	correct_rejection	NA	0
37	Triplet	66	66	876	6	0	0	759274	691	0	correct_rejection	NA	0
37	Triplet	67	67	877	5	0	0	759982	692	0	correct_rejection	NA	0
37	Triplet	68	68	878	4	0	0	760691	691	0	correct_rejection	NA	0
37	Triplet	69	69	879	0	1	2	761399	692	1	hit	356	0
37	Triplet	70	70	880	7	0	0	762108	692	0	correct_rejection	NA	0
37	Triplet	71	71	881	8	0	0	762817	691	0	correct_rejection	NA	0
37	Triplet	72	72	882	0	1	1	763525	692	1	hit	410	0
37	Triplet	73	73	883	9	0	0	764234	691	0	correct_rejection	NA	0
37	Triplet	74	74	884	4	0	0	764942	692	0	correct_rejection	NA	0
37	Triplet	75	75	885	0	1	1	765651	691	1	hit	291	0
37	Triplet	76	76	886	5	0	0	766359	692	0	correct_rejection	NA	0
37	Triplet	77	77	887	6	0	0	767068	692	1	false_alarm	283	0
37	Triplet	78	78	888	9	0	0	767776	692	0	correct_rejection	NA	0
37	Triplet	79	79	889	8	0	0	768485	692	0	correct_rejection	NA	0
37	Triplet	80	80	890	7	0	0	769194	691	0	correct_rejection	NA	0
37	Triplet	81	81	891	7	0	0	769902	692	0	correct_rejection	NA	0
37	Triplet	82	82	892	8	0	0	770611	691	0	correct_rejection	NA	0
37	Triplet	83	83	893	9	0	0	771319	692	0	correct_rejection	NA	0
37	Triplet	84	84	894	0	1	2	772028	692	1	hit	351	0
37	Triplet	85	85	895	9	0	0	772736	692	0	correct_rejection	NA	0
37	Triplet	86	86	896	8	0	0	773445	692	0	correct_rejection	NA	0
37	Triplet	87	87	897	7	0	0	774154	691	0	correct_rejection	NA	0
37	Triplet	88	88	898	6	0	0	774862	692	0	correct_rejection	NA	0
37	Triplet	89	89	899	5	0	0	775571	691	0	correct_rejection	NA	0
37	Triplet	90	90	900	4	0	0	776279	692	0	correct_rejection	NA	0
37	Triplet	91	91	901	4	0	0	776988	692	0	correct_rejection	NA	0
37	Triplet	92	92	902	5	0	0	777696	692	0	correct_rejection	NA	0
37	Triplet	93	93	903	6	0	0	778405	692	0	correct_rejection	NA	0
37	Triplet	94	94	904	4	0	0	779114	691	0	correct_rejection	NA	0
37	Triplet	95	95	905	0	1	1	779822	692	1	hit	418	0
37	Triplet	96	96	906	5	0	0	780531	691	0	correct_rejection	NA	0
37	Triplet	97	97	907	6	0	0	781239	692	0	correct_rejection	NA	0
37	Triplet	98	98	908	7	0	0	781948	691	0	correct_rejection	NA	0
37	Triplet	99	99	909	8	0	0	782656	692	0	correct_rejection	NA	0
37	Triplet	100	100	910	9	0	0	783365	692	0	correct_rejection	NA	0
37	Triplet	101	101	911	7	0	0	784073	692	0	correct_rejection	NA	0
37	Triplet	102	102	912	8	0	0	784782	692	0	correct_rejection	NA	0
37	Triplet	103	103	913	9	0	0	785491	691	0	correct_rejection	NA	0
37	Triplet	104	104	914	6	0	0	786199	692	0	correct_rejection	NA	0
37	Triplet	105	105	915	5	0	0	786908	691	0	correct_rejection	NA	0
37	Triplet	106	106	916	4	0	0	787616	692	0	correct_rejection	NA	0
37	Triplet	107	107	917	9	0	0	788325	692	0	correct_rejection	NA	0
37	Triplet	108	108	918	8	0	0	789033	692	0	correct_rejection	NA	0
37	Triplet	109	109	919	0	1	1	789742	692	1	hit	560	0
37	Triplet	110	110	920	7	0	0	790451	691	0	correct_rejection	NA	0
37	Triplet	111	111	921	7	0	0	791159	692	0	correct_rejection	NA	0
37	Triplet	112	112	922	8	0	0	791868	691	0	correct_rejection	NA	0
37	Triplet	113	113	923	9	0	0	792576	692	0	correct_rejection	NA	0
37	Triplet	114	114	924	4	0	0	793285	692	0	correct_rejection	NA	0
37	Triplet	115	115	925	5	0	0	793993	692	0	correct_rejection	NA	0
37	Triplet	116	116	926	6	0	0	794702	692	0	correct_rejection	NA	0
37	Triplet	117	117	927	4	0	0	795411	691	0	correct_rejection	NA	0
37	Triplet	118	118	928	5	0	0	796119	692	0	correct_rejection	NA	0
37	Triplet	119	119	929	6	0	0	796828	691	0	correct_rejection	NA	0
37	Triplet	120	120	930	0	1	2	797536	692	1	hit	425	0
37	Triplet	121	121	931	9	0	0	798245	691	0	correct_rejection	NA	0
37	Triplet	122	122	932	8	0	0	798953	692	0	correct_rejection	NA	0
37	Triplet	123	123	933	7	0	0	799662	692	0	correct_rejection	NA	0
37	Triplet	124	124	934	4	0	0	800370	692	0	correct_rejection	NA	0
37	Triplet	125	125	935	5	0	0	801079	692	0	correct_rejection	NA	0
37	Triplet	126	126	936	6	0	0	801788	691	0	correct_rejection	NA	0
37	Triplet	127	127	937	7	0	0	802496	692	0	correct_rejection	NA	0
37	Triplet	128	128	938	8	0	0	803205	691	0	correct_rejection	NA	0
37	Triplet	129	129	939	0	1	1	803913	692	1	hit	369	0
37	Triplet	130	130	940	9	0	0	804622	692	0	correct_rejection	NA	0
37	Triplet	131	131	941	6	0	0	805330	692	0	correct_rejection	NA	0
37	Triplet	132	132	942	5	0	0	806039	692	0	correct_rejection	NA	0
37	Triplet	133	133	943	4	0	0	806748	691	0	correct_rejection	NA	0
37	Triplet	134	134	944	0	1	2	807456	692	1	hit	349	0
37	Triplet	135	135	945	4	0	0	808165	691	0	correct_rejection	NA	0
37	Triplet	136	136	946	5	0	0	808873	692	0	correct_rejection	NA	0
37	Triplet	137	137	947	6	0	0	809582	692	0	correct_rejection	NA	0
37	Triplet	138	138	948	6	0	0	810290	692	0	correct_rejection	NA	0
37	Triplet	139	139	949	5	0	0	810999	692	0	correct_rejection	NA	0
37	Triplet	140	140	950	4	0	0	811708	691	0	correct_rejection	NA	0
37	Triplet	141	141	951	9	0	0	812416	692	0	correct_rejection	NA	0
37	Triplet	142	142	952	8	0	0	813125	691	0	correct_rejection	NA	0
37	Triplet	143	143	953	7	0	0	813833	692	0	correct_rejection	NA	0
37	Triplet	144	144	954	7	0	0	814542	692	0	correct_rejection	NA	0
37	Triplet	145	145	955	8	0	0	815250	692	0	correct_rejection	NA	0
37	Triplet	146	146	956	9	0	0	815959	692	0	correct_rejection	NA	0
37	Triplet	147	147	957	7	0	0	816668	691	0	correct_rejection	NA	0
37	Triplet	148	148	958	8	0	0	817376	692	0	correct_rejection	NA	0
37	Triplet	149	149	959	9	0	0	818085	691	0	correct_rejection	NA	0
37	Triplet	150	150	960	9	0	0	818793	692	0	correct_rejection	NA	0
37	Triplet	151	151	961	0	1	1	819502	691	1	hit	547	0
37	Triplet	152	152	962	8	0	0	820210	692	0	correct_rejection	NA	0
37	Triplet	153	153	963	7	0	0	820919	692	0	correct_rejection	NA	0
37	Triplet	154	154	964	9	0	0	821627	692	0	correct_rejection	NA	0
37	Triplet	155	155	965	8	0	0	822336	692	0	correct_rejection	NA	0
37	Triplet	156	156	966	7	0	0	823045	691	0	correct_rejection	NA	0
37	Triplet	157	157	967	6	0	0	823753	692	0	correct_rejection	NA	0
37	Triplet	158	158	968	5	0	0	824462	691	0	correct_rejection	NA	0
37	Triplet	159	159	969	4	0	0	825170	692	0	correct_rejection	NA	0
37	Triplet	160	160	970	6	0	0	825879	692	0	correct_rejection	NA	0
37	Triplet	161	161	971	5	0	0	826587	692	0	correct_rejection	NA	0
37	Triplet	162	162	972	4	0	0	827296	692	0	correct_rejection	NA	0
37	Single	1	1	973	9	0	0	837349	692	0	correct_rejection	NA	7958
37	Single	2	2	974	5	0	0	838058	692	0	correct_rejection	NA	0
37	Single	3	3	975	4	0	0	838766	692	0	correct_rejection	NA	0
37	Single	4	4	976	7	0	0	839475	692	0	correct_rejection	NA	0
37	Single	5	5	977	9	0	0	840184	691	0	correct_rejection	NA	0
37	Single	6	6	978	4	0	0	840892	692	0	correct_rejection	NA	0
37	Single	7	7	979	4	0	0	841601	691	0	correct_rejection	NA	0
37	Single	8	8	980	5	0	0	842309	692	0	correct_rejection	NA	0
37	Single	9	9	981	0	1	1	843018	692	1	hit	406	0
37	Single	10	10	982	8	0	0	843726	692	0	correct_rejection	NA	0
37	Single	11	11	983	7	0	0	844435	692	0	correct_rejection	NA	0
37	Single	12	12	984	5	0	0	845144	691	0	correct_rejection	NA	0
37	Single	13	13	985	7	0	0	845852	692	0	correct_rejection	NA	0
37	Single	14	14	986	0	1	1	846561	691	1	hit	387	0
37	Single	15	15	987	7	0	0	847269	692	0	correct_rejection	NA	0
37	Single	16	16	988	8	0	0	847978	691	0	correct_rejection	NA	0
37	Single	17	17	989	9	0	0	848686	692	0	correct_rejection	NA	0
37	Single	18	18	990	8	0	0	849395	692	0	correct_rejection	NA	0
37	Single	19	19	991	6	0	0	850103	692	0	correct_rejection	NA	0
37	Single	20	20	992	4	0	0	850812	692	0	correct_rejection	NA	0
37	Single	21	21	993	0	1	1	851521	691	1	hit	347	0
37	Single	22	22	994	9	0	0	852229	692	0	correct_rejection	NA	0
37	Single	23	23	995	9	0	0	852938	691	0	correct_rejection	NA	0
37	Single	24	24	996	7	0	0	853646	692	0	correct_rejection	NA	0
37	Single	25	25	997	0	1	1	854355	692	1	hit	355	0
37	Single	26	26	998	6	0	0	855063	692	0	correct_rejection	NA	0
37	Single	27	27	999	6	0	0	855772	692	0	correct_rejection	NA	0
37	Single	28	28	1000	8	0	0	856481	691	0	correct_rejection	NA	0
37	Single	29	29	1001	5	0	0	857189	692	0	correct_rejection	NA	0
37	Single	30	30	1002	6	0	0	857898	691	0	correct_rejection	NA	0
37	Single	31	31	1003	0	1	1	858606	692	1	hit	374	0
37	Single	32	32	1004	7	0	0	859315	692	0	correct_rejection	NA	0
37	Single	33	33	1005	4	0	0	860023	692	0	correct_rejection	NA	0
37	Single	34	34	1006	8	0	0	860732	692	0	correct_rejection	NA	0
37	Single	35	35	1007	8	0	0	861441	691	0	correct_rejection	NA	0
37	Single	36	36	1008	4	0	0	862149	692	0	correct_rejection	NA	0
37	Single	37	37	1009	6	0	0	862858	691	0	correct_rejection	NA	0
37	Single	38	38	1010	5	0	0	863566	692	0	correct_rejection	NA	0
37	Single	39	39	1011	5	0	0	864275	691	0	correct_rejection	NA	0
37	Single	40	40	1012	9	0	0	864983	692	0	correct_rejection	NA	0
37	Single	41	41	1013	6	0	0	865692	692	0	correct_rejection	NA	0
37	Single	42	42	1014	4	0	0	866400	692	0	correct_rejection	NA	0
37	Single	43	43	1015	9	0	0	867109	692	0	correct_rejection	NA	0
37	Single	44	44	1016	8	0	0	867818	691	0	correct_rejection	NA	0
37	Single	45	45	1017	8	0	0	868526	692	0	correct_rejection	NA	0
37	Single	46	46	1018	6	0	0	869235	691	0	correct_rejection	NA	0
37	Single	47	47	1019	9	0	0	869943	692	0	correct_rejection	NA	0
37	Single	48	48	1020	6	0	0	870652	692	0	correct_rejection	NA	0
37	Single	49	49	1021	6	0	0	871360	692	0	correct_rejection	NA	0
37	Single	50	50	1022	7	0	0	872069	692	0	correct_rejection	NA	0
37	Single	51	51	1023	5	0	0	872778	691	0	correct_rejection	NA	0
37	Single	52	52	1024	6	0	0	873486	692	0	correct_rejection	NA	0
37	Single	53	53	1025	5	0	0	874195	691	0	correct_rejection	NA	0
37	Single	54	54	1026	8	0	0	874903	692	0	correct_rejection	NA	0
37	Single	55	55	1027	4	0	0	875612	692	0	correct_rejection	NA	0
37	Single	56	56	1028	5	0	0	876320	692	0	correct_rejection	NA	0
37	Single	57	57	1029	4	0	0	877029	692	0	correct_rejection	NA	0
37	Single	58	58	1030	8	0	0	877738	691	0	correct_rejection	NA	0
37	Single	59	59	1031	7	0	0	878446	692	0	correct_rejection	NA	0
37	Single	60	60	1032	7	0	0	879155	691	0	correct_rejection	NA	0
37	Single	61	61	1033	6	0	0	879863	692	0	correct_rejection	NA	0
37	Single	62	62	1034	8	0	0	880572	692	0	correct_rejection	NA	0
37	Single	63	63	1035	9	0	0	881280	692	0	correct_rejection	NA	0
37	Single	64	64	1036	7	0	0	881989	692	0	correct_rejection	NA	0
37	Single	65	65	1037	9	0	0	882698	691	0	correct_rejection	NA	0
37	Single	66	66	1038	5	0	0	883406	692	0	correct_rejection	NA	0
37	Single	67	67	1039	5	0	0	884115	691	0	correct_rejection	NA	0
37	Single	68	68	1040	7	0	0	884823	692	0	correct_rejection	NA	0
37	Single	69	69	1041	4	0	0	885532	691	0	correct_rejection	NA	0
37	Single	70	70	1042	6	0	0	886240	692	0	correct_rejection	NA	0
37	Single	71	71	1043	4	0	0	886949	692	0	correct_rejection	NA	0
37	Single	72	72	1044	0	1	1	887657	692	1	hit	407	0
37	Single	73	73	1045	4	0	0	888366	692	0	correct_rejection	NA	0
37	Single	74	74	1046	7	0	0	889075	691	0	correct_rejection	NA	0
37	Single	75	75	1047	0	1	1	889783	692	1	hit	382	0
37	Single	76	76	1048	8	0	0	890492	691	0	correct_rejection	NA	0
37	Single	77	77	1049	5	0	0	891200	692	0	correct_rejection	NA	0
37	Single	78	78	1050	9	0	0	891909	692	0	correct_rejection	NA	0
37	Single	79	79	1051	9	0	0	892617	692	0	correct_rejection	NA	0
37	Single	80	80	1052	4	0	0	893326	692	0	correct_rejection	NA	0
37	Single	81	81	1053	9	0	0	894035	691	0	correct_rejection	NA	0
37	Single	82	82	1054	0	1	1	894743	692	1	hit	341	0
37	Single	83	83	1055	6	0	0	895452	691	0	correct_rejection	NA	0
37	Single	84	84	1056	4	0	0	896160	692	0	correct_rejection	NA	0
37	Single	85	85	1057	6	0	0	896869	692	0	correct_rejection	NA	0
37	Single	86	86	1058	8	0	0	897577	692	0	correct_rejection	NA	0
37	Single	87	87	1059	0	1	1	898286	692	1	hit	584	0
37	Single	88	88	1060	8	0	0	898995	691	0	correct_rejection	NA	0
37	Single	89	89	1061	5	0	0	899703	692	0	correct_rejection	NA	0
37	Single	90	90	1062	7	0	0	900412	691	0	correct_rejection	NA	0
37	Single	91	91	1063	8	0	0	901120	692	0	correct_rejection	NA	0
37	Single	92	92	1064	6	0	0	901829	691	0	correct_rejection	NA	0
37	Single	93	93	1065	7	0	0	902537	692	0	correct_rejection	NA	0
37	Single	94	94	1066	9	0	0	903246	692	0	correct_rejection	NA	0
37	Single	95	95	1067	8	0	0	903954	692	0	correct_rejection	NA	0
37	Single	96	96	1068	7	0	0	904663	692	0	correct_rejection	NA	0
37	Single	97	97	1069	6	0	0	905372	691	0	correct_rejection	NA	0
37	Single	98	98	1070	9	0	0	906080	692	0	correct_rejection	NA	0
37	Single	99	99	1071	0	1	1	906789	691	1	hit	435	0
37	Single	100	100	1072	7	0	0	907497	692	0	correct_rejection	NA	0
37	Single	101	101	1073	7	0	0	908206	692	0	correct_rejection	NA	0
37	Single	102	102	1074	4	0	0	908914	692	0	correct_rejection	NA	0
37	Single	103	103	1075	5	0	0	909623	692	0	correct_rejection	NA	0
37	Single	104	104	1076	5	0	0	910332	691	0	correct_rejection	NA	0
37	Single	105	105	1077	8	0	0	911040	692	0	correct_rejection	NA	0
37	Single	106	106	1078	9	0	0	911749	691	0	correct_rejection	NA	0
37	Single	107	107	1079	0	1	1	912457	692	1	hit	437	0
37	Single	108	108	1080	9	0	0	913166	692	0	correct_rejection	NA	0
37	Single	109	109	1081	4	0	0	913874	692	0	correct_rejection	NA	0
37	Single	110	110	1082	0	1	1	914583	692	1	hit	501	0
37	Single	111	111	1083	8	0	0	915292	691	0	correct_rejection	NA	0
37	Single	112	112	1084	4	0	0	916000	692	0	correct_rejection	NA	0
37	Single	113	113	1085	0	1	1	916709	691	1	hit	390	0
37	Single	114	114	1086	7	0	0	917417	692	0	correct_rejection	NA	0
37	Single	115	115	1087	5	0	0	918126	692	0	correct_rejection	NA	0
37	Single	116	116	1088	9	0	0	918834	692	0	correct_rejection	NA	0
37	Single	117	117	1089	5	0	0	919543	692	0	correct_rejection	NA	0
37	Single	118	118	1090	6	0	0	920252	691	0	correct_rejection	NA	0
37	Single	119	119	1091	6	0	0	920960	692	0	correct_rejection	NA	0
37	Single	120	120	1092	5	0	0	921669	691	0	correct_rejection	NA	0
37	Single	121	121	1093	0	1	1	922377	692	1	hit	598	0
37	Single	122	122	1094	4	0	0	923086	691	0	correct_rejection	NA	0
37	Single	123	123	1095	9	0	0	923794	692	0	correct_rejection	NA	0
37	Single	124	124	1096	7	0	0	924503	692	0	correct_rejection	NA	0
37	Single	125	125	1097	6	0	0	925211	692	0	correct_rejection	NA	0
37	Single	126	126	1098	4	0	0	925920	692	0	correct_rejection	NA	0
37	Single	127	127	1099	9	0	0	926629	691	0	correct_rejection	NA	0
37	Single	128	128	1100	4	0	0	927337	692	0	correct_rejection	NA	0
37	Single	129	129	1101	4	0	0	928046	691	0	correct_rejection	NA	0
37	Single	130	130	1102	8	0	0	928754	692	0	correct_rejection	NA	0
37	Single	131	131	1103	5	0	0	929463	692	0	correct_rejection	NA	0
37	Single	132	132	1104	8	0	0	930171	692	0	correct_rejection	NA	0
37	Single	133	133	1105	6	0	0	930880	692	0	correct_rejection	NA	0
37	Single	134	134	1106	8	0	0	931589	691	0	correct_rejection	NA	0
37	Single	135	135	1107	4	0	0	932297	692	0	correct_rejection	NA	0
37	Single	136	136	1108	6	0	0	933006	691	0	correct_rejection	NA	0
37	Single	137	137	1109	0	1	1	933714	692	1	hit	552	0
37	Single	138	138	1110	6	0	0	934423	692	0	correct_rejection	NA	0
37	Single	139	139	1111	9	0	0	935131	692	0	correct_rejection	NA	0
37	Single	140	140	1112	5	0	0	935840	692	0	correct_rejection	NA	0
37	Single	141	141	1113	4	0	0	936549	691	0	correct_rejection	NA	0
37	Single	142	142	1114	5	0	0	937257	692	0	correct_rejection	NA	0
37	Single	143	143	1115	0	1	1	937966	691	1	hit	357	0
37	Single	144	144	1116	6	0	0	938674	692	0	correct_rejection	NA	0
37	Single	145	145	1117	7	0	0	939383	691	0	correct_rejection	NA	0
37	Single	146	146	1118	8	0	0	940091	692	0	correct_rejection	NA	0
37	Single	147	147	1119	8	0	0	940800	692	0	correct_rejection	NA	0
37	Single	148	148	1120	7	0	0	941508	692	0	correct_rejection	NA	0
37	Single	149	149	1121	4	0	0	942217	692	0	correct_rejection	NA	0
37	Single	150	150	1122	7	0	0	942926	691	0	correct_rejection	NA	0
37	Single	151	151	1123	9	0	0	943634	692	0	correct_rejection	NA	0
37	Single	152	152	1124	6	0	0	944343	692	0	correct_rejection	NA	0
37	Single	153	153	1125	5	0	0	945051	692	0	correct_rejection	NA	0
37	Single	154	154	1126	0	1	1	945760	692	1	hit	489	0
37	Single	155	155	1127	7	0	0	946468	692	0	correct_rejection	NA	0
37	Single	156	156	1128	7	0	0	947177	692	0	correct_rejection	NA	0
37	Single	157	157	1129	0	1	1	947886	691	0	miss	NA	0
37	Single	158	158	1130	5	0	0	948594	692	0	correct_rejection	NA	0
37	Single	159	159	1131	5	0	0	949303	691	0	correct_rejection	NA	0
37	Single	160	160	1132	9	0	0	950011	692	0	correct_rejection	NA	0
37	Single	161	161	1133	8	0	0	950720	692	0	correct_rejection	NA	0
37	Single	162	162	1134	9	0	0	951428	692	0	correct_rejection	NA	0
37	Correct	1	325	1135	4	0	0	961173	692	0	correct_rejection	NA	7798
37	Correct	2	326	1136	5	0	0	961882	692	0	correct_rejection	NA	0
37	Correct	3	327	1137	6	0	0	962590	692	0	correct_rejection	NA	0
37	Correct	4	328	1138	4	0	0	963299	692	0	correct_rejection	NA	0
37	Correct	5	329	1139	5	0	0	964008	691	0	correct_rejection	NA	0
37	Correct	6	330	1140	6	0	0	964716	692	0	correct_rejection	NA	0
37	Correct	7	331	1141	4	0	0	965425	691	0	correct_rejection	NA	0
37	Correct	8	332	1142	5	0	0	966133	692	0	correct_rejection	NA	0
37	Correct	9	333	1143	6	0	0	966842	691	0	correct_rejection	NA	0
37	Correct	10	334	1144	0	1	3	967550	692	1	hit	346	0
37	Correct	11	335	1145	6	0	0	968259	692	0	correct_rejection	NA	0
37	Correct	12	336	1146	5	0	0	968967	692	0	correct_rejection	NA	0
37	Correct	13	337	1147	4	0	0	969676	692	0	correct_rejection	NA	0
37	Correct	14	338	1148	6	0	0	970385	691	0	correct_rejection	NA	0
37	Correct	15	339	1149	5	0	0	971093	692	0	correct_rejection	NA	0
37	Correct	16	340	1150	4	0	0	971802	691	0	correct_rejection	NA	0
37	Correct	17	341	1151	6	0	0	972510	692	0	correct_rejection	NA	0
37	Correct	18	342	1152	0	1	1	973219	692	1	hit	418	0
37	Correct	19	343	1153	5	0	0	973927	692	0	correct_rejection	NA	0
37	Correct	20	344	1154	4	0	0	974636	692	0	correct_rejection	NA	0
37	Correct	21	345	1155	9	0	0	975345	691	0	correct_rejection	NA	0
37	Correct	22	346	1156	8	0	0	976053	692	0	correct_rejection	NA	0
37	Correct	23	347	1157	7	0	0	976762	691	0	correct_rejection	NA	0
37	Correct	24	348	1158	0	1	2	977470	692	1	hit	436	0
37	Correct	25	349	1159	9	0	0	978179	692	0	correct_rejection	NA	0
37	Correct	26	350	1160	8	0	0	978887	692	0	correct_rejection	NA	0
37	Correct	27	351	1161	7	0	0	979596	692	0	correct_rejection	NA	0
37	Correct	28	352	1162	9	0	0	980305	691	0	correct_rejection	NA	0
37	Correct	29	353	1163	8	0	0	981013	692	0	correct_rejection	NA	0
37	Correct	30	354	1164	7	0	0	981722	691	0	correct_rejection	NA	0
37	Correct	31	355	1165	7	0	0	982430	692	0	correct_rejection	NA	0
37	Correct	32	356	1166	8	0	0	983139	691	0	correct_rejection	NA	0
37	Correct	33	357	1167	9	0	0	983847	692	0	correct_rejection	NA	0
37	Correct	34	358	1168	7	0	0	984556	692	0	correct_rejection	NA	0
37	Correct	35	359	1169	8	0	0	985265	691	0	correct_rejection	NA	0
37	Correct	36	360	1170	9	0	0	985973	692	0	correct_rejection	NA	0
37	Correct	37	361	1171	7	0	0	986682	691	0	correct_rejection	NA	0
37	Correct	38	362	1172	0	1	1	987390	692	1	hit	391	0
37	Correct	39	363	1173	8	0	0	988099	691	0	correct_rejection	NA	0
37	Correct	40	364	1174	9	0	0	988807	692	0	correct_rejection	NA	0
37	Correct	41	365	1175	4	0	0	989516	692	0	correct_rejection	NA	0
37	Correct	42	366	1176	5	0	0	990224	692	0	correct_rejection	NA	0
37	Correct	43	367	1177	6	0	0	990933	692	0	correct_rejection	NA	0
37	Correct	44	368	1178	4	0	0	991642	691	0	correct_rejection	NA	0
37	Correct	45	369	1179	5	0	0	992350	692	0	correct_rejection	NA	0
37	Correct	46	370	1180	6	0	0	993059	691	0	correct_rejection	NA	0
37	Correct	47	371	1181	4	0	0	993767	692	0	correct_rejection	NA	0
37	Correct	48	372	1182	0	1	1	994476	692	1	hit	387	0
37	Correct	49	373	1183	5	0	0	995184	692	0	correct_rejection	NA	0
37	Correct	50	374	1184	6	0	0	995893	692	0	correct_rejection	NA	0
37	Correct	51	375	1185	6	0	0	996602	691	0	correct_rejection	NA	0
37	Correct	52	376	1186	5	0	0	997310	692	0	correct_rejection	NA	0
37	Correct	53	377	1187	4	0	0	998019	691	0	correct_rejection	NA	0
37	Correct	54	378	1188	6	0	0	998727	692	0	correct_rejection	NA	0
37	Correct	55	379	1189	5	0	0	999436	692	0	correct_rejection	NA	0
37	Correct	56	380	1190	4	0	0	1000144	692	0	correct_rejection	NA	0
37	Correct	57	381	1191	6	0	0	1000853	692	0	correct_rejection	NA	0
37	Correct	58	382	1192	5	0	0	1001562	691	0	correct_rejection	NA	0
37	Correct	59	383	1193	4	0	0	1002270	692	0	correct_rejection	NA	0
37	Correct	60	384	1194	9	0	0	1002979	691	0	correct_rejection	NA	0
37	Correct	61	385	1195	8	0	0	1003687	692	0	correct_rejection	NA	0
37	Correct	62	386	1196	7	0	0	1004396	691	0	correct_rejection	NA	0
37	Correct	63	387	1197	9	0	0	1005104	692	0	correct_rejection	NA	0
37	Correct	64	388	1198	8	0	0	1005813	692	0	correct_rejection	NA	0
37	Correct	65	389	1199	0	1	1	1006521	692	1	hit	516	0
37	Correct	66	390	1200	7	0	0	1007230	692	0	correct_rejection	NA	0
37	Correct	67	391	1201	9	0	0	1007939	691	0	correct_rejection	NA	0
37	Correct	68	392	1202	8	0	0	1008647	692	0	correct_rejection	NA	0
37	Correct	69	393	1203	7	0	0	1009356	691	0	correct_rejection	NA	0
37	Correct	70	394	1204	7	0	0	1010064	692	0	correct_rejection	NA	0
37	Correct	71	395	1205	8	0	0	1010773	692	0	correct_rejection	NA	0
37	Correct	72	396	1206	9	0	0	1011481	692	0	correct_rejection	NA	0
37	Correct	73	397	1207	0	1	2	1012190	692	1	hit	461	0
37	Correct	74	398	1208	7	0	0	1012899	691	0	correct_rejection	NA	0
37	Correct	75	399	1209	8	0	0	1013607	692	0	correct_rejection	NA	0
37	Correct	76	400	1210	0	1	1	1014316	691	0	miss	NA	0
37	Correct	77	401	1211	9	0	0	1015024	692	1	false_alarm	38	0
37	Correct	78	402	1212	7	0	0	1015733	692	0	correct_rejection	NA	0
37	Correct	79	403	1213	8	0	0	1016441	692	0	correct_rejection	NA	0
37	Correct	80	404	1214	0	1	1	1017150	692	1	hit	358	0
37	Correct	81	405	1215	9	0	0	1017859	691	0	correct_rejection	NA	0
37	Correct	82	406	1216	4	0	0	1018567	692	0	correct_rejection	NA	0
37	Correct	83	407	1217	5	0	0	1019276	691	0	correct_rejection	NA	0
37	Correct	84	408	1218	0	1	1	1019984	692	1	hit	303	0
37	Correct	85	409	1219	6	0	0	1020693	691	0	correct_rejection	NA	0
37	Correct	86	410	1220	4	0	0	1021401	692	0	correct_rejection	NA	0
37	Correct	87	411	1221	5	0	0	1022110	692	0	correct_rejection	NA	0
37	Correct	88	412	1222	6	0	0	1022818	692	0	correct_rejection	NA	0
37	Correct	89	413	1223	4	0	0	1023527	692	0	correct_rejection	NA	0
37	Correct	90	414	1224	5	0	0	1024236	691	0	correct_rejection	NA	0
37	Correct	91	415	1225	6	0	0	1024944	692	0	correct_rejection	NA	0
37	Correct	92	416	1226	6	0	0	1025653	691	0	correct_rejection	NA	0
37	Correct	93	417	1227	5	0	0	1026361	692	0	correct_rejection	NA	0
37	Correct	94	418	1228	4	0	0	1027070	692	0	correct_rejection	NA	0
37	Correct	95	419	1229	6	0	0	1027778	692	0	correct_rejection	NA	0
37	Correct	96	420	1230	5	0	0	1028487	692	0	correct_rejection	NA	0
37	Correct	97	421	1231	4	0	0	1029196	691	0	correct_rejection	NA	0
37	Correct	98	422	1232	6	0	0	1029904	692	0	correct_rejection	NA	0
37	Correct	99	423	1233	5	0	0	1030613	691	0	correct_rejection	NA	0
37	Correct	100	424	1234	4	0	0	1031321	692	0	correct_rejection	NA	0
37	Correct	101	425	1235	9	0	0	1032030	692	0	correct_rejection	NA	0
37	Correct	102	426	1236	8	0	0	1032738	692	0	correct_rejection	NA	0
37	Correct	103	427	1237	7	0	0	1033447	692	0	correct_rejection	NA	0
37	Correct	104	428	1238	0	1	2	1034156	691	1	hit	435	0
37	Correct	105	429	1239	9	0	0	1034864	692	0	correct_rejection	NA	0
37	Correct	106	430	1240	8	0	0	1035573	691	0	correct_rejection	NA	0
37	Correct	107	431	1241	7	0	0	1036281	692	0	correct_rejection	NA	0
37	Correct	108	432	1242	9	0	0	1036990	691	0	correct_rejection	NA	0
37	Correct	109	433	1243	8	0	0	1037698	692	0	correct_rejection	NA	0
37	Correct	110	434	1244	7	0	0	1038407	692	0	correct_rejection	NA	0
37	Correct	111	435	1245	0	1	3	1039116	691	1	hit	427	0
37	Correct	112	436	1246	7	0	0	1039824	692	0	correct_rejection	NA	0
37	Correct	113	437	1247	8	0	0	1040533	691	0	correct_rejection	NA	0
37	Correct	114	438	1248	9	0	0	1041241	692	0	correct_rejection	NA	0
37	Correct	115	439	1249	7	0	0	1041950	691	0	correct_rejection	NA	0
37	Correct	116	440	1250	0	1	1	1042658	692	1	hit	428	0
37	Correct	117	441	1251	8	0	0	1043367	692	0	correct_rejection	NA	0
37	Correct	118	442	1252	9	0	0	1044075	692	0	correct_rejection	NA	0
37	Correct	119	443	1253	7	0	0	1044784	692	0	correct_rejection	NA	0
37	Correct	120	444	1254	0	1	1	1045493	691	1	hit	444	0
37	Correct	121	445	1255	8	0	0	1046201	692	0	correct_rejection	NA	0
37	Correct	122	446	1256	9	0	0	1046910	691	0	correct_rejection	NA	0
37	Correct	123	447	1257	4	0	0	1047618	692	0	correct_rejection	NA	0
37	Correct	124	448	1258	5	0	0	1048327	692	0	correct_rejection	NA	0
37	Correct	125	449	1259	6	0	0	1049035	692	0	correct_rejection	NA	0
37	Correct	126	450	1260	4	0	0	1049744	692	0	correct_rejection	NA	0
37	Correct	127	451	1261	0	1	1	1050453	691	1	hit	540	0
37	Correct	128	452	1262	5	0	0	1051161	692	0	correct_rejection	NA	0
37	Correct	129	453	1263	6	0	0	1051870	691	0	correct_rejection	NA	0
37	Correct	130	454	1264	4	0	0	1052578	692	0	correct_rejection	NA	0
37	Correct	131	455	1265	5	0	0	1053287	692	0	correct_rejection	NA	0
37	Correct	132	456	1266	6	0	0	1053995	692	0	correct_rejection	NA	0
37	Correct	133	457	1267	6	0	0	1054704	692	0	correct_rejection	NA	0
37	Correct	134	458	1268	5	0	0	1055413	691	0	correct_rejection	NA	0
37	Correct	135	459	1269	0	1	1	1056121	692	1	hit	345	0
37	Correct	136	460	1270	4	0	0	1056830	691	0	correct_rejection	NA	0
37	Correct	137	461	1271	6	0	0	1057538	692	0	correct_rejection	NA	0
37	Correct	138	462	1272	5	0	0	1058247	691	0	correct_rejection	NA	0
37	Correct	139	463	1273	4	0	0	1058955	692	0	correct_rejection	NA	0
37	Correct	140	464	1274	6	0	0	1059664	692	0	correct_rejection	NA	0
37	Correct	141	465	1275	5	0	0	1060372	692	0	correct_rejection	NA	0
37	Correct	142	466	1276	4	0	0	1061081	692	0	correct_rejection	NA	0
37	Correct	143	467	1277	9	0	0	1061790	691	0	correct_rejection	NA	0
37	Correct	144	468	1278	8	0	0	1062498	692	0	correct_rejection	NA	0
37	Correct	145	469	1279	7	0	0	1063207	691	0	correct_rejection	NA	0
37	Correct	146	470	1280	9	0	0	1063915	692	0	correct_rejection	NA	0
37	Correct	147	471	1281	0	1	1	1064624	692	0	miss	NA	0
37	Correct	148	472	1282	8	0	0	1065332	692	1	false_alarm	216	0
37	Correct	149	473	1283	7	0	0	1066041	692	0	correct_rejection	NA	0
37	Correct	150	474	1284	9	0	0	1066750	691	0	correct_rejection	NA	0
37	Correct	151	475	1285	8	0	0	1067458	692	0	correct_rejection	NA	0
37	Correct	152	476	1286	7	0	0	1068167	691	0	correct_rejection	NA	0
37	Correct	153	477	1287	7	0	0	1068875	692	0	correct_rejection	NA	0
37	Correct	154	478	1288	8	0	0	1069584	692	0	correct_rejection	NA	0
37	Correct	155	479	1289	9	0	0	1070292	692	0	correct_rejection	NA	0
37	Correct	156	480	1290	0	1	2	1071001	692	1	hit	299	0
37	Correct	157	481	1291	7	0	0	1071710	691	0	correct_rejection	NA	0
37	Correct	158	482	1292	8	0	0	1072418	692	0	correct_rejection	NA	0
37	Correct	159	483	1293	9	0	0	1073127	691	0	correct_rejection	NA	0
37	Correct	160	484	1294	7	0	0	1073835	692	0	correct_rejection	NA	0
37	Correct	161	485	1295	8	0	0	1074544	692	0	correct_rejection	NA	0
37	Correct	162	486	1296	9	0	0	1075252	692	0	correct_rejection	NA	0
37	Single	1	163	1297	8	0	0	1084372	692	0	correct_rejection	NA	6999
37	Single	2	164	1298	6	0	0	1085081	691	0	correct_rejection	NA	0
37	Single	3	165	1299	7	0	0	1085789	692	0	correct_rejection	NA	0
37	Single	4	166	1300	5	0	0	1086498	691	0	correct_rejection	NA	0
37	Single	5	167	1301	0	1	1	1087206	692	1	hit	493	0
37	Single	6	168	1302	5	0	0	1087915	692	0	correct_rejection	NA	0
37	Single	7	169	1303	7	0	0	1088623	692	0	correct_rejection	NA	0
37	Single	8	170	1304	6	0	0	1089332	692	0	correct_rejection	NA	0
37	Single	9	171	1305	0	1	1	1090041	691	1	hit	311	0
37	Single	10	172	1306	8	0	0	1090749	692	0	correct_rejection	NA	0
37	Single	11	173	1307	7	0	0	1091458	691	0	correct_rejection	NA	0
37	Single	12	174	1308	7	0	0	1092166	692	0	correct_rejection	NA	0
37	Single	13	175	1309	8	0	0	1092875	692	0	correct_rejection	NA	0
37	Single	14	176	1310	8	0	0	1093583	692	0	correct_rejection	NA	0
37	Single	15	177	1311	4	0	0	1094292	692	0	correct_rejection	NA	0
37	Single	16	178	1312	7	0	0	1095001	691	0	correct_rejection	NA	0
37	Single	17	179	1313	0	1	1	1095709	692	1	hit	407	0
37	Single	18	180	1314	9	0	0	1096418	691	0	correct_rejection	NA	0
37	Single	19	181	1315	6	0	0	1097126	692	0	correct_rejection	NA	0
37	Single	20	182	1316	5	0	0	1097835	691	0	correct_rejection	NA	0
37	Single	21	183	1317	9	0	0	1098543	692	0	correct_rejection	NA	0
37	Single	22	184	1318	7	0	0	1099252	692	0	correct_rejection	NA	0
37	Single	23	185	1319	4	0	0	1099960	692	0	correct_rejection	NA	0
37	Single	24	186	1320	4	0	0	1100669	692	0	correct_rejection	NA	0
37	Single	25	187	1321	0	1	1	1101378	691	1	hit	458	0
37	Single	26	188	1322	6	0	0	1102086	692	0	correct_rejection	NA	0
37	Single	27	189	1323	9	0	0	1102795	691	0	correct_rejection	NA	0
37	Single	28	190	1324	9	0	0	1103503	692	0	correct_rejection	NA	0
37	Single	29	191	1325	5	0	0	1104212	692	0	correct_rejection	NA	0
37	Single	30	192	1326	6	0	0	1104920	692	0	correct_rejection	NA	0
37	Single	31	193	1327	6	0	0	1105629	692	0	correct_rejection	NA	0
37	Single	32	194	1328	0	1	1	1106338	691	1	hit	345	0
37	Single	33	195	1329	4	0	0	1107046	692	0	correct_rejection	NA	0
37	Single	34	196	1330	8	0	0	1107755	691	0	correct_rejection	NA	0
37	Single	35	197	1331	5	0	0	1108463	692	0	correct_rejection	NA	0
37	Single	36	198	1332	4	0	0	1109172	692	0	correct_rejection	NA	0
37	Single	37	199	1333	9	0	0	1109880	692	0	correct_rejection	NA	0
37	Single	38	200	1334	4	0	0	1110589	692	0	correct_rejection	NA	0
37	Single	39	201	1335	5	0	0	1111298	691	0	correct_rejection	NA	0
37	Single	40	202	1336	8	0	0	1112006	692	0	correct_rejection	NA	0
37	Single	41	203	1337	9	0	0	1112715	691	0	correct_rejection	NA	0
37	Single	42	204	1338	9	0	0	1113423	692	0	correct_rejection	NA	0
37	Single	43	205	1339	7	0	0	1114132	691	0	correct_rejection	NA	0
37	Single	44	206	1340	6	0	0	1114840	692	0	correct_rejection	NA	0
37	Single	45	207	1341	9	0	0	1115549	692	0	correct_rejection	NA	0
37	Single	46	208	1342	6	0	0	1116257	692	0	correct_rejection	NA	0
37	Single	47	209	1343	8	0	0	1116966	692	0	correct_rejection	NA	0
37	Single	48	210	1344	0	1	1	1117675	691	0	miss	NA	0
37	Single	49	211	1345	4	0	0	1118383	692	0	correct_rejection	NA	0
37	Single	50	212	1346	8	0	0	1119092	691	0	correct_rejection	NA	0
37	Single	51	213	1347	8	0	0	1119800	692	0	correct_rejection	NA	0
37	Single	52	214	1348	0	1	1	1120509	692	0	miss	NA	0
37	Single	53	215	1349	5	0	0	1121217	692	0	correct_rejection	NA	0
37	Single	54	216	1350	7	0	0	1121926	692	0	correct_rejection	NA	0
37	Single	55	217	1351	7	0	0	1122635	691	0	correct_rejection	NA	0
37	Single	56	218	1352	5	0	0	1123343	692	0	correct_rejection	NA	0
37	Single	57	219	1353	6	0	0	1124052	691	0	correct_rejection	NA	0
37	Single	58	220	1354	4	0	0	1124760	692	0	correct_rejection	NA	0
37	Single	59	221	1355	7	0	0	1125469	692	0	correct_rejection	NA	0
37	Single	60	222	1356	0	1	1	1126177	692	1	hit	352	0
37	Single	61	223	1357	4	0	0	1126886	692	0	correct_rejection	NA	0
37	Single	62	224	1358	6	0	0	1127595	691	0	correct_rejection	NA	0
37	Single	63	225	1359	5	0	0	1128303	692	0	correct_rejection	NA	0
37	Single	64	226	1360	5	0	0	1129012	691	0	correct_rejection	NA	0
37	Single	65	227	1361	8	0	0	1129720	692	0	correct_rejection	NA	0
37	Single	66	228	1362	0	1	1	1130429	691	1	hit	440	0
37	Single	67	229	1363	7	0	0	1131137	692	0	correct_rejection	NA	0
37	Single	68	230	1364	8	0	0	1131846	692	0	correct_rejection	NA	0
37	Single	69	231	1365	9	0	0	1132555	691	0	correct_rejection	NA	0
37	Single	70	232	1366	0	1	1	1133263	692	1	hit	375	0
37	Single	71	233	1367	4	0	0	1133972	691	0	correct_rejection	NA	0
37	Single	72	234	1368	9	0	0	1134680	692	0	correct_rejection	NA	0
37	Single	73	235	1369	5	0	0	1135389	691	0	correct_rejection	NA	0
37	Single	74	236	1370	4	0	0	1136097	692	0	correct_rejection	NA	0
37	Single	75	237	1371	4	0	0	1136806	692	0	correct_rejection	NA	0
37	Single	76	238	1372	5	0	0	1137514	692	0	correct_rejection	NA	0
37	Single	77	239	1373	0	1	1	1138223	692	1	hit	390	0
37	Single	78	240	1374	9	0	0	1138932	691	0	correct_rejection	NA	0
37	Single	79	241	1375	9	0	0	1139640	692	0	correct_rejection	NA	0
37	Single	80	242	1376	8	0	0	1140349	691	0	correct_rejection	NA	0
37	Single	81	243	1377	6	0	0	1141057	692	0	correct_rejection	NA	0
37	Single	82	244	1378	6	0	0	1141766	692	0	correct_rejection	NA	0
37	Single	83	245	1379	7	0	0	1142474	692	0	correct_rejection	NA	0
37	Single	84	246	1380	7	0	0	1143183	692	0	correct_rejection	NA	0
37	Single	85	247	1381	5	0	0	1143892	691	0	correct_rejection	NA	0
37	Single	86	248	1382	7	0	0	1144600	692	0	correct_rejection	NA	0
37	Single	87	249	1383	9	0	0	1145309	691	0	correct_rejection	NA	0
37	Single	88	250	1384	9	0	0	1146017	692	0	correct_rejection	NA	0
37	Single	89	251	1385	7	0	0	1146726	692	0	correct_rejection	NA	0
37	Single	90	252	1386	7	0	0	1147434	692	0	correct_rejection	NA	0
37	Single	91	253	1387	4	0	0	1148143	692	0	correct_rejection	NA	0
37	Single	92	254	1388	8	0	0	1148852	691	0	correct_rejection	NA	0
37	Single	93	255	1389	7	0	0	1149560	692	0	correct_rejection	NA	0
37	Single	94	256	1390	6	0	0	1150269	691	0	correct_rejection	NA	0
37	Single	95	257	1391	5	0	0	1150977	692	0	correct_rejection	NA	0
37	Single	96	258	1392	6	0	0	1151686	691	0	correct_rejection	NA	0
37	Single	97	259	1393	7	0	0	1152394	692	0	correct_rejection	NA	0
37	Single	98	260	1394	8	0	0	1153103	692	0	correct_rejection	NA	0
37	Single	99	261	1395	5	0	0	1153811	692	0	correct_rejection	NA	0
37	Single	100	262	1396	9	0	0	1154520	692	0	correct_rejection	NA	0
37	Single	101	263	1397	4	0	0	1155229	691	0	correct_rejection	NA	0
37	Single	102	264	1398	4	0	0	1155937	692	0	correct_rejection	NA	0
37	Single	103	265	1399	9	0	0	1156646	691	0	correct_rejection	NA	0
37	Single	104	266	1400	0	1	1	1157354	692	1	hit	371	0
37	Single	105	267	1401	8	0	0	1158063	692	0	correct_rejection	NA	0
37	Single	106	268	1402	9	0	0	1158771	692	0	correct_rejection	NA	0
37	Single	107	269	1403	6	0	0	1159480	692	0	correct_rejection	NA	0
37	Single	108	270	1404	9	0	0	1160189	691	0	correct_rejection	NA	0
37	Single	109	271	1405	0	1	1	1160897	692	1	hit	379	0
37	Single	110	272	1406	5	0	0	1161606	691	0	correct_rejection	NA	0
37	Single	111	273	1407	8	0	0	1162314	692	0	correct_rejection	NA	0
37	Single	112	274	1408	4	0	0	1163023	692	0	correct_rejection	NA	0
37	Single	113	275	1409	5	0	0	1163731	692	0	correct_rejection	NA	0
37	Single	114	276	1410	5	0	0	1164440	692	0	correct_rejection	NA	0
37	Single	115	277	1411	4	0	0	1165149	691	0	correct_rejection	NA	0
37	Single	116	278	1412	6	0	0	1165857	692	0	correct_rejection	NA	0
37	Single	117	279	1413	6	0	0	1166566	691	0	correct_rejection	NA	0
37	Single	118	280	1414	8	0	0	1167274	692	0	correct_rejection	NA	0
37	Single	119	281	1415	8	0	0	1167983	691	0	correct_rejection	NA	0
37	Single	120	282	1416	6	0	0	1168691	692	0	correct_rejection	NA	0
37	Single	121	283	1417	4	0	0	1169400	692	0	correct_rejection	NA	0
37	Single	122	284	1418	8	0	0	1170108	692	0	correct_rejection	NA	0
37	Single	123	285	1419	4	0	0	1170817	692	0	correct_rejection	NA	0
37	Single	124	286	1420	6	0	0	1171526	691	0	correct_rejection	NA	0
37	Single	125	287	1421	0	1	1	1172234	692	1	hit	494	0
37	Single	126	288	1422	9	0	0	1172943	691	0	correct_rejection	NA	0
37	Single	127	289	1423	8	0	0	1173651	692	0	correct_rejection	NA	0
37	Single	128	290	1424	8	0	0	1174360	692	0	correct_rejection	NA	0
37	Single	129	291	1425	0	1	1	1175068	692	1	hit	393	0
37	Single	130	292	1426	9	0	0	1175777	692	0	correct_rejection	NA	0
37	Single	131	293	1427	5	0	0	1176486	691	0	correct_rejection	NA	0
37	Single	132	294	1428	9	0	0	1177194	692	0	correct_rejection	NA	0
37	Single	133	295	1429	7	0	0	1177903	691	0	correct_rejection	NA	0
37	Single	134	296	1430	5	0	0	1178611	692	0	correct_rejection	NA	0
37	Single	135	297	1431	8	0	0	1179320	692	0	correct_rejection	NA	0
37	Single	136	298	1432	5	0	0	1180028	692	0	correct_rejection	NA	0
37	Single	137	299	1433	5	0	0	1180737	692	0	correct_rejection	NA	0
37	Single	138	300	1434	6	0	0	1181446	691	0	correct_rejection	NA	0
37	Single	139	301	1435	8	0	0	1182154	692	0	correct_rejection	NA	0
37	Single	140	302	1436	0	1	1	1182863	691	1	hit	600	0
37	Single	141	303	1437	6	0	0	1183571	692	0	correct_rejection	NA	0
37	Single	142	304	1438	7	0	0	1184280	692	0	correct_rejection	NA	0
37	Single	143	305	1439	9	0	0	1184988	692	0	correct_rejection	NA	0
37	Single	144	306	1440	6	0	0	1185697	692	0	correct_rejection	NA	0
37	Single	145	307	1441	0	1	1	1186406	691	1	hit	323	0
37	Single	146	308	1442	5	0	0	1187114	692	0	correct_rejection	NA	0
37	Single	147	309	1443	4	0	0	1187823	691	0	correct_rejection	NA	0
37	Single	148	310	1444	0	1	1	1188531	692	1	hit	348	0
37	Single	149	311	1445	5	0	0	1189240	691	0	correct_rejection	NA	0
37	Single	150	312	1446	7	0	0	1189948	692	0	correct_rejection	NA	0
37	Single	151	313	1447	8	0	0	1190657	692	0	correct_rejection	NA	0
37	Single	152	314	1448	7	0	0	1191365	692	0	correct_rejection	NA	0
37	Single	153	315	1449	4	0	0	1192074	692	0	correct_rejection	NA	0
37	Single	154	316	1450	4	0	0	1192783	691	0	correct_rejection	NA	0
37	Single	155	317	1451	7	0	0	1193491	692	0	correct_rejection	NA	0
37	Single	156	318	1452	7	0	0	1194200	691	0	correct_rejection	NA	0
37	Single	157	319	1453	6	0	0	1194908	692	0	correct_rejection	NA	0
37	Single	158	320	1454	6	0	0	1195617	692	0	correct_rejection	NA	0
37	Single	159	321	1455	4	0	0	1196325	692	0	correct_rejection	NA	0
37	Single	160	322	1456	9	0	0	1197034	692	0	correct_rejection	NA	0
37	Single	161	323	1457	9	0	0	1197743	691	0	correct_rejection	NA	0
37	Single	162	324	1458	4	0	0	1198451	692	0	correct_rejection	NA	0
37	Nonet	1	163	1459	4	0	0	1208038	691	0	correct_rejection	NA	7659
37	Nonet	2	164	1460	5	0	0	1208746	692	0	correct_rejection	NA	0
37	Nonet	3	165	1461	6	0	0	1209455	691	0	correct_rejection	NA	0
37	Nonet	4	166	1462	4	0	0	1210163	692	0	correct_rejection	NA	0
37	Nonet	5	167	1463	5	0	0	1210872	692	0	correct_rejection	NA	0
37	Nonet	6	168	1464	6	0	0	1211580	692	0	correct_rejection	NA	0
37	Nonet	7	169	1465	4	0	0	1212289	692	0	correct_rejection	NA	0
37	Nonet	8	170	1466	5	0	0	1212998	691	0	correct_rejection	NA	0
37	Nonet	9	171	1467	0	1	1	1213706	692	1	hit	348	0
37	Nonet	10	172	1468	6	0	0	1214415	691	0	correct_rejection	NA	0
37	Nonet	11	173	1469	4	0	0	1215123	692	0	correct_rejection	NA	0
37	Nonet	12	174	1470	5	0	0	1215832	692	0	correct_rejection	NA	0
37	Nonet	13	175	1471	6	0	0	1216540	692	0	correct_rejection	NA	0
37	Nonet	14	176	1472	4	0	0	1217249	692	0	correct_rejection	NA	0
37	Nonet	15	177	1473	5	0	0	1217958	691	0	correct_rejection	NA	0
37	Nonet	16	178	1474	6	0	0	1218666	692	0	correct_rejection	NA	0
37	Nonet	17	179	1475	4	0	0	1219375	691	0	correct_rejection	NA	0
37	Nonet	18	180	1476	5	0	0	1220083	692	0	correct_rejection	NA	0
37	Nonet	19	181	1477	6	0	0	1220792	691	0	correct_rejection	NA	0
37	Nonet	20	182	1478	7	0	0	1221500	692	0	correct_rejection	NA	0
37	Nonet	21	183	1479	8	0	0	1222209	692	0	correct_rejection	NA	0
37	Nonet	22	184	1480	9	0	0	1222917	692	0	correct_rejection	NA	0
37	Nonet	23	185	1481	7	0	0	1223626	692	0	correct_rejection	NA	0
37	Nonet	24	186	1482	8	0	0	1224335	691	0	correct_rejection	NA	0
37	Nonet	25	187	1483	9	0	0	1225043	692	0	correct_rejection	NA	0
37	Nonet	26	188	1484	7	0	0	1225752	691	0	correct_rejection	NA	0
37	Nonet	27	189	1485	0	1	1	1226460	692	1	hit	558	0
37	Nonet	28	190	1486	8	0	0	1227169	692	0	correct_rejection	NA	0
37	Nonet	29	191	1487	9	0	0	1227877	692	0	correct_rejection	NA	0
37	Nonet	30	192	1488	0	1	3	1228586	692	1	hit	432	0
37	Nonet	31	193	1489	7	0	0	1229295	691	0	correct_rejection	NA	0
37	Nonet	32	194	1490	8	0	0	1230003	692	0	correct_rejection	NA	0
37	Nonet	33	195	1491	9	0	0	1230712	691	0	correct_rejection	NA	0
37	Nonet	34	196	1492	7	0	0	1231420	692	0	correct_rejection	NA	0
37	Nonet	35	197	1493	0	1	1	1232129	692	1	hit	356	0
37	Nonet	36	198	1494	8	0	0	1232837	692	0	correct_rejection	NA	0
37	Nonet	37	199	1495	9	0	0	1233546	692	0	correct_rejection	NA	0
37	Nonet	38	200	1496	7	0	0	1234255	691	0	correct_rejection	NA	0
37	Nonet	39	201	1497	8	0	0	1234963	692	0	correct_rejection	NA	0
37	Nonet	40	202	1498	9	0	0	1235672	691	0	correct_rejection	NA	0
37	Nonet	41	203	1499	6	0	0	1236380	692	0	correct_rejection	NA	0
37	Nonet	42	204	1500	5	0	0	1237089	692	0	correct_rejection	NA	0
37	Nonet	43	205	1501	4	0	0	1237797	692	0	correct_rejection	NA	0
37	Nonet	44	206	1502	6	0	0	1238506	692	0	correct_rejection	NA	0
37	Nonet	45	207	1503	5	0	0	1239215	691	0	correct_rejection	NA	0
37	Nonet	46	208	1504	4	0	0	1239923	692	0	correct_rejection	NA	0
37	Nonet	47	209	1505	6	0	0	1240632	691	0	correct_rejection	NA	0
37	Nonet	48	210	1506	5	0	0	1241340	692	0	correct_rejection	NA	0
37	Nonet	49	211	1507	0	1	1	1242049	691	1	hit	436	0
37	Nonet	50	212	1508	4	0	0	1242757	692	0	correct_rejection	NA	0
37	Nonet	51	213	1509	6	0	0	1243466	692	0	correct_rejection	NA	0
37	Nonet	52	214	1510	5	0	0	1244174	692	0	correct_rejection	NA	0
37	Nonet	53	215	1511	4	0	0	1244883	692	0	correct_rejection	NA	0
37	Nonet	54	216	1512	6	0	0	1245592	691	0	correct_rejection	NA	0
37	Nonet	55	217	1513	0	1	1	1246300	692	1	hit	364	0
37	Nonet	56	218	1514	5	0	0	1247009	691	0	correct_rejection	NA	0
37	Nonet	57	219	1515	4	0	0	1247717	692	0	correct_rejection	NA	0
37	Nonet	58	220	1516	6	0	0	1248426	692	0	correct_rejection	NA	0
37	Nonet	59	221	1517	5	0	0	1249134	692	0	correct_rejection	NA	0
37	Nonet	60	222	1518	4	0	0	1249843	692	0	correct_rejection	NA	0
37	Nonet	61	223	1519	4	0	0	1250552	691	0	correct_rejection	NA	0
37	Nonet	62	224	1520	0	1	1	1251260	692	1	hit	409	0
37	Nonet	63	225	1521	5	0	0	1251969	691	0	correct_rejection	NA	0
37	Nonet	64	226	1522	6	0	0	1252677	692	0	correct_rejection	NA	0
37	Nonet	65	227	1523	4	0	0	1253386	692	0	correct_rejection	NA	0
37	Nonet	66	228	1524	5	0	0	1254094	692	0	correct_rejection	NA	0
37	Nonet	67	229	1525	6	0	0	1254803	692	0	correct_rejection	NA	0
37	Nonet	68	230	1526	4	0	0	1255512	691	0	correct_rejection	NA	0
37	Nonet	69	231	1527	5	0	0	1256220	692	0	correct_rejection	NA	0
37	Nonet	70	232	1528	6	0	0	1256929	691	0	correct_rejection	NA	0
37	Nonet	71	233	1529	6	0	0	1257637	692	0	correct_rejection	NA	0
37	Nonet	72	234	1530	5	0	0	1258346	691	0	correct_rejection	NA	0
37	Nonet	73	235	1531	4	0	0	1259054	692	0	correct_rejection	NA	0
37	Nonet	74	236	1532	6	0	0	1259763	692	0	correct_rejection	NA	0
37	Nonet	75	237	1533	0	1	1	1260471	692	1	hit	371	0
37	Nonet	76	238	1534	5	0	0	1261180	692	0	correct_rejection	NA	0
37	Nonet	77	239	1535	4	0	0	1261889	691	0	correct_rejection	NA	0
37	Nonet	78	240	1536	0	1	2	1262597	692	1	hit	419	0
37	Nonet	79	241	1537	6	0	0	1263306	691	0	correct_rejection	NA	0
37	Nonet	80	242	1538	5	0	0	1264014	692	0	correct_rejection	NA	0
37	Nonet	81	243	1539	4	0	0	1264723	692	0	correct_rejection	NA	0
37	Nonet	82	244	1540	9	0	0	1265431	692	0	correct_rejection	NA	0
37	Nonet	83	245	1541	0	1	1	1266140	692	1	hit	488	0
37	Nonet	84	246	1542	8	0	0	1266849	691	0	correct_rejection	NA	0
37	Nonet	85	247	1543	7	0	0	1267557	692	0	correct_rejection	NA	0
37	Nonet	86	248	1544	9	0	0	1268266	691	0	correct_rejection	NA	0
37	Nonet	87	249	1545	8	0	0	1268974	692	0	correct_rejection	NA	0
37	Nonet	88	250	1546	7	0	0	1269683	692	0	correct_rejection	NA	0
37	Nonet	89	251	1547	9	0	0	1270391	692	0	correct_rejection	NA	0
37	Nonet	90	252	1548	8	0	0	1271100	692	0	correct_rejection	NA	0
37	Nonet	91	253	1549	7	0	0	1271809	691	0	correct_rejection	NA	0
37	Nonet	92	254	1550	4	0	0	1272517	692	0	correct_rejection	NA	0
37	Nonet	93	255	1551	5	0	0	1273226	691	0	correct_rejection	NA	0
37	Nonet	94	256	1552	6	0	0	1273934	692	0	correct_rejection	NA	0
37	Nonet	95	257	1553	0	1	2	1274643	691	1	hit	397	0
37	Nonet	96	258	1554	4	0	0	1275351	692	0	correct_rejection	NA	0
37	Nonet	97	259	1555	5	0	0	1276060	692	0	correct_rejection	NA	0
37	Nonet	98	260	1556	6	0	0	1276769	691	0	correct_rejection	NA	0
37	Nonet	99	261	1557	4	0	0	1277477	692	0	correct_rejection	NA	0
37	Nonet	100	262	1558	0	1	1	1278186	691	1	hit	508	0
37	Nonet	101	263	1559	5	0	0	1278894	692	0	correct_rejection	NA	0
37	Nonet	102	264	1560	6	0	0	1279603	691	0	correct_rejection	NA	0
37	Nonet	103	265	1561	9	0	0	1280311	692	0	correct_rejection	NA	0
37	Nonet	104	266	1562	0	1	1	1281020	692	1	hit	435	0
37	Nonet	105	267	1563	8	0	0	1281728	692	0	correct_rejection	NA	0
37	Nonet	106	268	1564	7	0	0	1282437	692	0	correct_rejection	NA	0
37	Nonet	107	269	1565	9	0	0	1283146	691	0	correct_rejection	NA	0
37	Nonet	108	270	1566	0	1	1	1283854	692	1	hit	339	0
37	Nonet	109	271	1567	8	0	0	1284563	691	0	correct_rejection	NA	0
37	Nonet	110	272	1568	7	0	0	1285271	692	0	correct_rejection	NA	0
37	Nonet	111	273	1569	9	0	0	1285980	692	0	correct_rejection	NA	0
37	Nonet	112	274	1570	8	0	0	1286688	692	0	correct_rejection	NA	0
37	Nonet	113	275	1571	7	0	0	1287397	692	0	correct_rejection	NA	0
37	Nonet	114	276	1572	0	1	3	1288106	691	1	hit	414	0
37	Nonet	115	277	1573	7	0	0	1288814	692	0	correct_rejection	NA	0
37	Nonet	116	278	1574	8	0	0	1289523	691	0	correct_rejection	NA	0
37	Nonet	117	279	1575	9	0	0	1290231	692	0	correct_rejection	NA	0
37	Nonet	118	280	1576	7	0	0	1290940	692	0	correct_rejection	NA	0
37	Nonet	119	281	1577	8	0	0	1291648	692	0	correct_rejection	NA	0
37	Nonet	120	282	1578	9	0	0	1292357	692	0	correct_rejection	NA	0
37	Nonet	121	283	1579	7	0	0	1293066	691	0	correct_rejection	NA	0
37	Nonet	122	284	1580	8	0	0	1293774	692	0	correct_rejection	NA	0
37	Nonet	123	285	1581	9	0	0	1294483	691	0	correct_rejection	NA	0
37	Nonet	124	286	1582	9	0	0	1295191	692	0	correct_rejection	NA	0
37	Nonet	125	287	1583	8	0	0	1295900	691	0	correct_rejection	NA	0
37	Nonet	126	288	1584	7	0	0	1296608	692	0	correct_rejection	NA	0
37	Nonet	127	289	1585	9	0	0	1297317	692	0	correct_rejection	NA	0
37	Nonet	128	290	1586	8	0	0	1298025	692	0	correct_rejection	NA	0
37	Nonet	129	291	1587	7	0	0	1298734	692	0	correct_rejection	NA	0
37	Nonet	130	292	1588	9	0	0	1299443	691	0	correct_rejection	NA	0
37	Nonet	131	293	1589	8	0	0	1300151	692	0	correct_rejection	NA	0
37	Nonet	132	294	1590	7	0	0	1300860	691	0	correct_rejection	NA	0
37	Nonet	133	295	1591	0	1	3	1301568	692	1	hit	450	0
37	Nonet	134	296	1592	9	0	0	1302277	692	0	correct_rejection	NA	0
37	Nonet	135	297	1593	8	0	0	1302985	692	0	correct_rejection	NA	0
37	Nonet	136	298	1594	7	0	0	1303694	692	0	correct_rejection	NA	0
37	Nonet	137	299	1595	9	0	0	1304403	691	0	correct_rejection	NA	0
37	Nonet	138	300	1596	8	0	0	1305111	692	0	correct_rejection	NA	0
37	Nonet	139	301	1597	7	0	0	1305820	691	0	correct_rejection	NA	0
37	Nonet	140	302	1598	9	0	0	1306528	692	0	correct_rejection	NA	0
37	Nonet	141	303	1599	8	0	0	1307237	692	0	correct_rejection	NA	0
37	Nonet	142	304	1600	7	0	0	1307945	692	0	correct_rejection	NA	0
37	Nonet	143	305	1601	6	0	0	1308654	692	0	correct_rejection	NA	0
