ID	block	trial_block	trial_cat	trial_total	number	violation	level_violation	onset	duration	Response	Hit_Miss	RT	pre_trial_fixcross_ISI
first_trigger_at: 11287
trigger nr 4 at 14287
38	Triplet	1	163	1	6	0	0	22223	692	0	correct_rejection	NA	7899
38	Triplet	2	164	2	5	0	0	22932	692	0	correct_rejection	NA	0
38	Triplet	3	165	3	4	0	0	23641	691	0	correct_rejection	NA	0
38	Triplet	4	166	4	0	1	2	24349	692	1	hit	432	0
38	Triplet	5	167	5	6	0	0	25058	691	0	correct_rejection	NA	0
38	Triplet	6	168	6	5	0	0	25766	692	0	correct_rejection	NA	0
38	Triplet	7	169	7	0	1	1	26475	692	1	hit	386	0
38	Triplet	8	170	8	4	0	0	27183	692	0	correct_rejection	NA	0
38	Triplet	9	171	9	4	0	0	27892	692	0	correct_rejection	NA	0
38	Triplet	10	172	10	5	0	0	28601	691	0	correct_rejection	NA	0
38	Triplet	11	173	11	0	1	1	29309	692	1	hit	357	0
38	Triplet	12	174	12	6	0	0	30018	691	0	correct_rejection	NA	0
38	Triplet	13	175	13	9	0	0	30726	692	0	correct_rejection	NA	0
38	Triplet	14	176	14	8	0	0	31435	692	0	correct_rejection	NA	0
38	Triplet	15	177	15	7	0	0	32143	692	0	correct_rejection	NA	0
38	Triplet	16	178	16	6	0	0	32852	692	0	correct_rejection	NA	0
38	Triplet	17	179	17	0	1	1	33561	691	1	hit	313	0
38	Triplet	18	180	18	5	0	0	34269	692	0	correct_rejection	NA	0
38	Triplet	19	181	19	4	0	0	34978	691	0	correct_rejection	NA	0
38	Triplet	20	182	20	9	0	0	35686	692	0	correct_rejection	NA	0
38	Triplet	21	183	21	8	0	0	36395	691	0	correct_rejection	NA	0
38	Triplet	22	184	22	7	0	0	37103	692	0	correct_rejection	NA	0
38	Triplet	23	185	23	0	1	2	37812	692	1	hit	334	0
38	Triplet	24	186	24	7	0	0	38520	692	0	correct_rejection	NA	0
38	Triplet	25	187	25	8	0	0	39229	692	0	correct_rejection	NA	0
38	Triplet	26	188	26	9	0	0	39938	691	0	correct_rejection	NA	0
38	Triplet	27	189	27	6	0	0	40646	692	0	correct_rejection	NA	0
38	Triplet	28	190	28	5	0	0	41355	691	0	correct_rejection	NA	0
38	Triplet	29	191	29	0	1	1	42063	692	1	hit	394	0
38	Triplet	30	192	30	4	0	0	42772	692	0	correct_rejection	NA	0
38	Triplet	31	193	31	7	0	0	43480	692	0	correct_rejection	NA	0
38	Triplet	32	194	32	8	0	0	44189	692	0	correct_rejection	NA	0
38	Triplet	33	195	33	9	0	0	44898	691	0	correct_rejection	NA	0
38	Triplet	34	196	34	7	0	0	45606	692	0	correct_rejection	NA	0
38	Triplet	35	197	35	8	0	0	46315	691	0	correct_rejection	NA	0
38	Triplet	36	198	36	9	0	0	47023	692	0	correct_rejection	NA	0
38	Triplet	37	199	37	9	0	0	47732	692	0	correct_rejection	NA	0
38	Triplet	38	200	38	8	0	0	48440	692	0	correct_rejection	NA	0
38	Triplet	39	201	39	7	0	0	49149	692	0	correct_rejection	NA	0
38	Triplet	40	202	40	9	0	0	49858	691	0	correct_rejection	NA	0
38	Triplet	41	203	41	8	0	0	50566	692	0	correct_rejection	NA	0
38	Triplet	42	204	42	0	1	1	51275	691	1	hit	441	0
38	Triplet	43	205	43	7	0	0	51983	692	0	correct_rejection	NA	0
38	Triplet	44	206	44	4	0	0	52692	691	0	correct_rejection	NA	0
38	Triplet	45	207	45	5	0	0	53400	692	0	correct_rejection	NA	0
38	Triplet	46	208	46	6	0	0	54109	692	0	correct_rejection	NA	0
38	Triplet	47	209	47	4	0	0	54817	692	0	correct_rejection	NA	0
38	Triplet	48	210	48	5	0	0	55526	692	0	correct_rejection	NA	0
38	Triplet	49	211	49	6	0	0	56235	691	0	correct_rejection	NA	0
38	Triplet	50	212	50	7	0	0	56943	692	0	correct_rejection	NA	0
38	Triplet	51	213	51	8	0	0	57652	691	0	correct_rejection	NA	0
38	Triplet	52	214	52	9	0	0	58360	692	0	correct_rejection	NA	0
38	Triplet	53	215	53	4	0	0	59069	692	0	correct_rejection	NA	0
38	Triplet	54	216	54	5	0	0	59777	692	0	correct_rejection	NA	0
38	Triplet	55	217	55	6	0	0	60486	692	0	correct_rejection	NA	0
38	Triplet	56	218	56	7	0	0	61195	691	0	correct_rejection	NA	0
38	Triplet	57	219	57	0	1	1	61903	692	1	hit	513	0
38	Triplet	58	220	58	8	0	0	62612	691	0	correct_rejection	NA	0
38	Triplet	59	221	59	9	0	0	63320	692	0	correct_rejection	NA	0
38	Triplet	60	222	60	0	1	2	64029	692	1	hit	400	0
38	Triplet	61	223	61	6	0	0	64737	692	0	correct_rejection	NA	0
38	Triplet	62	224	62	5	0	0	65446	692	0	correct_rejection	NA	0
38	Triplet	63	225	63	4	0	0	66155	691	0	correct_rejection	NA	0
38	Triplet	64	226	64	6	0	0	66863	692	0	correct_rejection	NA	0
38	Triplet	65	227	65	5	0	0	67572	691	0	correct_rejection	NA	0
38	Triplet	66	228	66	4	0	0	68280	692	0	correct_rejection	NA	0
38	Triplet	67	229	67	9	0	0	68989	692	0	correct_rejection	NA	0
38	Triplet	68	230	68	8	0	0	69697	692	0	correct_rejection	NA	0
38	Triplet	69	231	69	7	0	0	70406	692	0	correct_rejection	NA	0
38	Triplet	70	232	70	4	0	0	71115	691	0	correct_rejection	NA	0
38	Triplet	71	233	71	0	1	1	71823	692	1	hit	436	0
38	Triplet	72	234	72	5	0	0	72532	691	0	correct_rejection	NA	0
38	Triplet	73	235	73	6	0	0	73240	692	0	correct_rejection	NA	0
38	Triplet	74	236	74	7	0	0	73949	691	0	correct_rejection	NA	0
38	Triplet	75	237	75	8	0	0	74657	692	0	correct_rejection	NA	0
38	Triplet	76	238	76	9	0	0	75366	692	0	correct_rejection	NA	0
38	Triplet	77	239	77	7	0	0	76074	692	0	correct_rejection	NA	0
38	Triplet	78	240	78	8	0	0	76783	692	0	correct_rejection	NA	0
38	Triplet	79	241	79	9	0	0	77492	691	0	correct_rejection	NA	0
38	Triplet	80	242	80	4	0	0	78200	692	0	correct_rejection	NA	0
38	Triplet	81	243	81	5	0	0	78909	691	0	correct_rejection	NA	0
38	Triplet	82	244	82	6	0	0	79617	692	0	correct_rejection	NA	0
38	Triplet	83	245	83	6	0	0	80326	692	0	correct_rejection	NA	0
38	Triplet	84	246	84	5	0	0	81034	692	0	correct_rejection	NA	0
38	Triplet	85	247	85	4	0	0	81743	692	0	correct_rejection	NA	0
38	Triplet	86	248	86	7	0	0	82452	691	0	correct_rejection	NA	0
38	Triplet	87	249	87	8	0	0	83160	692	0	correct_rejection	NA	0
38	Triplet	88	250	88	9	0	0	83869	691	0	correct_rejection	NA	0
38	Triplet	89	251	89	9	0	0	84577	692	0	correct_rejection	NA	0
38	Triplet	90	252	90	8	0	0	85286	692	0	correct_rejection	NA	0
38	Triplet	91	253	91	7	0	0	85994	692	0	correct_rejection	NA	0
38	Triplet	92	254	92	6	0	0	86703	692	0	correct_rejection	NA	0
38	Triplet	93	255	93	5	0	0	87412	691	0	correct_rejection	NA	0
38	Triplet	94	256	94	4	0	0	88120	692	0	correct_rejection	NA	0
38	Triplet	95	257	95	4	0	0	88829	691	0	correct_rejection	NA	0
38	Triplet	96	258	96	5	0	0	89537	692	0	correct_rejection	NA	0
38	Triplet	97	259	97	6	0	0	90246	692	0	correct_rejection	NA	0
38	Triplet	98	260	98	4	0	0	90954	692	0	correct_rejection	NA	0
38	Triplet	99	261	99	5	0	0	91663	692	0	correct_rejection	NA	0
38	Triplet	100	262	100	6	0	0	92372	691	0	correct_rejection	NA	0
38	Triplet	101	263	101	9	0	0	93080	692	0	correct_rejection	NA	0
38	Triplet	102	264	102	8	0	0	93789	691	0	correct_rejection	NA	0
38	Triplet	103	265	103	7	0	0	94497	692	0	correct_rejection	NA	0
38	Triplet	104	266	104	0	1	2	95206	691	1	hit	371	0
38	Triplet	105	267	105	9	0	0	95914	692	0	correct_rejection	NA	0
38	Triplet	106	268	106	8	0	0	96623	692	0	correct_rejection	NA	0
38	Triplet	107	269	107	7	0	0	97331	692	0	correct_rejection	NA	0
38	Triplet	108	270	108	4	0	0	98040	692	0	correct_rejection	NA	0
38	Triplet	109	271	109	5	0	0	98749	691	0	correct_rejection	NA	0
38	Triplet	110	272	110	6	0	0	99457	692	0	correct_rejection	NA	0
38	Triplet	111	273	111	4	0	0	100166	691	0	correct_rejection	NA	0
38	Triplet	112	274	112	5	0	0	100874	692	0	correct_rejection	NA	0
38	Triplet	113	275	113	6	0	0	101583	692	0	correct_rejection	NA	0
38	Triplet	114	276	114	6	0	0	102291	692	0	correct_rejection	NA	0
38	Triplet	115	277	115	0	1	1	103000	692	1	hit	388	0
38	Triplet	116	278	116	5	0	0	103709	691	0	correct_rejection	NA	0
38	Triplet	117	279	117	4	0	0	104417	692	0	correct_rejection	NA	0
38	Triplet	118	280	118	9	0	0	105126	691	0	correct_rejection	NA	0
38	Triplet	119	281	119	8	0	0	105834	692	0	correct_rejection	NA	0
38	Triplet	120	282	120	0	1	1	106543	692	1	hit	390	0
38	Triplet	121	283	121	7	0	0	107251	692	0	correct_rejection	NA	0
38	Triplet	122	284	122	9	0	0	107960	692	0	correct_rejection	NA	0
38	Triplet	123	285	123	0	1	1	108669	691	1	hit	384	0
38	Triplet	124	286	124	8	0	0	109377	692	0	correct_rejection	NA	0
38	Triplet	125	287	125	7	0	0	110086	691	0	correct_rejection	NA	0
38	Triplet	126	288	126	6	0	0	110794	692	0	correct_rejection	NA	0
38	Triplet	127	289	127	5	0	0	111503	691	0	correct_rejection	NA	0
38	Triplet	128	290	128	4	0	0	112211	692	0	correct_rejection	NA	0
38	Triplet	129	291	129	6	0	0	112920	692	0	correct_rejection	NA	0
38	Triplet	130	292	130	5	0	0	113628	692	0	correct_rejection	NA	0
38	Triplet	131	293	131	4	0	0	114337	692	0	correct_rejection	NA	0
38	Triplet	132	294	132	7	0	0	115046	691	0	correct_rejection	NA	0
38	Triplet	133	295	133	0	1	1	115754	692	1	hit	345	0
38	Triplet	134	296	134	8	0	0	116463	691	0	correct_rejection	NA	0
38	Triplet	135	297	135	9	0	0	117171	692	0	correct_rejection	NA	0
38	Triplet	136	298	136	4	0	0	117880	692	0	correct_rejection	NA	0
38	Triplet	137	299	137	5	0	0	118588	692	0	correct_rejection	NA	0
38	Triplet	138	300	138	6	0	0	119297	692	0	correct_rejection	NA	0
38	Triplet	139	301	139	7	0	0	120006	691	0	correct_rejection	NA	0
38	Triplet	140	302	140	8	0	0	120714	692	0	correct_rejection	NA	0
38	Triplet	141	303	141	0	1	1	121423	691	1	hit	419	0
38	Triplet	142	304	142	9	0	0	122131	692	0	correct_rejection	NA	0
38	Triplet	143	305	143	9	0	0	122840	692	0	correct_rejection	NA	0
38	Triplet	144	306	144	8	0	0	123548	692	0	correct_rejection	NA	0
38	Triplet	145	307	145	7	0	0	124257	692	0	correct_rejection	NA	0
38	Triplet	146	308	146	4	0	0	124966	691	0	correct_rejection	NA	0
38	Triplet	147	309	147	5	0	0	125674	692	0	correct_rejection	NA	0
38	Triplet	148	310	148	6	0	0	126383	691	0	correct_rejection	NA	0
38	Triplet	149	311	149	9	0	0	127091	692	0	correct_rejection	NA	0
38	Triplet	150	312	150	0	1	1	127800	692	1	hit	355	0
38	Triplet	151	313	151	8	0	0	128508	692	0	correct_rejection	NA	0
38	Triplet	152	314	152	7	0	0	129217	692	0	correct_rejection	NA	0
38	Triplet	153	315	153	7	0	0	129926	691	0	correct_rejection	NA	0
38	Triplet	154	316	154	8	0	0	130634	692	0	correct_rejection	NA	0
38	Triplet	155	317	155	9	0	0	131343	691	0	correct_rejection	NA	0
38	Triplet	156	318	156	7	0	0	132051	692	0	correct_rejection	NA	0
38	Triplet	157	319	157	0	1	1	132760	691	1	hit	367	0
38	Triplet	158	320	158	8	0	0	133468	692	0	correct_rejection	NA	0
38	Triplet	159	321	159	9	0	0	134177	692	0	correct_rejection	NA	0
38	Triplet	160	322	160	6	0	0	134885	692	0	correct_rejection	NA	0
38	Triplet	161	323	161	5	0	0	135594	692	0	correct_rejection	NA	0
38	Triplet	162	324	162	4	0	0	136303	691	0	correct_rejection	NA	0
38	Correct	1	1	163	4	0	0	145422	692	0	correct_rejection	NA	7098
38	Correct	2	2	164	5	0	0	146131	692	0	correct_rejection	NA	0
38	Correct	3	3	165	6	0	0	146839	692	0	correct_rejection	NA	0
38	Correct	4	4	166	0	1	2	147548	692	1	hit	358	0
38	Correct	5	5	167	4	0	0	148257	691	0	correct_rejection	NA	0
38	Correct	6	6	168	5	0	0	148965	692	0	correct_rejection	NA	0
38	Correct	7	7	169	6	0	0	149674	691	0	correct_rejection	NA	0
38	Correct	8	8	170	4	0	0	150382	692	0	correct_rejection	NA	0
38	Correct	9	9	171	5	0	0	151091	692	0	correct_rejection	NA	0
38	Correct	10	10	172	6	0	0	151799	692	0	correct_rejection	NA	0
38	Correct	11	11	173	0	1	3	152508	692	1	hit	343	0
38	Correct	12	12	174	6	0	0	153217	691	0	correct_rejection	NA	0
38	Correct	13	13	175	5	0	0	153925	692	0	correct_rejection	NA	0
38	Correct	14	14	176	4	0	0	154634	691	0	correct_rejection	NA	0
38	Correct	15	15	177	6	0	0	155342	692	0	correct_rejection	NA	0
38	Correct	16	16	178	0	1	1	156051	691	1	hit	315	0
38	Correct	17	17	179	5	0	0	156759	692	0	correct_rejection	NA	0
38	Correct	18	18	180	4	0	0	157468	692	0	correct_rejection	NA	0
38	Correct	19	19	181	6	0	0	158176	692	0	correct_rejection	NA	0
38	Correct	20	20	182	5	0	0	158885	692	0	correct_rejection	NA	0
38	Correct	21	21	183	4	0	0	159594	691	0	correct_rejection	NA	0
38	Correct	22	22	184	9	0	0	160302	692	0	correct_rejection	NA	0
38	Correct	23	23	185	8	0	0	161011	691	0	correct_rejection	NA	0
38	Correct	24	24	186	7	0	0	161719	692	0	correct_rejection	NA	0
38	Correct	25	25	187	9	0	0	162428	692	0	correct_rejection	NA	0
38	Correct	26	26	188	8	0	0	163136	692	0	correct_rejection	NA	0
38	Correct	27	27	189	7	0	0	163845	692	0	correct_rejection	NA	0
38	Correct	28	28	190	0	1	2	164554	691	1	hit	305	0
38	Correct	29	29	191	9	0	0	165262	692	0	correct_rejection	NA	0
38	Correct	30	30	192	8	0	0	165971	691	0	correct_rejection	NA	0
38	Correct	31	31	193	7	0	0	166679	692	0	correct_rejection	NA	0
38	Correct	32	32	194	7	0	0	167388	692	0	correct_rejection	NA	0
38	Correct	33	33	195	8	0	0	168096	692	0	correct_rejection	NA	0
38	Correct	34	34	196	9	0	0	168805	692	0	correct_rejection	NA	0
38	Correct	35	35	197	7	0	0	169514	691	0	correct_rejection	NA	0
38	Correct	36	36	198	8	0	0	170222	692	0	correct_rejection	NA	0
38	Correct	37	37	199	9	0	0	170931	691	0	correct_rejection	NA	0
38	Correct	38	38	200	7	0	0	171639	692	0	correct_rejection	NA	0
38	Correct	39	39	201	8	0	0	172348	691	0	correct_rejection	NA	0
38	Correct	40	40	202	9	0	0	173056	692	0	correct_rejection	NA	0
38	Correct	41	41	203	0	1	4	173765	692	1	hit	309	0
38	Correct	42	42	204	4	0	0	174473	692	0	correct_rejection	NA	0
38	Correct	43	43	205	5	0	0	175182	692	0	correct_rejection	NA	0
38	Correct	44	44	206	0	1	1	175891	691	1	hit	445	0
38	Correct	45	45	207	6	0	0	176599	692	0	correct_rejection	NA	0
38	Correct	46	46	208	4	0	0	177308	691	0	correct_rejection	NA	0
38	Correct	47	47	209	5	0	0	178016	692	0	correct_rejection	NA	0
38	Correct	48	48	210	6	0	0	178725	692	0	correct_rejection	NA	0
38	Correct	49	49	211	4	0	0	179433	692	0	correct_rejection	NA	0
38	Correct	50	50	212	5	0	0	180142	692	0	correct_rejection	NA	0
38	Correct	51	51	213	6	0	0	180851	691	0	correct_rejection	NA	0
38	Correct	52	52	214	6	0	0	181559	692	0	correct_rejection	NA	0
38	Correct	53	53	215	5	0	0	182268	691	0	correct_rejection	NA	0
38	Correct	54	54	216	4	0	0	182976	692	0	correct_rejection	NA	0
38	Correct	55	55	217	6	0	0	183685	692	0	correct_rejection	NA	0
38	Correct	56	56	218	5	0	0	184393	692	0	correct_rejection	NA	0
38	Correct	57	57	219	4	0	0	185102	692	0	correct_rejection	NA	0
38	Correct	58	58	220	6	0	0	185811	691	0	correct_rejection	NA	0
38	Correct	59	59	221	5	0	0	186519	692	0	correct_rejection	NA	0
38	Correct	60	60	222	4	0	0	187228	691	0	correct_rejection	NA	0
38	Correct	61	61	223	9	0	0	187936	692	0	correct_rejection	NA	0
38	Correct	62	62	224	8	0	0	188645	692	0	correct_rejection	NA	0
38	Correct	63	63	225	7	0	0	189353	692	0	correct_rejection	NA	0
38	Correct	64	64	226	9	0	0	190062	692	0	correct_rejection	NA	0
38	Correct	65	65	227	8	0	0	190771	691	0	correct_rejection	NA	0
38	Correct	66	66	228	7	0	0	191479	692	0	correct_rejection	NA	0
38	Correct	67	67	229	9	0	0	192188	691	0	correct_rejection	NA	0
38	Correct	68	68	230	8	0	0	192896	692	0	correct_rejection	NA	0
38	Correct	69	69	231	7	0	0	193605	691	0	correct_rejection	NA	0
38	Correct	70	70	232	7	0	0	194313	692	0	correct_rejection	NA	0
38	Correct	71	71	233	8	0	0	195022	692	0	correct_rejection	NA	0
38	Correct	72	72	234	9	0	0	195730	692	0	correct_rejection	NA	0
38	Correct	73	73	235	7	0	0	196439	692	0	correct_rejection	NA	0
38	Correct	74	74	236	8	0	0	197148	691	0	correct_rejection	NA	0
38	Correct	75	75	237	9	0	0	197856	692	0	correct_rejection	NA	0
38	Correct	76	76	238	7	0	0	198565	691	0	correct_rejection	NA	0
38	Correct	77	77	239	8	0	0	199273	692	0	correct_rejection	NA	0
38	Correct	78	78	240	9	0	0	199982	692	0	correct_rejection	NA	0
38	Correct	79	79	241	4	0	0	200690	692	0	correct_rejection	NA	0
38	Correct	80	80	242	0	1	1	201399	692	1	hit	456	0
38	Correct	81	81	243	5	0	0	202108	691	0	correct_rejection	NA	0
38	Correct	82	82	244	6	0	0	202816	692	0	correct_rejection	NA	0
38	Correct	83	83	245	4	0	0	203525	691	0	correct_rejection	NA	0
38	Correct	84	84	246	5	0	0	204233	692	0	correct_rejection	NA	0
38	Correct	85	85	247	6	0	0	204942	692	0	correct_rejection	NA	0
38	Correct	86	86	248	4	0	0	205650	692	0	correct_rejection	NA	0
38	Correct	87	87	249	0	1	1	206359	692	1	hit	432	0
38	Correct	88	88	250	5	0	0	207068	691	0	correct_rejection	NA	0
38	Correct	89	89	251	6	0	0	207776	692	0	correct_rejection	NA	0
38	Correct	90	90	252	6	0	0	208485	691	0	correct_rejection	NA	0
38	Correct	91	91	253	5	0	0	209193	692	0	correct_rejection	NA	0
38	Correct	92	92	254	0	1	1	209902	692	1	hit	361	0
38	Correct	93	93	255	4	0	0	210610	692	0	correct_rejection	NA	0
38	Correct	94	94	256	6	0	0	211319	692	0	correct_rejection	NA	0
38	Correct	95	95	257	5	0	0	212028	691	0	correct_rejection	NA	0
38	Correct	96	96	258	0	1	1	212736	692	1	hit	432	0
38	Correct	97	97	259	4	0	0	213445	691	0	correct_rejection	NA	0
38	Correct	98	98	260	6	0	0	214153	692	0	correct_rejection	NA	0
38	Correct	99	99	261	5	0	0	214862	691	0	correct_rejection	NA	0
38	Correct	100	100	262	4	0	0	215570	692	0	correct_rejection	NA	0
38	Correct	101	101	263	9	0	0	216279	692	0	correct_rejection	NA	0
38	Correct	102	102	264	0	1	1	216987	692	1	hit	364	0
38	Correct	103	103	265	8	0	0	217696	692	0	correct_rejection	NA	0
38	Correct	104	104	266	7	0	0	218405	691	0	correct_rejection	NA	0
38	Correct	105	105	267	9	0	0	219113	692	0	correct_rejection	NA	0
38	Correct	106	106	268	8	0	0	219822	691	0	correct_rejection	NA	0
38	Correct	107	107	269	7	0	0	220530	692	0	correct_rejection	NA	0
38	Correct	108	108	270	9	0	0	221239	692	0	correct_rejection	NA	0
38	Correct	109	109	271	8	0	0	221947	692	0	correct_rejection	NA	0
38	Correct	110	110	272	0	1	1	222656	692	1	hit	363	0
38	Correct	111	111	273	7	0	0	223365	691	0	correct_rejection	NA	0
38	Correct	112	112	274	7	0	0	224073	692	0	correct_rejection	NA	0
38	Correct	113	113	275	8	0	0	224782	691	0	correct_rejection	NA	0
38	Correct	114	114	276	9	0	0	225490	692	0	correct_rejection	NA	0
38	Correct	115	115	277	7	0	0	226199	692	0	correct_rejection	NA	0
38	Correct	116	116	278	8	0	0	226907	692	0	correct_rejection	NA	0
38	Correct	117	117	279	9	0	0	227616	692	0	correct_rejection	NA	0
38	Correct	118	118	280	7	0	0	228325	691	0	correct_rejection	NA	0
38	Correct	119	119	281	8	0	0	229033	692	0	correct_rejection	NA	0
38	Correct	120	120	282	0	1	1	229742	691	1	hit	364	0
38	Correct	121	121	283	9	0	0	230450	692	0	correct_rejection	NA	0
38	Correct	122	122	284	4	0	0	231159	691	0	correct_rejection	NA	0
38	Correct	123	123	285	5	0	0	231867	692	0	correct_rejection	NA	0
38	Correct	124	124	286	6	0	0	232576	692	0	correct_rejection	NA	0
38	Correct	125	125	287	4	0	0	233284	692	0	correct_rejection	NA	0
38	Correct	126	126	288	5	0	0	233993	692	0	correct_rejection	NA	0
38	Correct	127	127	289	6	0	0	234702	691	0	correct_rejection	NA	0
38	Correct	128	128	290	4	0	0	235410	692	0	correct_rejection	NA	0
38	Correct	129	129	291	5	0	0	236119	691	0	correct_rejection	NA	0
38	Correct	130	130	292	0	1	1	236827	692	1	hit	349	0
38	Correct	131	131	293	6	0	0	237536	692	0	correct_rejection	NA	0
38	Correct	132	132	294	6	0	0	238244	692	0	correct_rejection	NA	0
38	Correct	133	133	295	0	1	1	238953	692	1	hit	475	0
38	Correct	134	134	296	5	0	0	239662	691	0	correct_rejection	NA	0
38	Correct	135	135	297	4	0	0	240370	692	0	correct_rejection	NA	0
38	Correct	136	136	298	6	0	0	241079	691	0	correct_rejection	NA	0
38	Correct	137	137	299	5	0	0	241787	692	0	correct_rejection	NA	0
38	Correct	138	138	300	4	0	0	242496	692	0	correct_rejection	NA	0
38	Correct	139	139	301	0	1	2	243204	692	1	hit	356	0
38	Correct	140	140	302	6	0	0	243913	692	0	correct_rejection	NA	0
38	Correct	141	141	303	5	0	0	244622	691	0	correct_rejection	NA	0
38	Correct	142	142	304	4	0	0	245330	692	0	correct_rejection	NA	0
38	Correct	143	143	305	9	0	0	246039	691	0	correct_rejection	NA	0
38	Correct	144	144	306	8	0	0	246747	692	0	correct_rejection	NA	0
38	Correct	145	145	307	7	0	0	247456	692	0	correct_rejection	NA	0
38	Correct	146	146	308	9	0	0	248164	692	0	correct_rejection	NA	0
38	Correct	147	147	309	8	0	0	248873	692	0	correct_rejection	NA	0
38	Correct	148	148	310	7	0	0	249582	691	0	correct_rejection	NA	0
38	Correct	149	149	311	9	0	0	250290	692	0	correct_rejection	NA	0
38	Correct	150	150	312	0	1	1	250999	691	1	hit	445	0
38	Correct	151	151	313	8	0	0	251707	692	0	correct_rejection	NA	0
38	Correct	152	152	314	7	0	0	252416	691	0	correct_rejection	NA	0
38	Correct	153	153	315	7	0	0	253124	692	0	correct_rejection	NA	0
38	Correct	154	154	316	8	0	0	253833	692	0	correct_rejection	NA	0
38	Correct	155	155	317	9	0	0	254541	692	0	correct_rejection	NA	0
38	Correct	156	156	318	0	1	2	255250	692	1	hit	464	0
38	Correct	157	157	319	7	0	0	255959	691	0	correct_rejection	NA	0
38	Correct	158	158	320	8	0	0	256667	692	0	correct_rejection	NA	0
38	Correct	159	159	321	9	0	0	257376	691	0	correct_rejection	NA	0
38	Correct	160	160	322	7	0	0	258084	692	0	correct_rejection	NA	0
38	Correct	161	161	323	8	0	0	258793	692	0	correct_rejection	NA	0
38	Correct	162	162	324	9	0	0	259501	692	0	correct_rejection	NA	0
38	Single	1	1	325	9	0	0	269280	691	0	correct_rejection	NA	7959
38	Single	2	2	326	5	0	0	269988	692	0	correct_rejection	NA	0
38	Single	3	3	327	4	0	0	270697	691	0	correct_rejection	NA	0
38	Single	4	4	328	7	0	0	271405	692	0	correct_rejection	NA	0
38	Single	5	5	329	9	0	0	272114	692	0	correct_rejection	NA	0
38	Single	6	6	330	4	0	0	272822	692	0	correct_rejection	NA	0
38	Single	7	7	331	4	0	0	273531	692	0	correct_rejection	NA	0
38	Single	8	8	332	5	0	0	274240	691	0	correct_rejection	NA	0
38	Single	9	9	333	0	1	1	274948	692	1	hit	385	0
38	Single	10	10	334	8	0	0	275657	691	0	correct_rejection	NA	0
38	Single	11	11	335	7	0	0	276365	692	0	correct_rejection	NA	0
38	Single	12	12	336	5	0	0	277074	692	0	correct_rejection	NA	0
38	Single	13	13	337	7	0	0	277782	692	0	correct_rejection	NA	0
38	Single	14	14	338	0	1	1	278491	692	1	hit	356	0
38	Single	15	15	339	7	0	0	279200	691	0	correct_rejection	NA	0
38	Single	16	16	340	8	0	0	279908	692	0	correct_rejection	NA	0
38	Single	17	17	341	9	0	0	280617	691	0	correct_rejection	NA	0
38	Single	18	18	342	8	0	0	281325	692	0	correct_rejection	NA	0
38	Single	19	19	343	6	0	0	282034	692	0	correct_rejection	NA	0
38	Single	20	20	344	4	0	0	282742	692	0	correct_rejection	NA	0
38	Single	21	21	345	0	1	1	283451	692	1	hit	346	0
38	Single	22	22	346	9	0	0	284160	691	0	correct_rejection	NA	0
38	Single	23	23	347	9	0	0	284868	692	0	correct_rejection	NA	0
38	Single	24	24	348	7	0	0	285577	691	0	correct_rejection	NA	0
38	Single	25	25	349	0	1	1	286285	692	1	hit	377	0
38	Single	26	26	350	6	0	0	286994	692	0	correct_rejection	NA	0
38	Single	27	27	351	6	0	0	287702	692	0	correct_rejection	NA	0
38	Single	28	28	352	8	0	0	288411	692	0	correct_rejection	NA	0
38	Single	29	29	353	5	0	0	289120	691	0	correct_rejection	NA	0
38	Single	30	30	354	6	0	0	289828	692	0	correct_rejection	NA	0
38	Single	31	31	355	0	1	1	290537	691	1	hit	343	0
38	Single	32	32	356	7	0	0	291245	692	0	correct_rejection	NA	0
38	Single	33	33	357	4	0	0	291954	691	0	correct_rejection	NA	0
38	Single	34	34	358	8	0	0	292662	692	0	correct_rejection	NA	0
38	Single	35	35	359	8	0	0	293371	692	0	correct_rejection	NA	0
38	Single	36	36	360	4	0	0	294079	692	0	correct_rejection	NA	0
38	Single	37	37	361	6	0	0	294788	692	0	correct_rejection	NA	0
38	Single	38	38	362	5	0	0	295497	691	0	correct_rejection	NA	0
38	Single	39	39	363	5	0	0	296205	692	0	correct_rejection	NA	0
38	Single	40	40	364	9	0	0	296914	691	0	correct_rejection	NA	0
38	Single	41	41	365	6	0	0	297622	692	0	correct_rejection	NA	0
38	Single	42	42	366	4	0	0	298331	692	0	correct_rejection	NA	0
38	Single	43	43	367	9	0	0	299039	692	0	correct_rejection	NA	0
38	Single	44	44	368	8	0	0	299748	692	0	correct_rejection	NA	0
38	Single	45	45	369	8	0	0	300457	691	0	correct_rejection	NA	0
38	Single	46	46	370	6	0	0	301165	692	0	correct_rejection	NA	0
38	Single	47	47	371	9	0	0	301874	691	0	correct_rejection	NA	0
38	Single	48	48	372	6	0	0	302582	692	0	correct_rejection	NA	0
38	Single	49	49	373	6	0	0	303291	692	0	correct_rejection	NA	0
38	Single	50	50	374	7	0	0	303999	692	0	correct_rejection	NA	0
38	Single	51	51	375	5	0	0	304708	692	0	correct_rejection	NA	0
38	Single	52	52	376	6	0	0	305417	691	0	correct_rejection	NA	0
38	Single	53	53	377	5	0	0	306125	692	0	correct_rejection	NA	0
38	Single	54	54	378	8	0	0	306834	691	0	correct_rejection	NA	0
38	Single	55	55	379	4	0	0	307542	692	0	correct_rejection	NA	0
38	Single	56	56	380	5	0	0	308251	692	0	correct_rejection	NA	0
38	Single	57	57	381	4	0	0	308959	692	0	correct_rejection	NA	0
38	Single	58	58	382	8	0	0	309668	692	0	correct_rejection	NA	0
38	Single	59	59	383	7	0	0	310377	691	0	correct_rejection	NA	0
38	Single	60	60	384	7	0	0	311085	692	0	correct_rejection	NA	0
38	Single	61	61	385	6	0	0	311794	691	0	correct_rejection	NA	0
38	Single	62	62	386	8	0	0	312502	692	0	correct_rejection	NA	0
38	Single	63	63	387	9	0	0	313211	691	0	correct_rejection	NA	0
38	Single	64	64	388	7	0	0	313919	692	0	correct_rejection	NA	0
38	Single	65	65	389	9	0	0	314628	692	0	correct_rejection	NA	0
38	Single	66	66	390	5	0	0	315336	692	0	correct_rejection	NA	0
38	Single	67	67	391	5	0	0	316045	692	0	correct_rejection	NA	0
38	Single	68	68	392	7	0	0	316754	691	0	correct_rejection	NA	0
38	Single	69	69	393	4	0	0	317462	692	0	correct_rejection	NA	0
38	Single	70	70	394	6	0	0	318171	691	0	correct_rejection	NA	0
38	Single	71	71	395	4	0	0	318879	692	0	correct_rejection	NA	0
38	Single	72	72	396	0	1	1	319588	692	0	miss	NA	0
38	Single	73	73	397	4	0	0	320296	692	0	correct_rejection	NA	0
38	Single	74	74	398	7	0	0	321005	692	0	correct_rejection	NA	0
38	Single	75	75	399	0	1	1	321714	691	1	hit	467	0
38	Single	76	76	400	8	0	0	322422	692	0	correct_rejection	NA	0
38	Single	77	77	401	5	0	0	323131	691	0	correct_rejection	NA	0
38	Single	78	78	402	9	0	0	323839	692	0	correct_rejection	NA	0
38	Single	79	79	403	9	0	0	324548	692	0	correct_rejection	NA	0
38	Single	80	80	404	4	0	0	325256	692	0	correct_rejection	NA	0
38	Single	81	81	405	9	0	0	325965	692	0	correct_rejection	NA	0
38	Single	82	82	406	0	1	1	326674	691	1	hit	537	0
38	Single	83	83	407	6	0	0	327382	692	0	correct_rejection	NA	0
38	Single	84	84	408	4	0	0	328091	691	0	correct_rejection	NA	0
38	Single	85	85	409	6	0	0	328799	692	0	correct_rejection	NA	0
38	Single	86	86	410	8	0	0	329508	691	0	correct_rejection	NA	0
38	Single	87	87	411	0	1	1	330216	692	1	hit	435	0
38	Single	88	88	412	8	0	0	330925	692	0	correct_rejection	NA	0
38	Single	89	89	413	5	0	0	331633	692	0	correct_rejection	NA	0
38	Single	90	90	414	7	0	0	332342	692	0	correct_rejection	NA	0
38	Single	91	91	415	8	0	0	333051	691	0	correct_rejection	NA	0
38	Single	92	92	416	6	0	0	333759	692	0	correct_rejection	NA	0
38	Single	93	93	417	7	0	0	334468	691	0	correct_rejection	NA	0
38	Single	94	94	418	9	0	0	335176	692	0	correct_rejection	NA	0
38	Single	95	95	419	8	0	0	335885	692	0	correct_rejection	NA	0
38	Single	96	96	420	7	0	0	336593	692	0	correct_rejection	NA	0
38	Single	97	97	421	6	0	0	337302	692	0	correct_rejection	NA	0
38	Single	98	98	422	9	0	0	338011	691	0	correct_rejection	NA	0
38	Single	99	99	423	0	1	1	338719	692	1	hit	344	0
38	Single	100	100	424	7	0	0	339428	691	0	correct_rejection	NA	0
38	Single	101	101	425	7	0	0	340136	692	0	correct_rejection	NA	0
38	Single	102	102	426	4	0	0	340845	692	0	correct_rejection	NA	0
38	Single	103	103	427	5	0	0	341553	692	0	correct_rejection	NA	0
38	Single	104	104	428	5	0	0	342262	692	0	correct_rejection	NA	0
38	Single	105	105	429	8	0	0	342971	691	0	correct_rejection	NA	0
38	Single	106	106	430	9	0	0	343679	692	0	correct_rejection	NA	0
38	Single	107	107	431	0	1	1	344388	691	1	hit	496	0
38	Single	108	108	432	9	0	0	345096	692	0	correct_rejection	NA	0
38	Single	109	109	433	4	0	0	345805	692	0	correct_rejection	NA	0
38	Single	110	110	434	0	1	1	346513	692	1	hit	398	0
38	Single	111	111	435	8	0	0	347222	692	0	correct_rejection	NA	0
38	Single	112	112	436	4	0	0	347931	691	0	correct_rejection	NA	0
38	Single	113	113	437	0	1	1	348639	692	1	hit	357	0
38	Single	114	114	438	7	0	0	349348	691	0	correct_rejection	NA	0
38	Single	115	115	439	5	0	0	350056	692	0	correct_rejection	NA	0
38	Single	116	116	440	9	0	0	350765	691	0	correct_rejection	NA	0
38	Single	117	117	441	5	0	0	351473	692	0	correct_rejection	NA	0
38	Single	118	118	442	6	0	0	352182	692	0	correct_rejection	NA	0
38	Single	119	119	443	6	0	0	352890	692	0	correct_rejection	NA	0
38	Single	120	120	444	5	0	0	353599	692	0	correct_rejection	NA	0
38	Single	121	121	445	0	1	1	354308	691	1	hit	375	0
38	Single	122	122	446	4	0	0	355016	692	0	correct_rejection	NA	0
38	Single	123	123	447	9	0	0	355725	691	0	correct_rejection	NA	0
38	Single	124	124	448	7	0	0	356433	692	0	correct_rejection	NA	0
38	Single	125	125	449	6	0	0	357142	692	0	correct_rejection	NA	0
38	Single	126	126	450	4	0	0	357850	692	0	correct_rejection	NA	0
38	Single	127	127	451	9	0	0	358559	692	0	correct_rejection	NA	0
38	Single	128	128	452	4	0	0	359268	691	0	correct_rejection	NA	0
38	Single	129	129	453	4	0	0	359976	692	0	correct_rejection	NA	0
38	Single	130	130	454	8	0	0	360685	691	0	correct_rejection	NA	0
38	Single	131	131	455	5	0	0	361393	692	0	correct_rejection	NA	0
38	Single	132	132	456	8	0	0	362102	692	0	correct_rejection	NA	0
38	Single	133	133	457	6	0	0	362810	692	0	correct_rejection	NA	0
38	Single	134	134	458	8	0	0	363519	692	0	correct_rejection	NA	0
38	Single	135	135	459	4	0	0	364228	691	0	correct_rejection	NA	0
38	Single	136	136	460	6	0	0	364936	692	0	correct_rejection	NA	0
38	Single	137	137	461	0	1	1	365645	691	1	hit	407	0
38	Single	138	138	462	6	0	0	366353	692	0	correct_rejection	NA	0
38	Single	139	139	463	9	0	0	367062	692	0	correct_rejection	NA	0
38	Single	140	140	464	5	0	0	367770	692	0	correct_rejection	NA	0
38	Single	141	141	465	4	0	0	368479	692	0	correct_rejection	NA	0
38	Single	142	142	466	5	0	0	369188	691	0	correct_rejection	NA	0
38	Single	143	143	467	0	1	1	369896	692	1	hit	481	0
38	Single	144	144	468	6	0	0	370605	691	0	correct_rejection	NA	0
38	Single	145	145	469	7	0	0	371313	692	0	correct_rejection	NA	0
38	Single	146	146	470	8	0	0	372022	691	0	correct_rejection	NA	0
38	Single	147	147	471	8	0	0	372730	692	0	correct_rejection	NA	0
38	Single	148	148	472	7	0	0	373439	692	0	correct_rejection	NA	0
38	Single	149	149	473	4	0	0	374147	692	0	correct_rejection	NA	0
38	Single	150	150	474	7	0	0	374856	692	0	correct_rejection	NA	0
38	Single	151	151	475	9	0	0	375565	691	0	correct_rejection	NA	0
38	Single	152	152	476	6	0	0	376273	692	0	correct_rejection	NA	0
38	Single	153	153	477	5	0	0	376982	691	0	correct_rejection	NA	0
38	Single	154	154	478	0	1	1	377690	692	0	miss	NA	0
38	Single	155	155	479	7	0	0	378399	692	0	correct_rejection	NA	0
38	Single	156	156	480	7	0	0	379107	692	0	correct_rejection	NA	0
38	Single	157	157	481	0	1	1	379816	692	1	hit	311	0
38	Single	158	158	482	5	0	0	380525	691	0	correct_rejection	NA	0
38	Single	159	159	483	5	0	0	381233	692	0	correct_rejection	NA	0
38	Single	160	160	484	9	0	0	381942	691	0	correct_rejection	NA	0
38	Single	161	161	485	8	0	0	382650	692	0	correct_rejection	NA	0
38	Single	162	162	486	9	0	0	383359	692	0	correct_rejection	NA	0
38	Correct	1	325	487	4	0	0	393112	692	0	correct_rejection	NA	7799
38	Correct	2	326	488	5	0	0	393821	691	0	correct_rejection	NA	0
38	Correct	3	327	489	6	0	0	394529	692	0	correct_rejection	NA	0
38	Correct	4	328	490	4	0	0	395238	691	0	correct_rejection	NA	0
38	Correct	5	329	491	5	0	0	395946	692	0	correct_rejection	NA	0
38	Correct	6	330	492	6	0	0	396655	692	0	correct_rejection	NA	0
38	Correct	7	331	493	4	0	0	397363	692	0	correct_rejection	NA	0
38	Correct	8	332	494	5	0	0	398072	692	0	correct_rejection	NA	0
38	Correct	9	333	495	6	0	0	398781	691	0	correct_rejection	NA	0
38	Correct	10	334	496	0	1	3	399489	692	1	hit	489	0
38	Correct	11	335	497	6	0	0	400198	691	0	correct_rejection	NA	0
38	Correct	12	336	498	5	0	0	400906	692	0	correct_rejection	NA	0
38	Correct	13	337	499	4	0	0	401615	692	0	correct_rejection	NA	0
38	Correct	14	338	500	6	0	0	402323	692	0	correct_rejection	NA	0
38	Correct	15	339	501	5	0	0	403032	692	0	correct_rejection	NA	0
38	Correct	16	340	502	4	0	0	403741	691	0	correct_rejection	NA	0
38	Correct	17	341	503	6	0	0	404449	692	0	correct_rejection	NA	0
38	Correct	18	342	504	0	1	1	405158	691	1	hit	300	0
38	Correct	19	343	505	5	0	0	405866	692	0	correct_rejection	NA	0
38	Correct	20	344	506	4	0	0	406575	691	0	correct_rejection	NA	0
38	Correct	21	345	507	9	0	0	407283	692	0	correct_rejection	NA	0
38	Correct	22	346	508	8	0	0	407992	692	0	correct_rejection	NA	0
38	Correct	23	347	509	7	0	0	408700	692	0	correct_rejection	NA	0
38	Correct	24	348	510	0	1	2	409409	692	0	miss	NA	0
38	Correct	25	349	511	9	0	0	410118	691	0	correct_rejection	NA	0
38	Correct	26	350	512	8	0	0	410826	692	0	correct_rejection	NA	0
38	Correct	27	351	513	7	0	0	411535	691	0	correct_rejection	NA	0
38	Correct	28	352	514	9	0	0	412243	692	0	correct_rejection	NA	0
38	Correct	29	353	515	8	0	0	412952	692	0	correct_rejection	NA	0
38	Correct	30	354	516	7	0	0	413660	692	0	correct_rejection	NA	0
38	Correct	31	355	517	7	0	0	414369	692	0	correct_rejection	NA	0
38	Correct	32	356	518	8	0	0	415078	691	0	correct_rejection	NA	0
38	Correct	33	357	519	9	0	0	415786	692	0	correct_rejection	NA	0
38	Correct	34	358	520	7	0	0	416495	691	0	correct_rejection	NA	0
38	Correct	35	359	521	8	0	0	417203	692	0	correct_rejection	NA	0
38	Correct	36	360	522	9	0	0	417912	692	0	correct_rejection	NA	0
38	Correct	37	361	523	7	0	0	418620	692	0	correct_rejection	NA	0
38	Correct	38	362	524	0	1	1	419329	692	1	hit	335	0
38	Correct	39	363	525	8	0	0	420038	691	0	correct_rejection	NA	0
38	Correct	40	364	526	9	0	0	420746	692	0	correct_rejection	NA	0
38	Correct	41	365	527	4	0	0	421455	691	0	correct_rejection	NA	0
38	Correct	42	366	528	5	0	0	422163	692	0	correct_rejection	NA	0
38	Correct	43	367	529	6	0	0	422872	692	0	correct_rejection	NA	0
38	Correct	44	368	530	4	0	0	423580	692	0	correct_rejection	NA	0
38	Correct	45	369	531	5	0	0	424289	692	0	correct_rejection	NA	0
38	Correct	46	370	532	6	0	0	424998	691	0	correct_rejection	NA	0
38	Correct	47	371	533	4	0	0	425706	692	0	correct_rejection	NA	0
38	Correct	48	372	534	0	1	1	426415	691	1	hit	351	0
38	Correct	49	373	535	5	0	0	427123	692	0	correct_rejection	NA	0
38	Correct	50	374	536	6	0	0	427832	691	0	correct_rejection	NA	0
38	Correct	51	375	537	6	0	0	428540	692	0	correct_rejection	NA	0
38	Correct	52	376	538	5	0	0	429249	692	0	correct_rejection	NA	0
38	Correct	53	377	539	4	0	0	429957	692	0	correct_rejection	NA	0
38	Correct	54	378	540	6	0	0	430666	692	0	correct_rejection	NA	0
38	Correct	55	379	541	5	0	0	431375	691	0	correct_rejection	NA	0
38	Correct	56	380	542	4	0	0	432083	692	0	correct_rejection	NA	0
38	Correct	57	381	543	6	0	0	432792	691	0	correct_rejection	NA	0
38	Correct	58	382	544	5	0	0	433500	692	0	correct_rejection	NA	0
38	Correct	59	383	545	4	0	0	434209	692	0	correct_rejection	NA	0
38	Correct	60	384	546	9	0	0	434917	692	0	correct_rejection	NA	0
38	Correct	61	385	547	8	0	0	435626	692	0	correct_rejection	NA	0
38	Correct	62	386	548	7	0	0	436335	691	0	correct_rejection	NA	0
38	Correct	63	387	549	9	0	0	437043	692	0	correct_rejection	NA	0
38	Correct	64	388	550	8	0	0	437752	691	0	correct_rejection	NA	0
38	Correct	65	389	551	0	1	1	438460	692	1	hit	419	0
38	Correct	66	390	552	7	0	0	439169	692	0	correct_rejection	NA	0
38	Correct	67	391	553	9	0	0	439877	692	0	correct_rejection	NA	0
38	Correct	68	392	554	8	0	0	440586	692	0	correct_rejection	NA	0
38	Correct	69	393	555	7	0	0	441295	691	0	correct_rejection	NA	0
38	Correct	70	394	556	7	0	0	442003	692	0	correct_rejection	NA	0
38	Correct	71	395	557	8	0	0	442712	691	0	correct_rejection	NA	0
38	Correct	72	396	558	9	0	0	443420	692	0	correct_rejection	NA	0
38	Correct	73	397	559	0	1	2	444129	691	1	hit	583	0
38	Correct	74	398	560	7	0	0	444837	692	0	correct_rejection	NA	0
38	Correct	75	399	561	8	0	0	445546	692	0	correct_rejection	NA	0
38	Correct	76	400	562	0	1	1	446255	691	1	hit	425	0
38	Correct	77	401	563	9	0	0	446963	692	0	correct_rejection	NA	0
38	Correct	78	402	564	7	0	0	447672	691	0	correct_rejection	NA	0
38	Correct	79	403	565	8	0	0	448380	692	0	correct_rejection	NA	0
38	Correct	80	404	566	0	1	1	449089	691	1	hit	363	0
38	Correct	81	405	567	9	0	0	449797	692	0	correct_rejection	NA	0
38	Correct	82	406	568	4	0	0	450506	692	0	correct_rejection	NA	0
38	Correct	83	407	569	5	0	0	451214	692	0	correct_rejection	NA	0
38	Correct	84	408	570	0	1	1	451923	692	1	hit	464	0
38	Correct	85	409	571	6	0	0	452632	691	0	correct_rejection	NA	0
38	Correct	86	410	572	4	0	0	453340	692	0	correct_rejection	NA	0
38	Correct	87	411	573	5	0	0	454049	691	0	correct_rejection	NA	0
38	Correct	88	412	574	6	0	0	454757	692	0	correct_rejection	NA	0
38	Correct	89	413	575	4	0	0	455466	692	0	correct_rejection	NA	0
38	Correct	90	414	576	5	0	0	456174	692	0	correct_rejection	NA	0
38	Correct	91	415	577	6	0	0	456883	692	0	correct_rejection	NA	0
38	Correct	92	416	578	6	0	0	457592	691	0	correct_rejection	NA	0
38	Correct	93	417	579	5	0	0	458300	692	0	correct_rejection	NA	0
38	Correct	94	418	580	4	0	0	459009	691	0	correct_rejection	NA	0
38	Correct	95	419	581	6	0	0	459717	692	0	correct_rejection	NA	0
38	Correct	96	420	582	5	0	0	460426	692	0	correct_rejection	NA	0
38	Correct	97	421	583	4	0	0	461134	692	0	correct_rejection	NA	0
38	Correct	98	422	584	6	0	0	461843	692	0	correct_rejection	NA	0
38	Correct	99	423	585	5	0	0	462552	691	0	correct_rejection	NA	0
38	Correct	100	424	586	4	0	0	463260	692	0	correct_rejection	NA	0
38	Correct	101	425	587	9	0	0	463969	691	0	correct_rejection	NA	0
38	Correct	102	426	588	8	0	0	464677	692	0	correct_rejection	NA	0
38	Correct	103	427	589	7	0	0	465386	691	0	correct_rejection	NA	0
38	Correct	104	428	590	0	1	2	466094	692	1	hit	409	0
38	Correct	105	429	591	9	0	0	466803	692	0	correct_rejection	NA	0
38	Correct	106	430	592	8	0	0	467511	692	0	correct_rejection	NA	0
38	Correct	107	431	593	7	0	0	468220	692	0	correct_rejection	NA	0
38	Correct	108	432	594	9	0	0	468929	691	0	correct_rejection	NA	0
38	Correct	109	433	595	8	0	0	469637	692	0	correct_rejection	NA	0
38	Correct	110	434	596	7	0	0	470346	691	0	correct_rejection	NA	0
38	Correct	111	435	597	0	1	3	471054	692	1	hit	614	0
38	Correct	112	436	598	7	0	0	471763	692	0	correct_rejection	NA	0
38	Correct	113	437	599	8	0	0	472471	692	0	correct_rejection	NA	0
38	Correct	114	438	600	9	0	0	473180	692	0	correct_rejection	NA	0
38	Correct	115	439	601	7	0	0	473889	691	0	correct_rejection	NA	0
38	Correct	116	440	602	0	1	1	474597	692	1	hit	336	0
38	Correct	117	441	603	8	0	0	475306	691	0	correct_rejection	NA	0
38	Correct	118	442	604	9	0	0	476014	692	0	correct_rejection	NA	0
38	Correct	119	443	605	7	0	0	476723	692	0	correct_rejection	NA	0
38	Correct	120	444	606	0	1	1	477431	692	1	hit	497	0
38	Correct	121	445	607	8	0	0	478140	692	0	correct_rejection	NA	0
38	Correct	122	446	608	9	0	0	478849	691	0	correct_rejection	NA	0
38	Correct	123	447	609	4	0	0	479557	692	0	correct_rejection	NA	0
38	Correct	124	448	610	5	0	0	480266	691	0	correct_rejection	NA	0
38	Correct	125	449	611	6	0	0	480974	692	0	correct_rejection	NA	0
38	Correct	126	450	612	4	0	0	481683	692	0	correct_rejection	NA	0
38	Correct	127	451	613	0	1	1	482391	692	1	hit	360	0
38	Correct	128	452	614	5	0	0	483100	692	0	correct_rejection	NA	0
38	Correct	129	453	615	6	0	0	483809	691	0	correct_rejection	NA	0
38	Correct	130	454	616	4	0	0	484517	692	1	false_alarm	490	0
38	Correct	131	455	617	5	0	0	485226	691	0	correct_rejection	NA	0
38	Correct	132	456	618	6	0	0	485934	692	0	correct_rejection	NA	0
38	Correct	133	457	619	6	0	0	486643	691	0	correct_rejection	NA	0
38	Correct	134	458	620	5	0	0	487351	692	0	correct_rejection	NA	0
38	Correct	135	459	621	0	1	1	488060	692	1	hit	486	0
38	Correct	136	460	622	4	0	0	488768	692	0	correct_rejection	NA	0
38	Correct	137	461	623	6	0	0	489477	692	0	correct_rejection	NA	0
38	Correct	138	462	624	5	0	0	490186	691	0	correct_rejection	NA	0
38	Correct	139	463	625	4	0	0	490894	692	0	correct_rejection	NA	0
38	Correct	140	464	626	6	0	0	491603	691	0	correct_rejection	NA	0
38	Correct	141	465	627	5	0	0	492311	692	0	correct_rejection	NA	0
38	Correct	142	466	628	4	0	0	493020	692	0	correct_rejection	NA	0
38	Correct	143	467	629	9	0	0	493728	692	0	correct_rejection	NA	0
38	Correct	144	468	630	8	0	0	494437	692	0	correct_rejection	NA	0
38	Correct	145	469	631	7	0	0	495146	691	0	correct_rejection	NA	0
38	Correct	146	470	632	9	0	0	495854	692	0	correct_rejection	NA	0
38	Correct	147	471	633	0	1	1	496563	691	0	miss	NA	0
38	Correct	148	472	634	8	0	0	497271	692	1	false_alarm	0	0
38	Correct	149	473	635	7	0	0	497980	692	0	correct_rejection	NA	0
38	Correct	150	474	636	9	0	0	498688	692	0	correct_rejection	NA	0
38	Correct	151	475	637	8	0	0	499397	692	0	correct_rejection	NA	0
38	Correct	152	476	638	7	0	0	500106	691	0	correct_rejection	NA	0
38	Correct	153	477	639	7	0	0	500814	692	0	correct_rejection	NA	0
38	Correct	154	478	640	8	0	0	501523	691	0	correct_rejection	NA	0
38	Correct	155	479	641	9	0	0	502231	692	0	correct_rejection	NA	0
38	Correct	156	480	642	0	1	2	502940	691	1	hit	392	0
38	Correct	157	481	643	7	0	0	503648	692	0	correct_rejection	NA	0
38	Correct	158	482	644	8	0	0	504357	692	0	correct_rejection	NA	0
38	Correct	159	483	645	9	0	0	505066	691	0	correct_rejection	NA	0
38	Correct	160	484	646	7	0	0	505774	692	0	correct_rejection	NA	0
38	Correct	161	485	647	8	0	0	506483	691	0	correct_rejection	NA	0
38	Correct	162	486	648	9	0	0	507191	692	0	correct_rejection	NA	0
38	Nonet	1	163	649	4	0	0	516978	691	0	correct_rejection	NA	7659
38	Nonet	2	164	650	5	0	0	517686	692	0	correct_rejection	NA	0
38	Nonet	3	165	651	6	0	0	518395	692	0	correct_rejection	NA	0
38	Nonet	4	166	652	4	0	0	519103	692	0	correct_rejection	NA	0
38	Nonet	5	167	653	5	0	0	519812	692	0	correct_rejection	NA	0
38	Nonet	6	168	654	6	0	0	520521	691	0	correct_rejection	NA	0
38	Nonet	7	169	655	4	0	0	521229	692	0	correct_rejection	NA	0
38	Nonet	8	170	656	5	0	0	521938	691	0	correct_rejection	NA	0
38	Nonet	9	171	657	0	1	1	522646	692	1	hit	459	0
38	Nonet	10	172	658	6	0	0	523355	692	0	correct_rejection	NA	0
38	Nonet	11	173	659	4	0	0	524063	692	0	correct_rejection	NA	0
38	Nonet	12	174	660	5	0	0	524772	692	0	correct_rejection	NA	0
38	Nonet	13	175	661	6	0	0	525481	691	0	correct_rejection	NA	0
38	Nonet	14	176	662	4	0	0	526189	692	0	correct_rejection	NA	0
38	Nonet	15	177	663	5	0	0	526898	691	0	correct_rejection	NA	0
38	Nonet	16	178	664	6	0	0	527606	692	0	correct_rejection	NA	0
38	Nonet	17	179	665	4	0	0	528315	692	0	correct_rejection	NA	0
38	Nonet	18	180	666	5	0	0	529023	692	0	correct_rejection	NA	0
38	Nonet	19	181	667	6	0	0	529732	692	0	correct_rejection	NA	0
38	Nonet	20	182	668	7	0	0	530441	691	0	correct_rejection	NA	0
38	Nonet	21	183	669	8	0	0	531149	692	0	correct_rejection	NA	0
38	Nonet	22	184	670	9	0	0	531858	691	0	correct_rejection	NA	0
38	Nonet	23	185	671	7	0	0	532566	692	0	correct_rejection	NA	0
38	Nonet	24	186	672	8	0	0	533275	691	0	correct_rejection	NA	0
38	Nonet	25	187	673	9	0	0	533983	692	0	correct_rejection	NA	0
38	Nonet	26	188	674	7	0	0	534692	692	0	correct_rejection	NA	0
38	Nonet	27	189	675	0	1	1	535400	692	1	hit	519	0
38	Nonet	28	190	676	8	0	0	536109	692	0	correct_rejection	NA	0
38	Nonet	29	191	677	9	0	0	536818	691	0	correct_rejection	NA	0
38	Nonet	30	192	678	0	1	3	537526	692	1	hit	497	0
38	Nonet	31	193	679	7	0	0	538235	691	0	correct_rejection	NA	0
38	Nonet	32	194	680	8	0	0	538943	692	0	correct_rejection	NA	0
38	Nonet	33	195	681	9	0	0	539652	692	0	correct_rejection	NA	0
38	Nonet	34	196	682	7	0	0	540360	692	0	correct_rejection	NA	0
38	Nonet	35	197	683	0	1	1	541069	692	1	hit	305	0
38	Nonet	36	198	684	8	0	0	541778	691	0	correct_rejection	NA	0
38	Nonet	37	199	685	9	0	0	542486	692	0	correct_rejection	NA	0
38	Nonet	38	200	686	7	0	0	543195	691	0	correct_rejection	NA	0
38	Nonet	39	201	687	8	0	0	543903	692	0	correct_rejection	NA	0
38	Nonet	40	202	688	9	0	0	544612	692	0	correct_rejection	NA	0
38	Nonet	41	203	689	6	0	0	545320	692	0	correct_rejection	NA	0
38	Nonet	42	204	690	5	0	0	546029	692	0	correct_rejection	NA	0
38	Nonet	43	205	691	4	0	0	546738	691	0	correct_rejection	NA	0
38	Nonet	44	206	692	6	0	0	547446	692	0	correct_rejection	NA	0
38	Nonet	45	207	693	5	0	0	548155	691	0	correct_rejection	NA	0
38	Nonet	46	208	694	4	0	0	548863	692	0	correct_rejection	NA	0
38	Nonet	47	209	695	6	0	0	549572	691	0	correct_rejection	NA	0
38	Nonet	48	210	696	5	0	0	550280	692	0	correct_rejection	NA	0
38	Nonet	49	211	697	0	1	1	550989	692	1	hit	486	0
38	Nonet	50	212	698	4	0	0	551697	692	0	correct_rejection	NA	0
38	Nonet	51	213	699	6	0	0	552406	692	0	correct_rejection	NA	0
38	Nonet	52	214	700	5	0	0	553115	691	0	correct_rejection	NA	0
38	Nonet	53	215	701	4	0	0	553823	692	0	correct_rejection	NA	0
38	Nonet	54	216	702	6	0	0	554532	691	0	correct_rejection	NA	0
38	Nonet	55	217	703	0	1	1	555240	692	1	hit	451	0
38	Nonet	56	218	704	5	0	0	555949	692	0	correct_rejection	NA	0
38	Nonet	57	219	705	4	0	0	556657	692	0	correct_rejection	NA	0
38	Nonet	58	220	706	6	0	0	557366	692	0	correct_rejection	NA	0
38	Nonet	59	221	707	5	0	0	558075	691	0	correct_rejection	NA	0
38	Nonet	60	222	708	4	0	0	558783	692	0	correct_rejection	NA	0
38	Nonet	61	223	709	4	0	0	559492	691	0	correct_rejection	NA	0
38	Nonet	62	224	710	0	1	1	560200	692	1	hit	355	0
38	Nonet	63	225	711	5	0	0	560909	692	0	correct_rejection	NA	0
38	Nonet	64	226	712	6	0	0	561617	692	0	correct_rejection	NA	0
38	Nonet	65	227	713	4	0	0	562326	692	0	correct_rejection	NA	0
38	Nonet	66	228	714	5	0	0	563035	691	0	correct_rejection	NA	0
38	Nonet	67	229	715	6	0	0	563743	692	0	correct_rejection	NA	0
38	Nonet	68	230	716	4	0	0	564452	691	0	correct_rejection	NA	0
38	Nonet	69	231	717	5	0	0	565160	692	0	correct_rejection	NA	0
38	Nonet	70	232	718	6	0	0	565869	692	0	correct_rejection	NA	0
38	Nonet	71	233	719	6	0	0	566577	692	0	correct_rejection	NA	0
38	Nonet	72	234	720	5	0	0	567286	692	0	correct_rejection	NA	0
38	Nonet	73	235	721	4	0	0	567995	691	0	correct_rejection	NA	0
38	Nonet	74	236	722	6	0	0	568703	692	0	correct_rejection	NA	0
38	Nonet	75	237	723	0	1	1	569412	691	1	hit	644	0
38	Nonet	76	238	724	5	0	0	570120	692	0	correct_rejection	NA	0
38	Nonet	77	239	725	4	0	0	570829	691	0	correct_rejection	NA	0
38	Nonet	78	240	726	0	1	2	571537	692	1	hit	535	0
38	Nonet	79	241	727	6	0	0	572246	692	0	correct_rejection	NA	0
38	Nonet	80	242	728	5	0	0	572954	692	0	correct_rejection	NA	0
38	Nonet	81	243	729	4	0	0	573663	692	0	correct_rejection	NA	0
38	Nonet	82	244	730	9	0	0	574372	691	0	correct_rejection	NA	0
38	Nonet	83	245	731	0	1	1	575080	692	1	hit	548	0
38	Nonet	84	246	732	8	0	0	575789	691	0	correct_rejection	NA	0
38	Nonet	85	247	733	7	0	0	576497	692	0	correct_rejection	NA	0
38	Nonet	86	248	734	9	0	0	577206	692	0	correct_rejection	NA	0
38	Nonet	87	249	735	8	0	0	577914	692	0	correct_rejection	NA	0
38	Nonet	88	250	736	7	0	0	578623	692	0	correct_rejection	NA	0
38	Nonet	89	251	737	9	0	0	579332	691	0	correct_rejection	NA	0
38	Nonet	90	252	738	8	0	0	580040	692	0	correct_rejection	NA	0
38	Nonet	91	253	739	7	0	0	580749	691	0	correct_rejection	NA	0
38	Nonet	92	254	740	4	0	0	581457	692	0	correct_rejection	NA	0
38	Nonet	93	255	741	5	0	0	582166	692	0	correct_rejection	NA	0
38	Nonet	94	256	742	6	0	0	582874	692	0	correct_rejection	NA	0
38	Nonet	95	257	743	0	1	2	583583	692	1	hit	570	0
38	Nonet	96	258	744	4	0	0	584292	691	0	correct_rejection	NA	0
38	Nonet	97	259	745	5	0	0	585000	692	0	correct_rejection	NA	0
38	Nonet	98	260	746	6	0	0	585709	691	0	correct_rejection	NA	0
38	Nonet	99	261	747	4	0	0	586417	692	0	correct_rejection	NA	0
38	Nonet	100	262	748	0	1	1	587126	692	1	hit	405	0
38	Nonet	101	263	749	5	0	0	587834	692	0	correct_rejection	NA	0
38	Nonet	102	264	750	6	0	0	588543	692	0	correct_rejection	NA	0
38	Nonet	103	265	751	9	0	0	589252	691	0	correct_rejection	NA	0
38	Nonet	104	266	752	0	1	1	589960	692	1	hit	533	0
38	Nonet	105	267	753	8	0	0	590669	691	0	correct_rejection	NA	0
38	Nonet	106	268	754	7	0	0	591377	692	0	correct_rejection	NA	0
38	Nonet	107	269	755	9	0	0	592086	691	0	correct_rejection	NA	0
38	Nonet	108	270	756	0	1	1	592794	692	0	miss	NA	0
38	Nonet	109	271	757	8	0	0	593503	692	0	correct_rejection	NA	0
38	Nonet	110	272	758	7	0	0	594211	692	0	correct_rejection	NA	0
38	Nonet	111	273	759	9	0	0	594920	692	0	correct_rejection	NA	0
38	Nonet	112	274	760	8	0	0	595629	691	0	correct_rejection	NA	0
38	Nonet	113	275	761	7	0	0	596337	692	0	correct_rejection	NA	0
38	Nonet	114	276	762	0	1	3	597046	691	1	hit	365	0
38	Nonet	115	277	763	7	0	0	597754	692	0	correct_rejection	NA	0
38	Nonet	116	278	764	8	0	0	598463	692	0	correct_rejection	NA	0
38	Nonet	117	279	765	9	0	0	599171	692	0	correct_rejection	NA	0
38	Nonet	118	280	766	7	0	0	599880	692	0	correct_rejection	NA	0
38	Nonet	119	281	767	8	0	0	600589	691	0	correct_rejection	NA	0
38	Nonet	120	282	768	9	0	0	601297	692	0	correct_rejection	NA	0
38	Nonet	121	283	769	7	0	0	602006	691	0	correct_rejection	NA	0
38	Nonet	122	284	770	8	0	0	602714	692	0	correct_rejection	NA	0
38	Nonet	123	285	771	9	0	0	603423	692	0	correct_rejection	NA	0
38	Nonet	124	286	772	9	0	0	604131	692	0	correct_rejection	NA	0
38	Nonet	125	287	773	8	0	0	604840	692	0	correct_rejection	NA	0
38	Nonet	126	288	774	7	0	0	605549	691	0	correct_rejection	NA	0
38	Nonet	127	289	775	9	0	0	606257	692	0	correct_rejection	NA	0
38	Nonet	128	290	776	8	0	0	606966	691	0	correct_rejection	NA	0
38	Nonet	129	291	777	7	0	0	607674	692	0	correct_rejection	NA	0
38	Nonet	130	292	778	9	0	0	608383	691	0	correct_rejection	NA	0
38	Nonet	131	293	779	8	0	0	609091	692	0	correct_rejection	NA	0
38	Nonet	132	294	780	7	0	0	609800	692	0	correct_rejection	NA	0
38	Nonet	133	295	781	0	1	3	610508	692	1	hit	445	0
38	Nonet	134	296	782	9	0	0	611217	692	0	correct_rejection	NA	0
38	Nonet	135	297	783	8	0	0	611926	691	0	correct_rejection	NA	0
38	Nonet	136	298	784	7	0	0	612634	692	0	correct_rejection	NA	0
38	Nonet	137	299	785	9	0	0	613343	691	0	correct_rejection	NA	0
38	Nonet	138	300	786	8	0	0	614051	692	0	correct_rejection	NA	0
38	Nonet	139	301	787	7	0	0	614760	692	0	correct_rejection	NA	0
38	Nonet	140	302	788	9	0	0	615468	692	0	correct_rejection	NA	0
38	Nonet	141	303	789	8	0	0	616177	692	0	correct_rejection	NA	0
38	Nonet	142	304	790	7	0	0	616886	691	0	correct_rejection	NA	0
38	Nonet	143	305	791	6	0	0	617594	692	0	correct_rejection	NA	0
38	Nonet	144	306	792	5	0	0	618303	691	0	correct_rejection	NA	0
38	Nonet	145	307	793	4	0	0	619011	692	0	correct_rejection	NA	0
38	Nonet	146	308	794	0	1	2	619720	692	1	hit	389	0
38	Nonet	147	309	795	6	0	0	620428	692	0	correct_rejection	NA	0
38	Nonet	148	310	796	5	0	0	621137	692	0	correct_rejection	NA	0
38	Nonet	149	311	797	4	0	0	621846	691	0	correct_rejection	NA	0
38	Nonet	150	312	798	6	0	0	622554	692	0	correct_rejection	NA	0
38	Nonet	151	313	799	5	0	0	623263	691	0	correct_rejection	NA	0
38	Nonet	152	314	800	4	0	0	623971	692	0	correct_rejection	NA	0
38	Nonet	153	315	801	7	0	0	624680	692	0	correct_rejection	NA	0
38	Nonet	154	316	802	8	0	0	625388	692	0	correct_rejection	NA	0
38	Nonet	155	317	803	0	1	1	626097	692	1	hit	353	0
38	Nonet	156	318	804	9	0	0	626806	691	0	correct_rejection	NA	0
38	Nonet	157	319	805	7	0	0	627514	692	0	correct_rejection	NA	0
38	Nonet	158	320	806	8	0	0	628223	691	0	correct_rejection	NA	0
38	Nonet	159	321	807	9	0	0	628931	692	0	correct_rejection	NA	0
38	Nonet	160	322	808	7	0	0	629640	691	0	correct_rejection	NA	0
38	Nonet	161	323	809	8	0	0	630348	692	0	correct_rejection	NA	0
38	Nonet	162	324	810	9	0	0	631057	692	0	correct_rejection	NA	0
trigger nr 623 at 633271
trigger nr 634 at 714922
38	Triplet	1	487	811	6	0	0	722179	691	0	correct_rejection	NA	7219
38	Triplet	2	488	812	5	0	0	722887	692	0	correct_rejection	NA	0
38	Triplet	3	489	813	4	0	0	723596	691	0	correct_rejection	NA	0
38	Triplet	4	490	814	4	0	0	724304	692	0	correct_rejection	NA	0
38	Triplet	5	491	815	5	0	0	725013	691	0	correct_rejection	NA	0
38	Triplet	6	492	816	6	0	0	725721	692	0	correct_rejection	NA	0
38	Triplet	7	493	817	9	0	0	726430	692	0	correct_rejection	NA	0
38	Triplet	8	494	818	8	0	0	727138	692	0	correct_rejection	NA	0
38	Triplet	9	495	819	7	0	0	727847	692	0	correct_rejection	NA	0
38	Triplet	10	496	820	0	1	2	728556	691	1	hit	495	0
38	Triplet	11	497	821	4	0	0	729264	692	0	correct_rejection	NA	0
38	Triplet	12	498	822	5	0	0	729973	691	0	correct_rejection	NA	0
38	Triplet	13	499	823	0	1	1	730681	692	1	hit	394	0
38	Triplet	14	500	824	6	0	0	731390	692	0	correct_rejection	NA	0
38	Triplet	15	501	825	6	0	0	732098	692	0	correct_rejection	NA	0
38	Triplet	16	502	826	5	0	0	732807	692	0	correct_rejection	NA	0
38	Triplet	17	503	827	0	1	1	733516	691	1	hit	379	0
38	Triplet	18	504	828	4	0	0	734224	692	0	correct_rejection	NA	0
38	Triplet	19	505	829	6	0	0	734933	691	0	correct_rejection	NA	0
38	Triplet	20	506	830	5	0	0	735641	692	0	correct_rejection	NA	0
38	Triplet	21	507	831	4	0	0	736350	692	0	correct_rejection	NA	0
38	Triplet	22	508	832	7	0	0	737058	692	0	correct_rejection	NA	0
38	Triplet	23	509	833	0	1	1	737767	692	1	hit	378	0
38	Triplet	24	510	834	8	0	0	738476	691	0	correct_rejection	NA	0
38	Triplet	25	511	835	9	0	0	739184	692	0	correct_rejection	NA	0
38	Triplet	26	512	836	6	0	0	739893	691	0	correct_rejection	NA	0
38	Triplet	27	513	837	0	1	1	740601	692	1	hit	332	0
38	Triplet	28	514	838	5	0	0	741310	692	0	correct_rejection	NA	0
38	Triplet	29	515	839	4	0	0	742018	692	0	correct_rejection	NA	0
38	Triplet	30	516	840	9	0	0	742727	692	0	correct_rejection	NA	0
38	Triplet	31	517	841	0	1	1	743436	691	1	hit	296	0
38	Triplet	32	518	842	8	0	0	744144	692	0	correct_rejection	NA	0
38	Triplet	33	519	843	7	0	0	744853	691	0	correct_rejection	NA	0
38	Triplet	34	520	844	9	0	0	745561	692	0	correct_rejection	NA	0
38	Triplet	35	521	845	8	0	0	746270	691	0	correct_rejection	NA	0
38	Triplet	36	522	846	0	1	1	746978	692	1	hit	350	0
38	Triplet	37	523	847	7	0	0	747687	692	0	correct_rejection	NA	0
38	Triplet	38	524	848	7	0	0	748395	692	0	correct_rejection	NA	0
38	Triplet	39	525	849	8	0	0	749104	692	0	correct_rejection	NA	0
38	Triplet	40	526	850	9	0	0	749813	691	0	correct_rejection	NA	0
38	Triplet	41	527	851	0	1	2	750521	692	1	hit	474	0
38	Triplet	42	528	852	4	0	0	751230	691	0	correct_rejection	NA	0
38	Triplet	43	529	853	5	0	0	751938	692	0	correct_rejection	NA	0
38	Triplet	44	530	854	6	0	0	752647	692	0	correct_rejection	NA	0
38	Triplet	45	531	855	4	0	0	753355	692	0	correct_rejection	NA	0
38	Triplet	46	532	856	5	0	0	754064	692	0	correct_rejection	NA	0
38	Triplet	47	533	857	6	0	0	754773	691	0	correct_rejection	NA	0
38	Triplet	48	534	858	7	0	0	755481	692	0	correct_rejection	NA	0
38	Triplet	49	535	859	8	0	0	756190	691	0	correct_rejection	NA	0
38	Triplet	50	536	860	9	0	0	756898	692	0	correct_rejection	NA	0
38	Triplet	51	537	861	7	0	0	757607	692	0	correct_rejection	NA	0
38	Triplet	52	538	862	8	0	0	758315	692	0	correct_rejection	NA	0
38	Triplet	53	539	863	0	1	1	759024	692	1	hit	530	0
38	Triplet	54	540	864	9	0	0	759733	691	0	correct_rejection	NA	0
38	Triplet	55	541	865	9	0	0	760441	692	0	correct_rejection	NA	0
38	Triplet	56	542	866	8	0	0	761150	691	0	correct_rejection	NA	0
38	Triplet	57	543	867	7	0	0	761858	692	0	correct_rejection	NA	0
38	Triplet	58	544	868	4	0	0	762567	692	0	correct_rejection	NA	0
38	Triplet	59	545	869	5	0	0	763275	692	0	correct_rejection	NA	0
38	Triplet	60	546	870	0	1	1	763984	692	1	hit	448	0
38	Triplet	61	547	871	6	0	0	764693	691	0	correct_rejection	NA	0
38	Triplet	62	548	872	7	0	0	765401	692	0	correct_rejection	NA	0
38	Triplet	63	549	873	8	0	0	766110	691	0	correct_rejection	NA	0
38	Triplet	64	550	874	9	0	0	766818	692	0	correct_rejection	NA	0
38	Triplet	65	551	875	6	0	0	767527	691	0	correct_rejection	NA	0
38	Triplet	66	552	876	0	1	1	768235	692	1	hit	382	0
38	Triplet	67	553	877	5	0	0	768944	692	0	correct_rejection	NA	0
38	Triplet	68	554	878	4	0	0	769652	692	0	correct_rejection	NA	0
38	Triplet	69	555	879	6	0	0	770361	692	0	correct_rejection	NA	0
38	Triplet	70	556	880	5	0	0	771070	691	0	correct_rejection	NA	0
38	Triplet	71	557	881	4	0	0	771778	692	0	correct_rejection	NA	0
38	Triplet	72	558	882	4	0	0	772487	691	0	correct_rejection	NA	0
38	Triplet	73	559	883	5	0	0	773195	692	0	correct_rejection	NA	0
38	Triplet	74	560	884	6	0	0	773904	692	0	correct_rejection	NA	0
38	Triplet	75	561	885	4	0	0	774612	692	0	correct_rejection	NA	0
38	Triplet	76	562	886	5	0	0	775321	692	0	correct_rejection	NA	0
38	Triplet	77	563	887	6	0	0	776030	691	0	correct_rejection	NA	0
38	Triplet	78	564	888	0	1	2	776738	692	1	hit	448	0
38	Triplet	79	565	889	6	0	0	777447	691	0	correct_rejection	NA	0
38	Triplet	80	566	890	5	0	0	778155	692	0	correct_rejection	NA	0
38	Triplet	81	567	891	4	0	0	778864	692	0	correct_rejection	NA	0
38	Triplet	82	568	892	7	0	0	779572	692	0	correct_rejection	NA	0
38	Triplet	83	569	893	0	1	1	780281	692	1	hit	547	0
38	Triplet	84	570	894	8	0	0	780990	691	0	correct_rejection	NA	0
38	Triplet	85	571	895	9	0	0	781698	692	0	correct_rejection	NA	0
38	Triplet	86	572	896	0	1	2	782407	691	1	hit	376	0
38	Triplet	87	573	897	9	0	0	783115	692	0	correct_rejection	NA	0
38	Triplet	88	574	898	8	0	0	783824	691	0	correct_rejection	NA	0
38	Triplet	89	575	899	0	1	1	784532	692	1	hit	374	0
38	Triplet	90	576	900	7	0	0	785241	692	0	correct_rejection	NA	0
38	Triplet	91	577	901	4	0	0	785950	691	0	correct_rejection	NA	0
38	Triplet	92	578	902	5	0	0	786658	692	0	correct_rejection	NA	0
38	Triplet	93	579	903	6	0	0	787367	691	0	correct_rejection	NA	0
38	Triplet	94	580	904	9	0	0	788075	692	0	correct_rejection	NA	0
38	Triplet	95	581	905	8	0	0	788784	691	0	correct_rejection	NA	0
38	Triplet	96	582	906	7	0	0	789492	692	0	correct_rejection	NA	0
38	Triplet	97	583	907	9	0	0	790201	692	0	correct_rejection	NA	0
38	Triplet	98	584	908	8	0	0	790909	692	0	correct_rejection	NA	0
38	Triplet	99	585	909	0	1	1	791618	692	1	hit	344	0
38	Triplet	100	586	910	7	0	0	792327	691	0	correct_rejection	NA	0
38	Triplet	101	587	911	6	0	0	793035	692	0	correct_rejection	NA	0
38	Triplet	102	588	912	5	0	0	793744	691	0	correct_rejection	NA	0
38	Triplet	103	589	913	4	0	0	794452	692	0	correct_rejection	NA	0
38	Triplet	104	590	914	9	0	0	795161	692	0	correct_rejection	NA	0
38	Triplet	105	591	915	8	0	0	795869	692	0	correct_rejection	NA	0
38	Triplet	106	592	916	7	0	0	796578	692	0	correct_rejection	NA	0
38	Triplet	107	593	917	7	0	0	797287	691	0	correct_rejection	NA	0
38	Triplet	108	594	918	8	0	0	797995	692	0	correct_rejection	NA	0
38	Triplet	109	595	919	9	0	0	798704	691	0	correct_rejection	NA	0
38	Triplet	110	596	920	7	0	0	799412	692	0	correct_rejection	NA	0
38	Triplet	111	597	921	8	0	0	800121	692	0	correct_rejection	NA	0
38	Triplet	112	598	922	9	0	0	800829	692	0	correct_rejection	NA	0
38	Triplet	113	599	923	6	0	0	801538	692	0	correct_rejection	NA	0
38	Triplet	114	600	924	5	0	0	802247	691	0	correct_rejection	NA	0
38	Triplet	115	601	925	4	0	0	802955	692	0	correct_rejection	NA	0
38	Triplet	116	602	926	0	1	2	803664	691	1	hit	573	0
38	Triplet	117	603	927	9	0	0	804372	692	0	correct_rejection	NA	0
38	Triplet	118	604	928	8	0	0	805081	691	0	correct_rejection	NA	0
38	Triplet	119	605	929	7	0	0	805789	692	0	correct_rejection	NA	0
38	Triplet	120	606	930	6	0	0	806498	692	0	correct_rejection	NA	0
38	Triplet	121	607	931	5	0	0	807206	692	0	correct_rejection	NA	0
38	Triplet	122	608	932	4	0	0	807915	692	0	correct_rejection	NA	0
38	Triplet	123	609	933	7	0	0	808624	691	0	correct_rejection	NA	0
38	Triplet	124	610	934	8	0	0	809332	692	0	correct_rejection	NA	0
38	Triplet	125	611	935	9	0	0	810041	691	0	correct_rejection	NA	0
38	Triplet	126	612	936	7	0	0	810749	692	0	correct_rejection	NA	0
38	Triplet	127	613	937	8	0	0	811458	692	0	correct_rejection	NA	0
38	Triplet	128	614	938	9	0	0	812166	692	0	correct_rejection	NA	0
38	Triplet	129	615	939	4	0	0	812875	692	0	correct_rejection	NA	0
38	Triplet	130	616	940	5	0	0	813584	691	0	correct_rejection	NA	0
38	Triplet	131	617	941	6	0	0	814292	692	0	correct_rejection	NA	0
38	Triplet	132	618	942	6	0	0	815001	691	0	correct_rejection	NA	0
38	Triplet	133	619	943	5	0	0	815709	692	0	correct_rejection	NA	0
38	Triplet	134	620	944	4	0	0	816418	692	0	correct_rejection	NA	0
38	Triplet	135	621	945	4	0	0	817126	692	0	correct_rejection	NA	0
38	Triplet	136	622	946	5	0	0	817835	692	0	correct_rejection	NA	0
38	Triplet	137	623	947	6	0	0	818544	691	0	correct_rejection	NA	0
38	Triplet	138	624	948	7	0	0	819252	692	0	correct_rejection	NA	0
38	Triplet	139	625	949	8	0	0	819961	691	0	correct_rejection	NA	0
38	Triplet	140	626	950	9	0	0	820669	692	0	correct_rejection	NA	0
38	Triplet	141	627	951	9	0	0	821378	692	0	correct_rejection	NA	0
38	Triplet	142	628	952	8	0	0	822086	692	0	correct_rejection	NA	0
38	Triplet	143	629	953	7	0	0	822795	692	0	correct_rejection	NA	0
38	Triplet	144	630	954	0	1	2	823504	691	1	hit	376	0
38	Triplet	145	631	955	9	0	0	824212	692	0	correct_rejection	NA	0
38	Triplet	146	632	956	8	0	0	824921	691	0	correct_rejection	NA	0
38	Triplet	147	633	957	7	0	0	825629	692	0	correct_rejection	NA	0
38	Triplet	148	634	958	4	0	0	826338	691	0	correct_rejection	NA	0
38	Triplet	149	635	959	5	0	0	827046	692	0	correct_rejection	NA	0
38	Triplet	150	636	960	6	0	0	827755	692	0	correct_rejection	NA	0
38	Triplet	151	637	961	4	0	0	828463	692	0	correct_rejection	NA	0
38	Triplet	152	638	962	5	0	0	829172	692	0	correct_rejection	NA	0
38	Triplet	153	639	963	6	0	0	829881	691	0	correct_rejection	NA	0
38	Triplet	154	640	964	9	0	0	830589	692	0	correct_rejection	NA	0
38	Triplet	155	641	965	8	0	0	831298	691	0	correct_rejection	NA	0
38	Triplet	156	642	966	7	0	0	832006	692	0	correct_rejection	NA	0
38	Triplet	157	643	967	7	0	0	832715	692	0	correct_rejection	NA	0
38	Triplet	158	644	968	8	0	0	833423	692	0	correct_rejection	NA	0
38	Triplet	159	645	969	9	0	0	834132	692	0	correct_rejection	NA	0
38	Triplet	160	646	970	6	0	0	834841	691	0	correct_rejection	NA	0
38	Triplet	161	647	971	5	0	0	835549	692	0	correct_rejection	NA	0
38	Triplet	162	648	972	4	0	0	836258	691	0	correct_rejection	NA	0
38	Nonet	1	325	973	4	0	0	846486	692	0	correct_rejection	NA	7529
38	Nonet	2	326	974	5	0	0	847195	691	0	correct_rejection	NA	0
38	Nonet	3	327	975	6	0	0	847903	692	0	correct_rejection	NA	0
38	Nonet	4	328	976	4	0	0	848612	691	0	correct_rejection	NA	0
38	Nonet	5	329	977	5	0	0	849320	692	0	correct_rejection	NA	0
38	Nonet	6	330	978	6	0	0	850029	692	0	correct_rejection	NA	0
38	Nonet	7	331	979	0	1	2	850737	692	1	hit	404	0
38	Nonet	8	332	980	4	0	0	851446	692	0	correct_rejection	NA	0
38	Nonet	9	333	981	5	0	0	852155	691	0	correct_rejection	NA	0
38	Nonet	10	334	982	6	0	0	852863	692	0	correct_rejection	NA	0
38	Nonet	11	335	983	6	0	0	853572	691	0	correct_rejection	NA	0
38	Nonet	12	336	984	0	1	1	854280	692	1	hit	400	0
38	Nonet	13	337	985	5	0	0	854989	692	0	correct_rejection	NA	0
38	Nonet	14	338	986	4	0	0	855697	692	0	correct_rejection	NA	0
38	Nonet	15	339	987	6	0	0	856406	692	0	correct_rejection	NA	0
38	Nonet	16	340	988	5	0	0	857115	691	0	correct_rejection	NA	0
38	Nonet	17	341	989	4	0	0	857823	692	0	correct_rejection	NA	0
38	Nonet	18	342	990	6	0	0	858532	691	0	correct_rejection	NA	0
38	Nonet	19	343	991	5	0	0	859240	692	0	correct_rejection	NA	0
38	Nonet	20	344	992	4	0	0	859949	692	0	correct_rejection	NA	0
38	Nonet	21	345	993	4	0	0	860657	692	0	correct_rejection	NA	0
38	Nonet	22	346	994	5	0	0	861366	692	0	correct_rejection	NA	0
38	Nonet	23	347	995	6	0	0	862075	691	0	correct_rejection	NA	0
38	Nonet	24	348	996	4	0	0	862783	692	0	correct_rejection	NA	0
38	Nonet	25	349	997	0	1	1	863492	691	1	hit	578	0
38	Nonet	26	350	998	5	0	0	864200	692	0	correct_rejection	NA	0
38	Nonet	27	351	999	6	0	0	864909	691	0	correct_rejection	NA	0
38	Nonet	28	352	1000	4	0	0	865617	692	0	correct_rejection	NA	0
38	Nonet	29	353	1001	5	0	0	866326	692	0	correct_rejection	NA	0
38	Nonet	30	354	1002	6	0	0	867034	692	0	correct_rejection	NA	0
38	Nonet	31	355	1003	9	0	0	867743	692	0	correct_rejection	NA	0
38	Nonet	32	356	1004	8	0	0	868452	691	0	correct_rejection	NA	0
38	Nonet	33	357	1005	7	0	0	869160	692	0	correct_rejection	NA	0
38	Nonet	34	358	1006	9	0	0	869869	691	0	correct_rejection	NA	0
38	Nonet	35	359	1007	8	0	0	870577	692	0	correct_rejection	NA	0
38	Nonet	36	360	1008	7	0	0	871286	692	0	correct_rejection	NA	0
38	Nonet	37	361	1009	9	0	0	871994	692	0	correct_rejection	NA	0
38	Nonet	38	362	1010	8	0	0	872703	692	0	correct_rejection	NA	0
38	Nonet	39	363	1011	7	0	0	873412	691	0	correct_rejection	NA	0
38	Nonet	40	364	1012	4	0	0	874120	692	0	correct_rejection	NA	0
38	Nonet	41	365	1013	5	0	0	874829	691	0	correct_rejection	NA	0
38	Nonet	42	366	1014	6	0	0	875537	692	0	correct_rejection	NA	0
38	Nonet	43	367	1015	4	0	0	876246	692	0	correct_rejection	NA	0
38	Nonet	44	368	1016	5	0	0	876954	692	0	correct_rejection	NA	0
38	Nonet	45	369	1017	0	1	1	877663	692	1	hit	522	0
38	Nonet	46	370	1018	6	0	0	878372	691	0	correct_rejection	NA	0
38	Nonet	47	371	1019	4	0	0	879080	692	0	correct_rejection	NA	0
38	Nonet	48	372	1020	5	0	0	879789	691	0	correct_rejection	NA	0
38	Nonet	49	373	1021	6	0	0	880497	692	0	correct_rejection	NA	0
38	Nonet	50	374	1022	7	0	0	881206	692	0	correct_rejection	NA	0
38	Nonet	51	375	1023	0	1	1	881914	692	1	hit	477	0
38	Nonet	52	376	1024	8	0	0	882623	692	0	correct_rejection	NA	0
38	Nonet	53	377	1025	9	0	0	883332	691	0	correct_rejection	NA	0
38	Nonet	54	378	1026	7	0	0	884040	692	0	correct_rejection	NA	0
38	Nonet	55	379	1027	8	0	0	884749	691	0	correct_rejection	NA	0
38	Nonet	56	380	1028	9	0	0	885457	692	0	correct_rejection	NA	0
38	Nonet	57	381	1029	7	0	0	886166	691	0	correct_rejection	NA	0
38	Nonet	58	382	1030	8	0	0	886874	692	0	correct_rejection	NA	0
38	Nonet	59	383	1031	9	0	0	887583	692	0	correct_rejection	NA	0
38	Nonet	60	384	1032	9	0	0	888291	692	0	correct_rejection	NA	0
38	Nonet	61	385	1033	8	0	0	889000	692	0	correct_rejection	NA	0
38	Nonet	62	386	1034	7	0	0	889709	691	0	correct_rejection	NA	0
38	Nonet	63	387	1035	9	0	0	890417	692	0	correct_rejection	NA	0
38	Nonet	64	388	1036	8	0	0	891126	691	0	correct_rejection	NA	0
38	Nonet	65	389	1037	0	1	1	891834	692	1	hit	517	0
38	Nonet	66	390	1038	7	0	0	892543	692	0	correct_rejection	NA	0
38	Nonet	67	391	1039	9	0	0	893251	692	0	correct_rejection	NA	0
38	Nonet	68	392	1040	8	0	0	893960	692	0	correct_rejection	NA	0
38	Nonet	69	393	1041	7	0	0	894669	691	0	correct_rejection	NA	0
38	Nonet	70	394	1042	0	1	3	895377	692	1	hit	503	0
38	Nonet	71	395	1043	9	0	0	896086	691	0	correct_rejection	NA	0
38	Nonet	72	396	1044	8	0	0	896794	692	0	correct_rejection	NA	0
38	Nonet	73	397	1045	7	0	0	897503	692	0	correct_rejection	NA	0
38	Nonet	74	398	1046	9	0	0	898211	692	0	correct_rejection	NA	0
38	Nonet	75	399	1047	8	0	0	898920	692	0	correct_rejection	NA	0
38	Nonet	76	400	1048	7	0	0	899629	691	0	correct_rejection	NA	0
38	Nonet	77	401	1049	9	0	0	900337	692	0	correct_rejection	NA	0
38	Nonet	78	402	1050	0	1	1	901046	691	0	miss	NA	0
38	Nonet	79	403	1051	8	0	0	901754	692	0	correct_rejection	NA	0
38	Nonet	80	404	1052	7	0	0	902463	691	0	correct_rejection	NA	0
38	Nonet	81	405	1053	6	0	0	903171	692	0	correct_rejection	NA	0
38	Nonet	82	406	1054	5	0	0	903880	692	0	correct_rejection	NA	0
38	Nonet	83	407	1055	4	0	0	904588	692	0	correct_rejection	NA	0
38	Nonet	84	408	1056	0	1	2	905297	692	0	miss	NA	0
38	Nonet	85	409	1057	6	0	0	906006	691	0	correct_rejection	NA	0
38	Nonet	86	410	1058	5	0	0	906714	692	0	correct_rejection	NA	0
38	Nonet	87	411	1059	4	0	0	907423	691	0	correct_rejection	NA	0
38	Nonet	88	412	1060	6	0	0	908131	692	0	correct_rejection	NA	0
38	Nonet	89	413	1061	5	0	0	908840	692	0	correct_rejection	NA	0
38	Nonet	90	414	1062	4	0	0	909548	692	0	correct_rejection	NA	0
38	Nonet	91	415	1063	7	0	0	910257	692	0	correct_rejection	NA	0
38	Nonet	92	416	1064	8	0	0	910966	691	0	correct_rejection	NA	0
38	Nonet	93	417	1065	9	0	0	911674	692	0	correct_rejection	NA	0
38	Nonet	94	418	1066	7	0	0	912383	691	0	correct_rejection	NA	0
38	Nonet	95	419	1067	8	0	0	913091	692	0	correct_rejection	NA	0
38	Nonet	96	420	1068	9	0	0	913800	692	0	correct_rejection	NA	0
38	Nonet	97	421	1069	7	0	0	914508	692	0	correct_rejection	NA	0
38	Nonet	98	422	1070	8	0	0	915217	692	0	correct_rejection	NA	0
38	Nonet	99	423	1071	9	0	0	915926	691	0	correct_rejection	NA	0
38	Nonet	100	424	1072	6	0	0	916634	692	0	correct_rejection	NA	0
38	Nonet	101	425	1073	0	1	1	917343	691	1	hit	619	0
38	Nonet	102	426	1074	5	0	0	918051	692	0	correct_rejection	NA	0
38	Nonet	103	427	1075	4	0	0	918760	692	0	correct_rejection	NA	0
38	Nonet	104	428	1076	6	0	0	919468	692	0	correct_rejection	NA	0
38	Nonet	105	429	1077	5	0	0	920177	692	0	correct_rejection	NA	0
38	Nonet	106	430	1078	4	0	0	920886	691	0	correct_rejection	NA	0
38	Nonet	107	431	1079	6	0	0	921594	692	0	correct_rejection	NA	0
38	Nonet	108	432	1080	5	0	0	922303	691	0	correct_rejection	NA	0
38	Nonet	109	433	1081	4	0	0	923011	692	0	correct_rejection	NA	0
38	Nonet	110	434	1082	0	1	3	923720	691	1	hit	367	0
38	Nonet	111	435	1083	6	0	0	924428	692	0	correct_rejection	NA	0
38	Nonet	112	436	1084	5	0	0	925137	692	0	correct_rejection	NA	0
38	Nonet	113	437	1085	0	1	1	925845	692	1	hit	350	0
38	Nonet	114	438	1086	4	0	0	926554	692	0	correct_rejection	NA	0
38	Nonet	115	439	1087	6	0	0	927263	691	0	correct_rejection	NA	0
38	Nonet	116	440	1088	5	0	0	927971	692	0	correct_rejection	NA	0
38	Nonet	117	441	1089	4	0	0	928680	691	0	correct_rejection	NA	0
38	Nonet	118	442	1090	6	0	0	929388	692	0	correct_rejection	NA	0
38	Nonet	119	443	1091	5	0	0	930097	692	0	correct_rejection	NA	0
38	Nonet	120	444	1092	4	0	0	930805	692	0	correct_rejection	NA	0
38	Nonet	121	445	1093	9	0	0	931514	692	0	correct_rejection	NA	0
38	Nonet	122	446	1094	8	0	0	932223	691	0	correct_rejection	NA	0
38	Nonet	123	447	1095	0	1	1	932931	692	1	hit	343	0
38	Nonet	124	448	1096	7	0	0	933640	691	0	correct_rejection	NA	0
38	Nonet	125	449	1097	9	0	0	934348	692	0	correct_rejection	NA	0
38	Nonet	126	450	1098	8	0	0	935057	692	0	correct_rejection	NA	0
38	Nonet	127	451	1099	7	0	0	935765	692	0	correct_rejection	NA	0
38	Nonet	128	452	1100	9	0	0	936474	692	0	correct_rejection	NA	0
38	Nonet	129	453	1101	8	0	0	937183	691	0	correct_rejection	NA	0
38	Nonet	130	454	1102	7	0	0	937891	692	0	correct_rejection	NA	0
38	Nonet	131	455	1103	0	1	3	938600	691	1	hit	473	0
38	Nonet	132	456	1104	7	0	0	939308	692	0	correct_rejection	NA	0
38	Nonet	133	457	1105	8	0	0	940017	692	0	correct_rejection	NA	0
38	Nonet	134	458	1106	9	0	0	940725	692	0	correct_rejection	NA	0
38	Nonet	135	459	1107	7	0	0	941434	692	0	correct_rejection	NA	0
38	Nonet	136	460	1108	8	0	0	942143	691	0	correct_rejection	NA	0
38	Nonet	137	461	1109	0	1	1	942851	692	1	hit	369	0
38	Nonet	138	462	1110	9	0	0	943560	691	0	correct_rejection	NA	0
38	Nonet	139	463	1111	7	0	0	944268	692	0	correct_rejection	NA	0
38	Nonet	140	464	1112	8	0	0	944977	691	0	correct_rejection	NA	0
38	Nonet	141	465	1113	9	0	0	945685	692	0	correct_rejection	NA	0
38	Nonet	142	466	1114	0	1	3	946394	692	1	hit	495	0
38	Nonet	143	467	1115	7	0	0	947102	692	0	correct_rejection	NA	0
38	Nonet	144	468	1116	8	0	0	947811	692	0	correct_rejection	NA	0
38	Nonet	145	469	1117	9	0	0	948520	691	0	correct_rejection	NA	0
38	Nonet	146	470	1118	7	0	0	949228	692	0	correct_rejection	NA	0
38	Nonet	147	471	1119	8	0	0	949937	691	0	correct_rejection	NA	0
38	Nonet	148	472	1120	9	0	0	950645	692	0	correct_rejection	NA	0
38	Nonet	149	473	1121	7	0	0	951354	692	0	correct_rejection	NA	0
38	Nonet	150	474	1122	8	0	0	952062	692	0	correct_rejection	NA	0
38	Nonet	151	475	1123	9	0	0	952771	692	0	correct_rejection	NA	0
38	Nonet	152	476	1124	4	0	0	953480	691	0	correct_rejection	NA	0
38	Nonet	153	477	1125	5	0	0	954188	692	0	correct_rejection	NA	0
38	Nonet	154	478	1126	0	1	1	954897	691	1	hit	485	0
38	Nonet	155	479	1127	6	0	0	955605	692	0	correct_rejection	NA	0
38	Nonet	156	480	1128	4	0	0	956314	692	0	correct_rejection	NA	0
38	Nonet	157	481	1129	0	1	1	957022	692	1	hit	408	0
38	Nonet	158	482	1130	5	0	0	957731	692	0	correct_rejection	NA	0
38	Nonet	159	483	1131	6	0	0	958440	691	0	correct_rejection	NA	0
38	Nonet	160	484	1132	4	0	0	959148	692	0	correct_rejection	NA	0
38	Nonet	161	485	1133	5	0	0	959857	691	0	correct_rejection	NA	0
38	Nonet	162	486	1134	6	0	0	960565	692	0	correct_rejection	NA	0
38	Single	1	325	1135	9	0	0	970569	691	0	correct_rejection	NA	7609
38	Single	2	326	1136	5	0	0	971277	692	0	correct_rejection	NA	0
38	Single	3	327	1137	7	0	0	971986	691	0	correct_rejection	NA	0
38	Single	4	328	1138	6	0	0	972694	692	0	correct_rejection	NA	0
38	Single	5	329	1139	0	1	1	973403	691	1	hit	375	0
38	Single	6	330	1140	9	0	0	974111	692	0	correct_rejection	NA	0
38	Single	7	331	1141	4	0	0	974820	692	0	correct_rejection	NA	0
38	Single	8	332	1142	4	0	0	975528	692	0	correct_rejection	NA	0
38	Single	9	333	1143	7	0	0	976237	692	0	correct_rejection	NA	0
38	Single	10	334	1144	8	0	0	976946	691	0	correct_rejection	NA	0
38	Single	11	335	1145	5	0	0	977654	692	0	correct_rejection	NA	0
38	Single	12	336	1146	9	0	0	978363	691	0	correct_rejection	NA	0
38	Single	13	337	1147	0	1	1	979071	692	1	hit	469	0
38	Single	14	338	1148	8	0	0	979780	692	0	correct_rejection	NA	0
38	Single	15	339	1149	6	0	0	980488	692	0	correct_rejection	NA	0
38	Single	16	340	1150	7	0	0	981197	692	0	correct_rejection	NA	0
38	Single	17	341	1151	4	0	0	981906	691	0	correct_rejection	NA	0
38	Single	18	342	1152	0	1	1	982614	692	1	hit	331	0
38	Single	19	343	1153	5	0	0	983323	691	0	correct_rejection	NA	0
38	Single	20	344	1154	8	0	0	984031	692	0	correct_rejection	NA	0
38	Single	21	345	1155	8	0	0	984740	692	0	correct_rejection	NA	0
38	Single	22	346	1156	9	0	0	985448	692	0	correct_rejection	NA	0
38	Single	23	347	1157	7	0	0	986157	692	0	correct_rejection	NA	0
38	Single	24	348	1158	5	0	0	986866	691	0	correct_rejection	NA	0
38	Single	25	349	1159	5	0	0	987574	692	0	correct_rejection	NA	0
38	Single	26	350	1160	4	0	0	988283	691	0	correct_rejection	NA	0
38	Single	27	351	1161	9	0	0	988991	692	0	correct_rejection	NA	0
38	Single	28	352	1162	9	0	0	989700	692	0	correct_rejection	NA	0
38	Single	29	353	1163	6	0	0	990408	692	0	correct_rejection	NA	0
38	Single	30	354	1164	8	0	0	991117	692	0	correct_rejection	NA	0
38	Single	31	355	1165	4	0	0	991826	691	0	correct_rejection	NA	0
38	Single	32	356	1166	6	0	0	992534	692	0	correct_rejection	NA	0
38	Single	33	357	1167	0	1	1	993243	691	1	hit	476	0
38	Single	34	358	1168	6	0	0	993951	692	0	correct_rejection	NA	0
38	Single	35	359	1169	5	0	0	994660	691	0	correct_rejection	NA	0
38	Single	36	360	1170	6	0	0	995368	692	0	correct_rejection	NA	0
38	Single	37	361	1171	4	0	0	996077	692	0	correct_rejection	NA	0
38	Single	38	362	1172	8	0	0	996785	692	0	correct_rejection	NA	0
38	Single	39	363	1173	7	0	0	997494	692	0	correct_rejection	NA	0
38	Single	40	364	1174	7	0	0	998203	691	0	correct_rejection	NA	0
38	Single	41	365	1175	5	0	0	998911	692	0	correct_rejection	NA	0
38	Single	42	366	1176	8	0	0	999620	691	0	correct_rejection	NA	0
38	Single	43	367	1177	4	0	0	1000328	692	0	correct_rejection	NA	0
38	Single	44	368	1178	5	0	0	1001037	692	0	correct_rejection	NA	0
38	Single	45	369	1179	6	0	0	1001745	692	0	correct_rejection	NA	0
38	Single	46	370	1180	8	0	0	1002454	692	0	correct_rejection	NA	0
38	Single	47	371	1181	6	0	0	1003163	691	0	correct_rejection	NA	0
38	Single	48	372	1182	6	0	0	1003871	692	0	correct_rejection	NA	0
38	Single	49	373	1183	0	1	1	1004580	691	0	miss	NA	0
38	Single	50	374	1184	4	0	0	1005288	692	0	correct_rejection	NA	0
38	Single	51	375	1185	7	0	0	1005997	692	0	correct_rejection	NA	0
38	Single	52	376	1186	9	0	0	1006705	692	0	correct_rejection	NA	0
38	Single	53	377	1187	0	1	1	1007414	692	0	miss	NA	0
38	Single	54	378	1188	7	0	0	1008123	691	0	correct_rejection	NA	0
38	Single	55	379	1189	7	0	0	1008831	692	0	correct_rejection	NA	0
38	Single	56	380	1190	8	0	0	1009540	691	0	correct_rejection	NA	0
38	Single	57	381	1191	0	1	1	1010248	692	1	hit	436	0
38	Single	58	382	1192	7	0	0	1010957	691	0	correct_rejection	NA	0
38	Single	59	383	1193	4	0	0	1011665	692	0	correct_rejection	NA	0
38	Single	60	384	1194	0	1	1	1012374	692	1	hit	309	0
38	Single	61	385	1195	9	0	0	1013082	692	0	correct_rejection	NA	0
38	Single	62	386	1196	8	0	0	1013791	692	0	correct_rejection	NA	0
38	Single	63	387	1197	9	0	0	1014500	691	0	correct_rejection	NA	0
38	Single	64	388	1198	5	0	0	1015208	692	0	correct_rejection	NA	0
38	Single	65	389	1199	5	0	0	1015917	691	0	correct_rejection	NA	0
38	Single	66	390	1200	7	0	0	1016625	692	0	correct_rejection	NA	0
38	Single	67	391	1201	5	0	0	1017334	692	0	correct_rejection	NA	0
38	Single	68	392	1202	9	0	0	1018042	692	0	correct_rejection	NA	0
38	Single	69	393	1203	6	0	0	1018751	692	0	correct_rejection	NA	0
38	Single	70	394	1204	9	0	0	1019460	691	0	correct_rejection	NA	0
38	Single	71	395	1205	9	0	0	1020168	692	0	correct_rejection	NA	0
38	Single	72	396	1206	4	0	0	1020877	691	0	correct_rejection	NA	0
38	Single	73	397	1207	6	0	0	1021585	692	0	correct_rejection	NA	0
38	Single	74	398	1208	7	0	0	1022294	692	0	correct_rejection	NA	0
38	Single	75	399	1209	6	0	0	1023002	692	0	correct_rejection	NA	0
38	Single	76	400	1210	5	0	0	1023711	692	0	correct_rejection	NA	0
38	Single	77	401	1211	0	1	1	1024420	691	1	hit	462	0
38	Single	78	402	1212	4	0	0	1025128	692	0	correct_rejection	NA	0
38	Single	79	403	1213	4	0	0	1025837	691	0	correct_rejection	NA	0
38	Single	80	404	1214	8	0	0	1026545	692	0	correct_rejection	NA	0
38	Single	81	405	1215	8	0	0	1027254	692	0	correct_rejection	NA	0
38	Single	82	406	1216	0	1	1	1027962	692	1	hit	475	0
38	Single	83	407	1217	8	0	0	1028671	692	0	correct_rejection	NA	0
38	Single	84	408	1218	4	0	0	1029380	691	0	correct_rejection	NA	0
38	Single	85	409	1219	9	0	0	1030088	692	0	correct_rejection	NA	0
38	Single	86	410	1220	7	0	0	1030797	691	0	correct_rejection	NA	0
38	Single	87	411	1221	4	0	0	1031505	692	0	correct_rejection	NA	0
38	Single	88	412	1222	8	0	0	1032214	691	0	correct_rejection	NA	0
38	Single	89	413	1223	9	0	0	1032922	692	0	correct_rejection	NA	0
38	Single	90	414	1224	4	0	0	1033631	692	0	correct_rejection	NA	0
38	Single	91	415	1225	7	0	0	1034339	692	0	correct_rejection	NA	0
38	Single	92	416	1226	6	0	0	1035048	692	0	correct_rejection	NA	0
38	Single	93	417	1227	6	0	0	1035757	691	0	correct_rejection	NA	0
38	Single	94	418	1228	0	1	1	1036465	692	1	hit	599	0
38	Single	95	419	1229	8	0	0	1037174	691	0	correct_rejection	NA	0
38	Single	96	420	1230	8	0	0	1037882	692	0	correct_rejection	NA	0
38	Single	97	421	1231	5	0	0	1038591	692	0	correct_rejection	NA	0
38	Single	98	422	1232	5	0	0	1039299	692	0	correct_rejection	NA	0
38	Single	99	423	1233	6	0	0	1040008	692	0	correct_rejection	NA	0
38	Single	100	424	1234	0	1	1	1040717	691	0	miss	NA	0
38	Single	101	425	1235	7	0	0	1041425	692	0	correct_rejection	NA	0
38	Single	102	426	1236	9	0	0	1042134	691	0	correct_rejection	NA	0
38	Single	103	427	1237	6	0	0	1042842	692	0	correct_rejection	NA	0
38	Single	104	428	1238	4	0	0	1043551	692	0	correct_rejection	NA	0
38	Single	105	429	1239	4	0	0	1044259	692	0	correct_rejection	NA	0
38	Single	106	430	1240	6	0	0	1044968	692	0	correct_rejection	NA	0
38	Single	107	431	1241	9	0	0	1045677	691	0	correct_rejection	NA	0
38	Single	108	432	1242	5	0	0	1046385	692	0	correct_rejection	NA	0
38	Single	109	433	1243	4	0	0	1047094	691	0	correct_rejection	NA	0
38	Single	110	434	1244	5	0	0	1047802	692	0	correct_rejection	NA	0
38	Single	111	435	1245	9	0	0	1048511	692	0	correct_rejection	NA	0
38	Single	112	436	1246	9	0	0	1049219	692	0	correct_rejection	NA	0
38	Single	113	437	1247	8	0	0	1049928	692	0	correct_rejection	NA	0
38	Single	114	438	1248	7	0	0	1050637	691	0	correct_rejection	NA	0
38	Single	115	439	1249	8	0	0	1051345	692	0	correct_rejection	NA	0
38	Single	116	440	1250	6	0	0	1052054	691	0	correct_rejection	NA	0
38	Single	117	441	1251	5	0	0	1052762	692	0	correct_rejection	NA	0
38	Single	118	442	1252	7	0	0	1053471	691	0	correct_rejection	NA	0
38	Single	119	443	1253	7	0	0	1054179	692	0	correct_rejection	NA	0
38	Single	120	444	1254	5	0	0	1054888	692	0	correct_rejection	NA	0
38	Single	121	445	1255	8	0	0	1055596	692	0	correct_rejection	NA	0
38	Single	122	446	1256	7	0	0	1056305	692	0	correct_rejection	NA	0
38	Single	123	447	1257	9	0	0	1057014	691	0	correct_rejection	NA	0
38	Single	124	448	1258	0	1	1	1057722	692	0	miss	NA	0
38	Single	125	449	1259	9	0	0	1058431	691	0	correct_rejection	NA	0
38	Single	126	450	1260	6	0	0	1059139	692	0	correct_rejection	NA	0
38	Single	127	451	1261	0	1	1	1059848	692	1	hit	440	0
38	Single	128	452	1262	5	0	0	1060556	692	0	correct_rejection	NA	0
38	Single	129	453	1263	5	0	0	1061265	692	0	correct_rejection	NA	0
38	Single	130	454	1264	9	0	0	1061974	691	0	correct_rejection	NA	0
38	Single	131	455	1265	4	0	0	1062682	692	0	correct_rejection	NA	0
38	Single	132	456	1266	9	0	0	1063391	691	0	correct_rejection	NA	0
38	Single	133	457	1267	5	0	0	1064099	692	0	correct_rejection	NA	0
38	Single	134	458	1268	7	0	0	1064808	692	0	correct_rejection	NA	0
38	Single	135	459	1269	4	0	0	1065516	692	0	correct_rejection	NA	0
38	Single	136	460	1270	4	0	0	1066225	692	0	correct_rejection	NA	0
38	Single	137	461	1271	5	0	0	1066934	691	0	correct_rejection	NA	0
38	Single	138	462	1272	8	0	0	1067642	692	0	correct_rejection	NA	0
38	Single	139	463	1273	8	0	0	1068351	691	0	correct_rejection	NA	0
38	Single	140	464	1274	0	1	1	1069059	692	1	hit	419	0
38	Single	141	465	1275	9	0	0	1069768	692	0	correct_rejection	NA	0
38	Single	142	466	1276	7	0	0	1070476	692	0	correct_rejection	NA	0
38	Single	143	467	1277	8	0	0	1071185	692	0	correct_rejection	NA	0
38	Single	144	468	1278	4	0	0	1071893	692	0	correct_rejection	NA	0
38	Single	145	469	1279	8	0	0	1072602	692	0	correct_rejection	NA	0
38	Single	146	470	1280	6	0	0	1073311	691	0	correct_rejection	NA	0
38	Single	147	471	1281	9	0	0	1074019	692	0	correct_rejection	NA	0
38	Single	148	472	1282	8	0	0	1074728	691	0	correct_rejection	NA	0
38	Single	149	473	1283	0	1	1	1075436	692	1	hit	403	0
38	Single	150	474	1284	5	0	0	1076145	692	0	correct_rejection	NA	0
38	Single	151	475	1285	4	0	0	1076853	692	0	correct_rejection	NA	0
38	Single	152	476	1286	0	1	1	1077562	692	1	hit	331	0
38	Single	153	477	1287	7	0	0	1078271	691	0	correct_rejection	NA	0
38	Single	154	478	1288	5	0	0	1078979	692	0	correct_rejection	NA	0
38	Single	155	479	1289	0	1	1	1079688	691	1	hit	469	0
38	Single	156	480	1290	6	0	0	1080396	692	0	correct_rejection	NA	0
38	Single	157	481	1291	6	0	0	1081105	692	0	correct_rejection	NA	0
38	Single	158	482	1292	7	0	0	1081813	692	0	correct_rejection	NA	0
38	Single	159	483	1293	7	0	0	1082522	692	0	correct_rejection	NA	0
38	Single	160	484	1294	6	0	0	1083231	691	0	correct_rejection	NA	0
38	Single	161	485	1295	4	0	0	1083939	692	0	correct_rejection	NA	0
38	Single	162	486	1296	6	0	0	1084648	691	0	correct_rejection	NA	0
38	Triplet	1	1	1297	9	0	0	1094784	692	0	correct_rejection	NA	7828
38	Triplet	2	2	1298	8	0	0	1095493	692	0	correct_rejection	NA	0
38	Triplet	3	3	1299	7	0	0	1096201	692	0	correct_rejection	NA	0
38	Triplet	4	4	1300	6	0	0	1096910	692	0	correct_rejection	NA	0
38	Triplet	5	5	1301	5	0	0	1097619	691	0	correct_rejection	NA	0
38	Triplet	6	6	1302	4	0	0	1098327	692	0	correct_rejection	NA	0
38	Triplet	7	7	1303	7	0	0	1099036	691	0	correct_rejection	NA	0
38	Triplet	8	8	1304	8	0	0	1099744	692	0	correct_rejection	NA	0
38	Triplet	9	9	1305	9	0	0	1100453	692	0	correct_rejection	NA	0
38	Triplet	10	10	1306	7	0	0	1101161	692	0	correct_rejection	NA	0
38	Triplet	11	11	1307	8	0	0	1101870	692	0	correct_rejection	NA	0
38	Triplet	12	12	1308	9	0	0	1102579	691	0	correct_rejection	NA	0
38	Triplet	13	13	1309	0	1	2	1103287	692	1	hit	617	0
38	Triplet	14	14	1310	4	0	0	1103996	691	0	correct_rejection	NA	0
38	Triplet	15	15	1311	5	0	0	1104704	692	0	correct_rejection	NA	0
38	Triplet	16	16	1312	0	1	1	1105413	692	1	hit	368	0
38	Triplet	17	17	1313	6	0	0	1106121	692	0	correct_rejection	NA	0
38	Triplet	18	18	1314	6	0	0	1106830	692	0	correct_rejection	NA	0
38	Triplet	19	19	1315	0	1	1	1107539	691	1	hit	356	0
38	Triplet	20	20	1316	5	0	0	1108247	692	0	correct_rejection	NA	0
38	Triplet	21	21	1317	4	0	0	1108956	691	0	correct_rejection	NA	0
38	Triplet	22	22	1318	4	0	0	1109664	692	0	correct_rejection	NA	0
38	Triplet	23	23	1319	5	0	0	1110373	692	0	correct_rejection	NA	0
38	Triplet	24	24	1320	6	0	0	1111081	692	0	correct_rejection	NA	0
38	Triplet	25	25	1321	0	1	2	1111790	692	1	hit	372	0
38	Triplet	26	26	1322	7	0	0	1112499	691	0	correct_rejection	NA	0
38	Triplet	27	27	1323	8	0	0	1113207	692	0	correct_rejection	NA	0
38	Triplet	28	28	1324	9	0	0	1113916	691	0	correct_rejection	NA	0
38	Triplet	29	29	1325	9	0	0	1114624	692	0	correct_rejection	NA	0
38	Triplet	30	30	1326	8	0	0	1115333	691	0	correct_rejection	NA	0
38	Triplet	31	31	1327	7	0	0	1116041	692	0	correct_rejection	NA	0
38	Triplet	32	32	1328	7	0	0	1116750	692	0	correct_rejection	NA	0
38	Triplet	33	33	1329	8	0	0	1117458	692	0	correct_rejection	NA	0
38	Triplet	34	34	1330	9	0	0	1118167	692	0	correct_rejection	NA	0
38	Triplet	35	35	1331	6	0	0	1118876	691	0	correct_rejection	NA	0
38	Triplet	36	36	1332	5	0	0	1119584	692	0	correct_rejection	NA	0
38	Triplet	37	37	1333	4	0	0	1120293	691	0	correct_rejection	NA	0
38	Triplet	38	38	1334	6	0	0	1121001	692	0	correct_rejection	NA	0
38	Triplet	39	39	1335	5	0	0	1121710	692	0	correct_rejection	NA	0
38	Triplet	40	40	1336	4	0	0	1122418	692	0	correct_rejection	NA	0
38	Triplet	41	41	1337	9	0	0	1123127	692	0	correct_rejection	NA	0
38	Triplet	42	42	1338	8	0	0	1123836	691	0	correct_rejection	NA	0
38	Triplet	43	43	1339	7	0	0	1124544	692	0	correct_rejection	NA	0
38	Triplet	44	44	1340	9	0	0	1125253	691	0	correct_rejection	NA	0
38	Triplet	45	45	1341	8	0	0	1125961	692	0	correct_rejection	NA	0
38	Triplet	46	46	1342	7	0	0	1126670	692	0	correct_rejection	NA	0
38	Triplet	47	47	1343	0	1	2	1127378	692	1	hit	564	0
38	Triplet	48	48	1344	4	0	0	1128087	692	0	correct_rejection	NA	0
38	Triplet	49	49	1345	5	0	0	1128796	691	0	correct_rejection	NA	0
38	Triplet	50	50	1346	0	1	1	1129504	692	0	miss	NA	0
38	Triplet	51	51	1347	6	0	0	1130213	691	0	correct_rejection	NA	0
38	Triplet	52	52	1348	4	0	0	1130921	692	0	correct_rejection	NA	0
38	Triplet	53	53	1349	5	0	0	1131630	691	0	correct_rejection	NA	0
38	Triplet	54	54	1350	6	0	0	1132338	692	0	correct_rejection	NA	0
38	Triplet	55	55	1351	9	0	0	1133047	692	0	correct_rejection	NA	0
38	Triplet	56	56	1352	8	0	0	1133756	691	0	correct_rejection	NA	0
38	Triplet	57	57	1353	7	0	0	1134464	692	0	correct_rejection	NA	0
38	Triplet	58	58	1354	4	0	0	1135173	691	0	correct_rejection	NA	0
38	Triplet	59	59	1355	5	0	0	1135881	692	0	correct_rejection	NA	0
38	Triplet	60	60	1356	6	0	0	1136590	691	0	correct_rejection	NA	0
38	Triplet	61	61	1357	0	1	2	1137298	692	1	hit	438	0
38	Triplet	62	62	1358	6	0	0	1138007	692	0	correct_rejection	NA	0
38	Triplet	63	63	1359	5	0	0	1138715	692	0	correct_rejection	NA	0
38	Triplet	64	64	1360	0	1	1	1139424	692	1	hit	389	0
38	Triplet	65	65	1361	4	0	0	1140133	691	0	correct_rejection	NA	0
38	Triplet	66	66	1362	6	0	0	1140841	692	0	correct_rejection	NA	0
38	Triplet	67	67	1363	5	0	0	1141550	691	0	correct_rejection	NA	0
38	Triplet	68	68	1364	4	0	0	1142258	692	0	correct_rejection	NA	0
38	Triplet	69	69	1365	0	1	2	1142967	692	1	hit	362	0
38	Triplet	70	70	1366	7	0	0	1143675	692	0	correct_rejection	NA	0
38	Triplet	71	71	1367	8	0	0	1144384	692	0	correct_rejection	NA	0
38	Triplet	72	72	1368	0	1	1	1145093	691	1	hit	475	0
38	Triplet	73	73	1369	9	0	0	1145801	692	0	correct_rejection	NA	0
38	Triplet	74	74	1370	4	0	0	1146510	691	0	correct_rejection	NA	0
38	Triplet	75	75	1371	0	1	1	1147218	692	1	hit	438	0
38	Triplet	76	76	1372	5	0	0	1147927	692	0	correct_rejection	NA	0
38	Triplet	77	77	1373	6	0	0	1148635	692	0	correct_rejection	NA	0
38	Triplet	78	78	1374	9	0	0	1149344	692	0	correct_rejection	NA	0
38	Triplet	79	79	1375	8	0	0	1150053	691	0	correct_rejection	NA	0
38	Triplet	80	80	1376	7	0	0	1150761	692	0	correct_rejection	NA	0
38	Triplet	81	81	1377	7	0	0	1151470	691	0	correct_rejection	NA	0
38	Triplet	82	82	1378	8	0	0	1152178	692	0	correct_rejection	NA	0
38	Triplet	83	83	1379	9	0	0	1152887	691	0	correct_rejection	NA	0
38	Triplet	84	84	1380	0	1	2	1153595	692	1	hit	431	0
38	Triplet	85	85	1381	9	0	0	1154304	692	0	correct_rejection	NA	0
38	Triplet	86	86	1382	8	0	0	1155012	692	0	correct_rejection	NA	0
38	Triplet	87	87	1383	7	0	0	1155721	692	0	correct_rejection	NA	0
38	Triplet	88	88	1384	6	0	0	1156430	691	0	correct_rejection	NA	0
38	Triplet	89	89	1385	5	0	0	1157138	692	0	correct_rejection	NA	0
38	Triplet	90	90	1386	4	0	0	1157847	691	0	correct_rejection	NA	0
38	Triplet	91	91	1387	4	0	0	1158555	692	0	correct_rejection	NA	0
38	Triplet	92	92	1388	5	0	0	1159264	692	0	correct_rejection	NA	0
38	Triplet	93	93	1389	6	0	0	1159972	692	0	correct_rejection	NA	0
38	Triplet	94	94	1390	4	0	0	1160681	692	0	correct_rejection	NA	0
38	Triplet	95	95	1391	0	1	1	1161390	691	1	hit	525	0
38	Triplet	96	96	1392	5	0	0	1162098	692	0	correct_rejection	NA	0
38	Triplet	97	97	1393	6	0	0	1162807	691	0	correct_rejection	NA	0
38	Triplet	98	98	1394	7	0	0	1163515	692	0	correct_rejection	NA	0
38	Triplet	99	99	1395	8	0	0	1164224	692	0	correct_rejection	NA	0
38	Triplet	100	100	1396	9	0	0	1164932	692	0	correct_rejection	NA	0
38	Triplet	101	101	1397	7	0	0	1165641	692	0	correct_rejection	NA	0
38	Triplet	102	102	1398	8	0	0	1166350	691	0	correct_rejection	NA	0
38	Triplet	103	103	1399	9	0	0	1167058	692	0	correct_rejection	NA	0
38	Triplet	104	104	1400	6	0	0	1167767	691	0	correct_rejection	NA	0
38	Triplet	105	105	1401	5	0	0	1168475	692	0	correct_rejection	NA	0
38	Triplet	106	106	1402	4	0	0	1169184	692	0	correct_rejection	NA	0
38	Triplet	107	107	1403	9	0	0	1169892	692	0	correct_rejection	NA	0
38	Triplet	108	108	1404	8	0	0	1170601	692	0	correct_rejection	NA	0
38	Triplet	109	109	1405	0	1	1	1171310	691	1	hit	597	0
38	Triplet	110	110	1406	7	0	0	1172018	692	0	correct_rejection	NA	0
38	Triplet	111	111	1407	7	0	0	1172727	691	0	correct_rejection	NA	0
38	Triplet	112	112	1408	8	0	0	1173435	692	0	correct_rejection	NA	0
38	Triplet	113	113	1409	9	0	0	1174144	691	0	correct_rejection	NA	0
38	Triplet	114	114	1410	4	0	0	1174852	692	0	correct_rejection	NA	0
38	Triplet	115	115	1411	5	0	0	1175561	692	0	correct_rejection	NA	0
38	Triplet	116	116	1412	6	0	0	1176269	692	0	correct_rejection	NA	0
38	Triplet	117	117	1413	4	0	0	1176978	692	0	correct_rejection	NA	0
38	Triplet	118	118	1414	5	0	0	1177687	691	0	correct_rejection	NA	0
38	Triplet	119	119	1415	6	0	0	1178395	692	0	correct_rejection	NA	0
38	Triplet	120	120	1416	0	1	2	1179104	691	1	hit	545	0
38	Triplet	121	121	1417	9	0	0	1179812	692	0	correct_rejection	NA	0
38	Triplet	122	122	1418	8	0	0	1180521	692	0	correct_rejection	NA	0
38	Triplet	123	123	1419	7	0	0	1181229	692	0	correct_rejection	NA	0
38	Triplet	124	124	1420	4	0	0	1181938	692	0	correct_rejection	NA	0
38	Triplet	125	125	1421	5	0	0	1182647	691	0	correct_rejection	NA	0
38	Triplet	126	126	1422	6	0	0	1183355	692	0	correct_rejection	NA	0
38	Triplet	127	127	1423	7	0	0	1184064	691	0	correct_rejection	NA	0
38	Triplet	128	128	1424	8	0	0	1184772	692	0	correct_rejection	NA	0
38	Triplet	129	129	1425	0	1	1	1185481	692	1	hit	519	0
38	Triplet	130	130	1426	9	0	0	1186189	692	0	correct_rejection	NA	0
38	Triplet	131	131	1427	6	0	0	1186898	692	0	correct_rejection	NA	0
38	Triplet	132	132	1428	5	0	0	1187607	691	0	correct_rejection	NA	0
38	Triplet	133	133	1429	4	0	0	1188315	692	0	correct_rejection	NA	0
38	Triplet	134	134	1430	0	1	2	1189024	691	1	hit	493	0
38	Triplet	135	135	1431	4	0	0	1189732	692	0	correct_rejection	NA	0
38	Triplet	136	136	1432	5	0	0	1190441	691	0	correct_rejection	NA	0
38	Triplet	137	137	1433	6	0	0	1191149	692	0	correct_rejection	NA	0
38	Triplet	138	138	1434	6	0	0	1191858	692	0	correct_rejection	NA	0
38	Triplet	139	139	1435	5	0	0	1192566	692	0	correct_rejection	NA	0
38	Triplet	140	140	1436	4	0	0	1193275	692	0	correct_rejection	NA	0
38	Triplet	141	141	1437	9	0	0	1193984	691	0	correct_rejection	NA	0
38	Triplet	142	142	1438	8	0	0	1194692	692	0	correct_rejection	NA	0
38	Triplet	143	143	1439	7	0	0	1195401	691	0	correct_rejection	NA	0
38	Triplet	144	144	1440	7	0	0	1196109	692	0	correct_rejection	NA	0
38	Triplet	145	145	1441	8	0	0	1196818	692	0	correct_rejection	NA	0
38	Triplet	146	146	1442	9	0	0	1197526	692	0	correct_rejection	NA	0
38	Triplet	147	147	1443	7	0	0	1198235	692	0	correct_rejection	NA	0
38	Triplet	148	148	1444	8	0	0	1198944	691	0	correct_rejection	NA	0
38	Triplet	149	149	1445	9	0	0	1199652	692	0	correct_rejection	NA	0
38	Triplet	150	150	1446	9	0	0	1200361	691	0	correct_rejection	NA	0
38	Triplet	151	151	1447	0	1	1	1201069	692	0	miss	NA	0
38	Triplet	152	152	1448	8	0	0	1201778	692	1	false_alarm	201	0
38	Triplet	153	153	1449	7	0	0	1202486	692	0	correct_rejection	NA	0
38	Triplet	154	154	1450	9	0	0	1203195	692	0	correct_rejection	NA	0
38	Triplet	155	155	1451	8	0	0	1203904	691	0	correct_rejection	NA	0
38	Triplet	156	156	1452	7	0	0	1204612	692	0	correct_rejection	NA	0
38	Triplet	157	157	1453	6	0	0	1205321	691	0	correct_rejection	NA	0
38	Triplet	158	158	1454	5	0	0	1206029	692	0	correct_rejection	NA	0
38	Triplet	159	159	1455	4	0	0	1206738	692	0	correct_rejection	NA	0
38	Triplet	160	160	1456	6	0	0	1207446	692	0	correct_rejection	NA	0
38	Triplet	161	161	1457	5	0	0	1208155	692	0	correct_rejection	NA	0
38	Triplet	162	162	1458	4	0	0	1208864	691	0	correct_rejection	NA	0
38	Correct	1	649	1459	4	0	0	1218892	692	0	correct_rejection	NA	7949
38	Correct	2	650	1460	5	0	0	1219600	692	0	correct_rejection	NA	0
38	Correct	3	651	1461	6	0	0	1220309	692	0	correct_rejection	NA	0
38	Correct	4	652	1462	4	0	0	1221018	691	0	correct_rejection	NA	0
38	Correct	5	653	1463	5	0	0	1221726	692	0	correct_rejection	NA	0
38	Correct	6	654	1464	6	0	0	1222435	691	0	correct_rejection	NA	0
38	Correct	7	655	1465	4	0	0	1223143	692	0	correct_rejection	NA	0
38	Correct	8	656	1466	5	0	0	1223852	691	0	correct_rejection	NA	0
38	Correct	9	657	1467	6	0	0	1224560	692	0	correct_rejection	NA	0
38	Correct	10	658	1468	6	0	0	1225269	692	0	correct_rejection	NA	0
38	Correct	11	659	1469	5	0	0	1225977	692	0	correct_rejection	NA	0
38	Correct	12	660	1470	4	0	0	1226686	692	0	correct_rejection	NA	0
38	Correct	13	661	1471	6	0	0	1227395	691	0	correct_rejection	NA	0
38	Correct	14	662	1472	5	0	0	1228103	692	0	correct_rejection	NA	0
38	Correct	15	663	1473	4	0	0	1228812	691	0	correct_rejection	NA	0
38	Correct	16	664	1474	6	0	0	1229520	692	0	correct_rejection	NA	0
38	Correct	17	665	1475	5	0	0	1230229	692	0	correct_rejection	NA	0
38	Correct	18	666	1476	4	0	0	1230937	692	0	correct_rejection	NA	0
38	Correct	19	667	1477	9	0	0	1231646	692	0	correct_rejection	NA	0
38	Correct	20	668	1478	8	0	0	1232355	691	0	correct_rejection	NA	0
38	Correct	21	669	1479	7	0	0	1233063	692	0	correct_rejection	NA	0
38	Correct	22	670	1480	0	1	2	1233772	691	1	hit	448	0
38	Correct	23	671	1481	9	0	0	1234480	692	0	correct_rejection	NA	0
38	Correct	24	672	1482	8	0	0	1235189	692	0	correct_rejection	NA	0
38	Correct	25	673	1483	7	0	0	1235897	692	0	correct_rejection	NA	0
38	Correct	26	674	1484	9	0	0	1236606	692	0	correct_rejection	NA	0
38	Correct	27	675	1485	8	0	0	1237315	691	0	correct_rejection	NA	0
38	Correct	28	676	1486	7	0	0	1238023	692	0	correct_rejection	NA	0
38	Correct	29	677	1487	7	0	0	1238732	691	0	correct_rejection	NA	0
38	Correct	30	678	1488	8	0	0	1239440	692	0	correct_rejection	NA	0
38	Correct	31	679	1489	9	0	0	1240149	691	0	correct_rejection	NA	0
38	Correct	32	680	1490	7	0	0	1240857	692	0	correct_rejection	NA	0
38	Correct	33	681	1491	8	0	0	1241566	692	0	correct_rejection	NA	0
38	Correct	34	682	1492	9	0	0	1242275	691	0	correct_rejection	NA	0
38	Correct	35	683	1493	0	1	2	1242983	692	1	hit	439	0
38	Correct	36	684	1494	7	0	0	1243692	691	0	correct_rejection	NA	0
38	Correct	37	685	1495	8	0	0	1244400	692	0	correct_rejection	NA	0
38	Correct	38	686	1496	9	0	0	1245109	691	0	correct_rejection	NA	0
38	Correct	39	687	1497	0	1	4	1245817	692	1	hit	538	0
38	Correct	40	688	1498	4	0	0	1246526	692	0	correct_rejection	NA	0
38	Correct	41	689	1499	5	0	0	1247234	692	0	correct_rejection	NA	0
38	Correct	42	690	1500	6	0	0	1247943	692	0	correct_rejection	NA	0
38	Correct	43	691	1501	4	0	0	1248652	691	0	correct_rejection	NA	0
38	Correct	44	692	1502	0	1	1	1249360	692	1	hit	433	0
38	Correct	45	693	1503	5	0	0	1250069	691	0	correct_rejection	NA	0
38	Correct	46	694	1504	6	0	0	1250777	692	0	correct_rejection	NA	0
38	Correct	47	695	1505	4	0	0	1251486	692	0	correct_rejection	NA	0
38	Correct	48	696	1506	5	0	0	1252194	692	0	correct_rejection	NA	0
38	Correct	49	697	1507	6	0	0	1252903	692	0	correct_rejection	NA	0
38	Correct	50	698	1508	6	0	0	1253612	691	0	correct_rejection	NA	0
38	Correct	51	699	1509	5	0	0	1254320	692	0	correct_rejection	NA	0
38	Correct	52	700	1510	4	0	0	1255029	691	0	correct_rejection	NA	0
38	Correct	53	701	1511	6	0	0	1255737	692	0	correct_rejection	NA	0
38	Correct	54	702	1512	5	0	0	1256446	692	0	correct_rejection	NA	0
38	Correct	55	703	1513	4	0	0	1257154	692	0	correct_rejection	NA	0
38	Correct	56	704	1514	6	0	0	1257863	692	0	correct_rejection	NA	0
38	Correct	57	705	1515	5	0	0	1258572	691	0	correct_rejection	NA	0
38	Correct	58	706	1516	0	1	1	1259280	692	0	miss	NA	0
38	Correct	59	707	1517	4	0	0	1259989	691	1	false_alarm	147	0
38	Correct	60	708	1518	9	0	0	1260697	692	0	correct_rejection	NA	0
38	Correct	61	709	1519	8	0	0	1261406	691	0	correct_rejection	NA	0
38	Correct	62	710	1520	7	0	0	1262114	692	0	correct_rejection	NA	0
38	Correct	63	711	1521	9	0	0	1262823	692	0	correct_rejection	NA	0
38	Correct	64	712	1522	0	1	1	1263531	692	1	hit	377	0
38	Correct	65	713	1523	8	0	0	1264240	692	0	correct_rejection	NA	0
38	Correct	66	714	1524	7	0	0	1264949	691	0	correct_rejection	NA	0
38	Correct	67	715	1525	9	0	0	1265657	692	0	correct_rejection	NA	0
38	Correct	68	716	1526	8	0	0	1266366	691	0	correct_rejection	NA	0
38	Correct	69	717	1527	7	0	0	1267074	692	0	correct_rejection	NA	0
38	Correct	70	718	1528	7	0	0	1267783	692	0	correct_rejection	NA	0
38	Correct	71	719	1529	8	0	0	1268491	692	0	correct_rejection	NA	0
38	Correct	72	720	1530	9	0	0	1269200	692	0	correct_rejection	NA	0
38	Correct	73	721	1531	7	0	0	1269909	691	0	correct_rejection	NA	0
38	Correct	74	722	1532	8	0	0	1270617	692	0	correct_rejection	NA	0
38	Correct	75	723	1533	9	0	0	1271326	691	0	correct_rejection	NA	0
38	Correct	76	724	1534	7	0	0	1272034	692	0	correct_rejection	NA	0
38	Correct	77	725	1535	0	1	1	1272743	692	1	hit	509	0
38	Correct	78	726	1536	8	0	0	1273451	692	0	correct_rejection	NA	0
38	Correct	79	727	1537	9	0	0	1274160	692	0	correct_rejection	NA	0
38	Correct	80	728	1538	4	0	0	1274869	691	0	correct_rejection	NA	0
38	Correct	81	729	1539	5	0	0	1275577	692	0	correct_rejection	NA	0
38	Correct	82	730	1540	6	0	0	1276286	691	0	correct_rejection	NA	0
38	Correct	83	731	1541	4	0	0	1276994	692	0	correct_rejection	NA	0
38	Correct	84	732	1542	5	0	0	1277703	692	0	correct_rejection	NA	0
38	Correct	85	733	1543	6	0	0	1278411	692	0	correct_rejection	NA	0
38	Correct	86	734	1544	4	0	0	1279120	692	0	correct_rejection	NA	0
38	Correct	87	735	1545	5	0	0	1279829	691	0	correct_rejection	NA	0
38	Correct	88	736	1546	6	0	0	1280537	692	0	correct_rejection	NA	0
38	Correct	89	737	1547	6	0	0	1281246	691	0	correct_rejection	NA	0
38	Correct	90	738	1548	5	0	0	1281954	692	0	correct_rejection	NA	0
38	Correct	91	739	1549	4	0	0	1282663	691	0	correct_rejection	NA	0
38	Correct	92	740	1550	6	0	0	1283371	692	0	correct_rejection	NA	0
38	Correct	93	741	1551	0	1	1	1284080	692	1	hit	453	0
38	Correct	94	742	1552	5	0	0	1284788	692	0	correct_rejection	NA	0
38	Correct	95	743	1553	4	0	0	1285497	692	0	correct_rejection	NA	0
38	Correct	96	744	1554	6	0	0	1286206	691	0	correct_rejection	NA	0
38	Correct	97	745	1555	5	0	0	1286914	692	0	correct_rejection	NA	0
38	Correct	98	746	1556	4	0	0	1287623	691	0	correct_rejection	NA	0
38	Correct	99	747	1557	0	1	3	1288331	692	1	hit	436	0
38	Correct	100	748	1558	9	0	0	1289040	692	0	correct_rejection	NA	0
38	Correct	101	749	1559	8	0	0	1289748	692	0	correct_rejection	NA	0
38	Correct	102	750	1560	7	0	0	1290457	692	0	correct_rejection	NA	0
38	Correct	103	751	1561	9	0	0	1291166	691	0	correct_rejection	NA	0
38	Correct	104	752	1562	8	0	0	1291874	692	0	correct_rejection	NA	0
38	Correct	105	753	1563	7	0	0	1292583	691	0	correct_rejection	NA	0
38	Correct	106	754	1564	9	0	0	1293291	692	0	correct_rejection	NA	0
38	Correct	107	755	1565	8	0	0	1294000	692	0	correct_rejection	NA	0
38	Correct	108	756	1566	7	0	0	1294708	692	0	correct_rejection	NA	0
38	Correct	109	757	1567	0	1	3	1295417	692	1	hit	664	0
38	Correct	110	758	1568	7	0	0	1296126	691	0	correct_rejection	NA	0
38	Correct	111	759	1569	8	0	0	1296834	692	0	correct_rejection	NA	0
38	Correct	112	760	1570	9	0	0	1297543	691	0	correct_rejection	NA	0
38	Correct	113	761	1571	0	1	2	1298251	692	1	hit	374	0
38	Correct	114	762	1572	7	0	0	1298960	691	0	correct_rejection	NA	0
38	Correct	115	763	1573	8	0	0	1299668	692	0	correct_rejection	NA	0
38	Correct	116	764	1574	9	0	0	1300377	692	0	correct_rejection	NA	0
38	Correct	117	765	1575	7	0	0	1301086	691	0	correct_rejection	NA	0
38	Correct	118	766	1576	8	0	0	1301794	692	0	correct_rejection	NA	0
38	Correct	119	767	1577	9	0	0	1302503	691	0	correct_rejection	NA	0
38	Correct	120	768	1578	4	0	0	1303211	692	0	correct_rejection	NA	0
38	Correct	121	769	1579	0	1	1	1303920	691	1	hit	360	0
38	Correct	122	770	1580	5	0	0	1304628	692	0	correct_rejection	NA	0
38	Correct	123	771	1581	6	0	0	1305337	692	0	correct_rejection	NA	0
38	Correct	124	772	1582	4	0	0	1306045	692	0	correct_rejection	NA	0
38	Correct	125	773	1583	5	0	0	1306754	692	0	correct_rejection	NA	0
38	Correct	126	774	1584	0	1	1	1307463	691	1	hit	506	0
38	Correct	127	775	1585	6	0	0	1308171	692	0	correct_rejection	NA	0
38	Correct	128	776	1586	4	0	0	1308880	691	0	correct_rejection	NA	0
38	Correct	129	777	1587	5	0	0	1309588	692	0	correct_rejection	NA	0
38	Correct	130	778	1588	6	0	0	1310297	692	0	correct_rejection	NA	0
38	Correct	131	779	1589	6	0	0	1311005	692	0	correct_rejection	NA	0
38	Correct	132	780	1590	5	0	0	1311714	692	0	correct_rejection	NA	0
38	Correct	133	781	1591	0	1	1	1312423	691	1	hit	429	0
38	Correct	134	782	1592	4	0	0	1313131	692	0	correct_rejection	NA	0
38	Correct	135	783	1593	6	0	0	1313840	691	0	correct_rejection	NA	0
38	Correct	136	784	1594	0	1	1	1314548	692	1	hit	489	0
