ID	block	trial_block	trial_cat	trial_total	number	violation	level_violation	onset	duration	Response	Hit_Miss	RT	pre_trial_fixcross_ISI
first_trigger_at: 11142
trigger nr 3 at 13142
39	Nonet	1	487	1	7	0	0	20833	683	0	correct_rejection	NA	7626
39	Nonet	2	488	2	8	0	0	21549	684	0	correct_rejection	NA	0
39	Nonet	3	489	3	9	0	0	22266	683	0	correct_rejection	NA	0
39	Nonet	4	490	4	0	1	2	22983	683	1	hit	387	0
39	Nonet	5	491	5	7	0	0	23699	684	0	correct_rejection	NA	0
39	Nonet	6	492	6	8	0	0	24416	683	0	correct_rejection	NA	0
39	Nonet	7	493	7	9	0	0	25132	684	0	correct_rejection	NA	0
39	Nonet	8	494	8	7	0	0	25849	684	0	correct_rejection	NA	0
39	Nonet	9	495	9	8	0	0	26566	683	0	correct_rejection	NA	0
39	Nonet	10	496	10	9	0	0	27282	684	0	correct_rejection	NA	0
39	Nonet	11	497	11	7	0	0	27999	683	0	correct_rejection	NA	0
39	Nonet	12	498	12	8	0	0	28716	683	0	correct_rejection	NA	0
39	Nonet	13	499	13	0	1	1	29432	684	1	hit	470	0
39	Nonet	14	500	14	9	0	0	30149	683	0	correct_rejection	NA	0
39	Nonet	15	501	15	7	0	0	30866	683	0	correct_rejection	NA	0
39	Nonet	16	502	16	0	1	1	31582	684	1	hit	464	0
39	Nonet	17	503	17	8	0	0	32299	683	0	correct_rejection	NA	0
39	Nonet	18	504	18	9	0	0	33016	683	0	correct_rejection	NA	0
39	Nonet	19	505	19	7	0	0	33732	684	0	correct_rejection	NA	0
39	Nonet	20	506	20	8	0	0	34449	683	0	correct_rejection	NA	0
39	Nonet	21	507	21	9	0	0	35166	683	0	correct_rejection	NA	0
39	Nonet	22	508	22	9	0	0	35882	684	0	correct_rejection	NA	0
39	Nonet	23	509	23	8	0	0	36599	683	0	correct_rejection	NA	0
39	Nonet	24	510	24	7	0	0	37316	683	0	correct_rejection	NA	0
39	Nonet	25	511	25	9	0	0	38032	684	0	correct_rejection	NA	0
39	Nonet	26	512	26	8	0	0	38749	683	0	correct_rejection	NA	0
39	Nonet	27	513	27	7	0	0	39466	683	0	correct_rejection	NA	0
39	Nonet	28	514	28	9	0	0	40182	684	0	correct_rejection	NA	0
39	Nonet	29	515	29	0	1	1	40899	683	1	hit	446	0
39	Nonet	30	516	30	8	0	0	41616	683	0	correct_rejection	NA	0
39	Nonet	31	517	31	7	0	0	42332	684	0	correct_rejection	NA	0
39	Nonet	32	518	32	9	0	0	43049	683	0	correct_rejection	NA	0
39	Nonet	33	519	33	8	0	0	43766	683	0	correct_rejection	NA	0
39	Nonet	34	520	34	7	0	0	44482	684	0	correct_rejection	NA	0
39	Nonet	35	521	35	9	0	0	45199	683	0	correct_rejection	NA	0
39	Nonet	36	522	36	0	1	1	45916	683	1	hit	510	0
39	Nonet	37	523	37	8	0	0	46632	684	0	correct_rejection	NA	0
39	Nonet	38	524	38	7	0	0	47349	683	0	correct_rejection	NA	0
39	Nonet	39	525	39	9	0	0	48066	683	0	correct_rejection	NA	0
39	Nonet	40	526	40	8	0	0	48782	684	0	correct_rejection	NA	0
39	Nonet	41	527	41	7	0	0	49499	683	0	correct_rejection	NA	0
39	Nonet	42	528	42	4	0	0	50216	683	0	correct_rejection	NA	0
39	Nonet	43	529	43	5	0	0	50932	684	0	correct_rejection	NA	0
39	Nonet	44	530	44	6	0	0	51649	683	0	correct_rejection	NA	0
39	Nonet	45	531	45	4	0	0	52366	683	0	correct_rejection	NA	0
39	Nonet	46	532	46	5	0	0	53082	684	0	correct_rejection	NA	0
39	Nonet	47	533	47	0	1	1	53799	683	1	hit	511	0
39	Nonet	48	534	48	6	0	0	54515	684	0	correct_rejection	NA	0
39	Nonet	49	535	49	4	0	0	55232	683	0	correct_rejection	NA	0
39	Nonet	50	536	50	5	0	0	55949	683	0	correct_rejection	NA	0
39	Nonet	51	537	51	6	0	0	56665	684	0	correct_rejection	NA	0
39	Nonet	52	538	52	6	0	0	57382	683	0	correct_rejection	NA	0
39	Nonet	53	539	53	5	0	0	58099	683	0	correct_rejection	NA	0
39	Nonet	54	540	54	4	0	0	58815	684	0	correct_rejection	NA	0
39	Nonet	55	541	55	6	0	0	59532	683	0	correct_rejection	NA	0
39	Nonet	56	542	56	5	0	0	60249	683	0	correct_rejection	NA	0
39	Nonet	57	543	57	4	0	0	60965	684	0	correct_rejection	NA	0
39	Nonet	58	544	58	6	0	0	61682	683	0	correct_rejection	NA	0
39	Nonet	59	545	59	5	0	0	62399	683	0	correct_rejection	NA	0
39	Nonet	60	546	60	4	0	0	63115	684	0	correct_rejection	NA	0
39	Nonet	61	547	61	4	0	0	63832	683	0	correct_rejection	NA	0
39	Nonet	62	548	62	5	0	0	64549	683	0	correct_rejection	NA	0
39	Nonet	63	549	63	6	0	0	65265	684	0	correct_rejection	NA	0
39	Nonet	64	550	64	4	0	0	65982	683	0	correct_rejection	NA	0
39	Nonet	65	551	65	5	0	0	66699	683	0	correct_rejection	NA	0
39	Nonet	66	552	66	6	0	0	67415	684	0	correct_rejection	NA	0
39	Nonet	67	553	67	0	1	2	68132	683	1	hit	496	0
39	Nonet	68	554	68	4	0	0	68849	683	0	correct_rejection	NA	0
39	Nonet	69	555	69	5	0	0	69565	684	0	correct_rejection	NA	0
39	Nonet	70	556	70	6	0	0	70282	683	0	correct_rejection	NA	0
39	Nonet	71	557	71	7	0	0	70999	683	0	correct_rejection	NA	0
39	Nonet	72	558	72	8	0	0	71715	684	0	correct_rejection	NA	0
39	Nonet	73	559	73	9	0	0	72432	683	0	correct_rejection	NA	0
39	Nonet	74	560	74	7	0	0	73149	683	0	correct_rejection	NA	0
39	Nonet	75	561	75	8	0	0	73865	684	0	correct_rejection	NA	0
39	Nonet	76	562	76	9	0	0	74582	683	0	correct_rejection	NA	0
39	Nonet	77	563	77	7	0	0	75299	683	0	correct_rejection	NA	0
39	Nonet	78	564	78	8	0	0	76015	684	0	correct_rejection	NA	0
39	Nonet	79	565	79	9	0	0	76732	683	0	correct_rejection	NA	0
39	Nonet	80	566	80	6	0	0	77449	683	0	correct_rejection	NA	0
39	Nonet	81	567	81	5	0	0	78165	684	0	correct_rejection	NA	0
39	Nonet	82	568	82	0	1	1	78882	683	1	hit	510	0
39	Nonet	83	569	83	4	0	0	79599	683	0	correct_rejection	NA	0
39	Nonet	84	570	84	6	0	0	80315	684	0	correct_rejection	NA	0
39	Nonet	85	571	85	5	0	0	81032	683	0	correct_rejection	NA	0
39	Nonet	86	572	86	4	0	0	81748	684	0	correct_rejection	NA	0
39	Nonet	87	573	87	0	1	2	82465	684	1	hit	491	0
39	Nonet	88	574	88	6	0	0	83182	683	0	correct_rejection	NA	0
39	Nonet	89	575	89	5	0	0	83898	684	0	correct_rejection	NA	0
39	Nonet	90	576	90	4	0	0	84615	683	0	correct_rejection	NA	0
39	Nonet	91	577	91	9	0	0	85332	683	0	correct_rejection	NA	0
39	Nonet	92	578	92	8	0	0	86048	684	0	correct_rejection	NA	0
39	Nonet	93	579	93	7	0	0	86765	683	0	correct_rejection	NA	0
39	Nonet	94	580	94	9	0	0	87482	683	0	correct_rejection	NA	0
39	Nonet	95	581	95	8	0	0	88198	684	0	correct_rejection	NA	0
39	Nonet	96	582	96	7	0	0	88915	683	0	correct_rejection	NA	0
39	Nonet	97	583	97	0	1	2	89632	683	1	hit	457	0
39	Nonet	98	584	98	9	0	0	90348	684	0	correct_rejection	NA	0
39	Nonet	99	585	99	8	0	0	91065	683	0	correct_rejection	NA	0
39	Nonet	100	586	100	7	0	0	91782	683	0	correct_rejection	NA	0
39	Nonet	101	587	101	6	0	0	92498	684	0	correct_rejection	NA	0
39	Nonet	102	588	102	5	0	0	93215	683	0	correct_rejection	NA	0
39	Nonet	103	589	103	0	1	1	93932	683	1	hit	530	0
39	Nonet	104	590	104	4	0	0	94648	684	0	correct_rejection	NA	0
39	Nonet	105	591	105	6	0	0	95365	683	0	correct_rejection	NA	0
39	Nonet	106	592	106	5	0	0	96082	683	0	correct_rejection	NA	0
39	Nonet	107	593	107	4	0	0	96798	684	0	correct_rejection	NA	0
39	Nonet	108	594	108	6	0	0	97515	683	0	correct_rejection	NA	0
39	Nonet	109	595	109	5	0	0	98232	683	0	correct_rejection	NA	0
39	Nonet	110	596	110	4	0	0	98948	684	0	correct_rejection	NA	0
39	Nonet	111	597	111	6	0	0	99665	683	0	correct_rejection	NA	0
39	Nonet	112	598	112	5	0	0	100382	683	0	correct_rejection	NA	0
39	Nonet	113	599	113	4	0	0	101098	684	0	correct_rejection	NA	0
39	Nonet	114	600	114	6	0	0	101815	683	0	correct_rejection	NA	0
39	Nonet	115	601	115	5	0	0	102532	683	0	correct_rejection	NA	0
39	Nonet	116	602	116	4	0	0	103248	684	0	correct_rejection	NA	0
39	Nonet	117	603	117	6	0	0	103965	683	0	correct_rejection	NA	0
39	Nonet	118	604	118	0	1	1	104682	683	1	hit	428	0
39	Nonet	119	605	119	5	0	0	105398	684	0	correct_rejection	NA	0
39	Nonet	120	606	120	4	0	0	106115	683	0	correct_rejection	NA	0
39	Nonet	121	607	121	7	0	0	106832	683	0	correct_rejection	NA	0
39	Nonet	122	608	122	8	0	0	107548	684	0	correct_rejection	NA	0
39	Nonet	123	609	123	0	1	1	108265	683	0	miss	NA	0
39	Nonet	124	610	124	9	0	0	108981	684	1	false_alarm	0	0
39	Nonet	125	611	125	7	0	0	109698	684	0	correct_rejection	NA	0
39	Nonet	126	612	126	0	1	1	110415	683	1	hit	542	0
39	Nonet	127	613	127	8	0	0	111131	684	0	correct_rejection	NA	0
39	Nonet	128	614	128	9	0	0	111848	683	0	correct_rejection	NA	0
39	Nonet	129	615	129	0	1	2	112565	683	1	hit	408	0
39	Nonet	130	616	130	7	0	0	113281	684	0	correct_rejection	NA	0
39	Nonet	131	617	131	8	0	0	113998	683	0	correct_rejection	NA	0
39	Nonet	132	618	132	9	0	0	114715	683	0	correct_rejection	NA	0
39	Nonet	133	619	133	4	0	0	115431	684	0	correct_rejection	NA	0
39	Nonet	134	620	134	5	0	0	116148	683	0	correct_rejection	NA	0
39	Nonet	135	621	135	6	0	0	116865	683	0	correct_rejection	NA	0
39	Nonet	136	622	136	4	0	0	117581	684	0	correct_rejection	NA	0
39	Nonet	137	623	137	5	0	0	118298	683	0	correct_rejection	NA	0
39	Nonet	138	624	138	6	0	0	119015	683	0	correct_rejection	NA	0
39	Nonet	139	625	139	4	0	0	119731	684	0	correct_rejection	NA	0
39	Nonet	140	626	140	5	0	0	120448	683	0	correct_rejection	NA	0
39	Nonet	141	627	141	6	0	0	121165	683	0	correct_rejection	NA	0
39	Nonet	142	628	142	4	0	0	121881	684	0	correct_rejection	NA	0
39	Nonet	143	629	143	5	0	0	122598	683	0	correct_rejection	NA	0
39	Nonet	144	630	144	6	0	0	123315	683	0	correct_rejection	NA	0
39	Nonet	145	631	145	4	0	0	124031	684	0	correct_rejection	NA	0
39	Nonet	146	632	146	0	1	1	124748	683	1	hit	444	0
39	Nonet	147	633	147	5	0	0	125465	683	0	correct_rejection	NA	0
39	Nonet	148	634	148	6	0	0	126181	684	0	correct_rejection	NA	0
39	Nonet	149	635	149	0	1	2	126898	683	0	miss	NA	0
39	Nonet	150	636	150	4	0	0	127615	683	1	false_alarm	0	0
39	Nonet	151	637	151	5	0	0	128331	684	0	correct_rejection	NA	0
39	Nonet	152	638	152	6	0	0	129048	683	0	correct_rejection	NA	0
39	Nonet	153	639	153	9	0	0	129765	683	0	correct_rejection	NA	0
39	Nonet	154	640	154	8	0	0	130481	684	0	correct_rejection	NA	0
39	Nonet	155	641	155	7	0	0	131198	683	0	correct_rejection	NA	0
39	Nonet	156	642	156	9	0	0	131915	683	0	correct_rejection	NA	0
39	Nonet	157	643	157	8	0	0	132631	684	0	correct_rejection	NA	0
39	Nonet	158	644	158	7	0	0	133348	683	0	correct_rejection	NA	0
39	Nonet	159	645	159	9	0	0	134065	683	0	correct_rejection	NA	0
39	Nonet	160	646	160	8	0	0	134781	684	0	correct_rejection	NA	0
39	Nonet	161	647	161	0	1	1	135498	683	1	hit	517	0
39	Nonet	162	648	162	7	0	0	136215	683	0	correct_rejection	NA	0
39	Triplet	1	163	163	6	0	0	146114	684	0	correct_rejection	NA	7907
39	Triplet	2	164	164	5	0	0	146831	683	0	correct_rejection	NA	0
39	Triplet	3	165	165	4	0	0	147548	683	0	correct_rejection	NA	0
39	Triplet	4	166	166	0	1	2	148264	684	1	hit	544	0
39	Triplet	5	167	167	6	0	0	148981	683	0	correct_rejection	NA	0
39	Triplet	6	168	168	5	0	0	149698	683	0	correct_rejection	NA	0
39	Triplet	7	169	169	0	1	1	150414	684	1	hit	503	0
39	Triplet	8	170	170	4	0	0	151131	683	0	correct_rejection	NA	0
39	Triplet	9	171	171	4	0	0	151848	683	0	correct_rejection	NA	0
39	Triplet	10	172	172	5	0	0	152564	684	0	correct_rejection	NA	0
39	Triplet	11	173	173	0	1	1	153281	683	1	hit	504	0
39	Triplet	12	174	174	6	0	0	153998	683	0	correct_rejection	NA	0
39	Triplet	13	175	175	9	0	0	154714	684	0	correct_rejection	NA	0
39	Triplet	14	176	176	8	0	0	155431	683	0	correct_rejection	NA	0
39	Triplet	15	177	177	7	0	0	156148	683	0	correct_rejection	NA	0
39	Triplet	16	178	178	6	0	0	156864	684	0	correct_rejection	NA	0
39	Triplet	17	179	179	0	1	1	157581	683	1	hit	673	0
39	Triplet	18	180	180	5	0	0	158298	683	0	correct_rejection	NA	0
39	Triplet	19	181	181	4	0	0	159014	684	0	correct_rejection	NA	0
39	Triplet	20	182	182	9	0	0	159731	683	0	correct_rejection	NA	0
39	Triplet	21	183	183	8	0	0	160448	683	0	correct_rejection	NA	0
39	Triplet	22	184	184	7	0	0	161164	684	0	correct_rejection	NA	0
39	Triplet	23	185	185	0	1	2	161881	683	1	hit	435	0
39	Triplet	24	186	186	7	0	0	162598	683	0	correct_rejection	NA	0
39	Triplet	25	187	187	8	0	0	163314	684	0	correct_rejection	NA	0
39	Triplet	26	188	188	9	0	0	164031	683	0	correct_rejection	NA	0
39	Triplet	27	189	189	6	0	0	164747	684	0	correct_rejection	NA	0
39	Triplet	28	190	190	5	0	0	165464	684	0	correct_rejection	NA	0
39	Triplet	29	191	191	0	1	1	166181	683	1	hit	443	0
39	Triplet	30	192	192	4	0	0	166897	684	0	correct_rejection	NA	0
39	Triplet	31	193	193	7	0	0	167614	683	0	correct_rejection	NA	0
39	Triplet	32	194	194	8	0	0	168331	683	0	correct_rejection	NA	0
39	Triplet	33	195	195	9	0	0	169047	684	0	correct_rejection	NA	0
39	Triplet	34	196	196	7	0	0	169764	683	0	correct_rejection	NA	0
39	Triplet	35	197	197	8	0	0	170481	683	0	correct_rejection	NA	0
39	Triplet	36	198	198	9	0	0	171197	684	0	correct_rejection	NA	0
39	Triplet	37	199	199	9	0	0	171914	683	0	correct_rejection	NA	0
39	Triplet	38	200	200	8	0	0	172631	683	0	correct_rejection	NA	0
39	Triplet	39	201	201	7	0	0	173347	684	0	correct_rejection	NA	0
39	Triplet	40	202	202	9	0	0	174064	683	0	correct_rejection	NA	0
39	Triplet	41	203	203	8	0	0	174781	683	0	correct_rejection	NA	0
39	Triplet	42	204	204	0	1	1	175497	684	1	hit	600	0
39	Triplet	43	205	205	7	0	0	176214	683	0	correct_rejection	NA	0
39	Triplet	44	206	206	4	0	0	176931	683	0	correct_rejection	NA	0
39	Triplet	45	207	207	5	0	0	177647	684	0	correct_rejection	NA	0
39	Triplet	46	208	208	6	0	0	178364	683	0	correct_rejection	NA	0
39	Triplet	47	209	209	4	0	0	179081	683	0	correct_rejection	NA	0
39	Triplet	48	210	210	5	0	0	179797	684	0	correct_rejection	NA	0
39	Triplet	49	211	211	6	0	0	180514	683	0	correct_rejection	NA	0
39	Triplet	50	212	212	7	0	0	181231	683	0	correct_rejection	NA	0
39	Triplet	51	213	213	8	0	0	181947	684	0	correct_rejection	NA	0
39	Triplet	52	214	214	9	0	0	182664	683	0	correct_rejection	NA	0
39	Triplet	53	215	215	4	0	0	183381	683	0	correct_rejection	NA	0
39	Triplet	54	216	216	5	0	0	184097	684	0	correct_rejection	NA	0
39	Triplet	55	217	217	6	0	0	184814	683	0	correct_rejection	NA	0
39	Triplet	56	218	218	7	0	0	185531	683	0	correct_rejection	NA	0
39	Triplet	57	219	219	0	1	1	186247	684	1	hit	469	0
39	Triplet	58	220	220	8	0	0	186964	683	0	correct_rejection	NA	0
39	Triplet	59	221	221	9	0	0	187681	683	0	correct_rejection	NA	0
39	Triplet	60	222	222	0	1	2	188397	684	1	hit	579	0
39	Triplet	61	223	223	6	0	0	189114	683	0	correct_rejection	NA	0
39	Triplet	62	224	224	5	0	0	189831	683	0	correct_rejection	NA	0
39	Triplet	63	225	225	4	0	0	190547	684	0	correct_rejection	NA	0
39	Triplet	64	226	226	6	0	0	191264	683	0	correct_rejection	NA	0
39	Triplet	65	227	227	5	0	0	191980	684	0	correct_rejection	NA	0
39	Triplet	66	228	228	4	0	0	192697	684	0	correct_rejection	NA	0
39	Triplet	67	229	229	9	0	0	193414	683	0	correct_rejection	NA	0
39	Triplet	68	230	230	8	0	0	194130	684	0	correct_rejection	NA	0
39	Triplet	69	231	231	7	0	0	194847	683	0	correct_rejection	NA	0
39	Triplet	70	232	232	4	0	0	195564	683	0	correct_rejection	NA	0
39	Triplet	71	233	233	0	1	1	196280	684	1	hit	437	0
39	Triplet	72	234	234	5	0	0	196997	683	0	correct_rejection	NA	0
39	Triplet	73	235	235	6	0	0	197714	683	0	correct_rejection	NA	0
39	Triplet	74	236	236	7	0	0	198430	684	0	correct_rejection	NA	0
39	Triplet	75	237	237	8	0	0	199147	683	0	correct_rejection	NA	0
39	Triplet	76	238	238	9	0	0	199864	683	0	correct_rejection	NA	0
39	Triplet	77	239	239	7	0	0	200580	684	0	correct_rejection	NA	0
39	Triplet	78	240	240	8	0	0	201297	683	0	correct_rejection	NA	0
39	Triplet	79	241	241	9	0	0	202014	683	0	correct_rejection	NA	0
39	Triplet	80	242	242	4	0	0	202730	684	0	correct_rejection	NA	0
39	Triplet	81	243	243	5	0	0	203447	683	0	correct_rejection	NA	0
39	Triplet	82	244	244	6	0	0	204164	683	0	correct_rejection	NA	0
39	Triplet	83	245	245	6	0	0	204880	684	0	correct_rejection	NA	0
39	Triplet	84	246	246	5	0	0	205597	683	0	correct_rejection	NA	0
39	Triplet	85	247	247	4	0	0	206314	683	0	correct_rejection	NA	0
39	Triplet	86	248	248	7	0	0	207030	684	0	correct_rejection	NA	0
39	Triplet	87	249	249	8	0	0	207747	683	0	correct_rejection	NA	0
39	Triplet	88	250	250	9	0	0	208464	683	0	correct_rejection	NA	0
39	Triplet	89	251	251	9	0	0	209180	684	0	correct_rejection	NA	0
39	Triplet	90	252	252	8	0	0	209897	683	0	correct_rejection	NA	0
39	Triplet	91	253	253	7	0	0	210614	683	0	correct_rejection	NA	0
39	Triplet	92	254	254	6	0	0	211330	684	0	correct_rejection	NA	0
39	Triplet	93	255	255	5	0	0	212047	683	0	correct_rejection	NA	0
39	Triplet	94	256	256	4	0	0	212764	683	0	correct_rejection	NA	0
39	Triplet	95	257	257	4	0	0	213480	684	0	correct_rejection	NA	0
39	Triplet	96	258	258	5	0	0	214197	683	0	correct_rejection	NA	0
39	Triplet	97	259	259	6	0	0	214914	683	0	correct_rejection	NA	0
39	Triplet	98	260	260	4	0	0	215630	684	0	correct_rejection	NA	0
39	Triplet	99	261	261	5	0	0	216347	683	0	correct_rejection	NA	0
39	Triplet	100	262	262	6	0	0	217064	683	0	correct_rejection	NA	0
39	Triplet	101	263	263	9	0	0	217780	684	0	correct_rejection	NA	0
39	Triplet	102	264	264	8	0	0	218497	683	0	correct_rejection	NA	0
39	Triplet	103	265	265	7	0	0	219213	684	0	correct_rejection	NA	0
39	Triplet	104	266	266	0	1	2	219930	684	1	hit	521	0
39	Triplet	105	267	267	9	0	0	220647	683	0	correct_rejection	NA	0
39	Triplet	106	268	268	8	0	0	221363	684	0	correct_rejection	NA	0
39	Triplet	107	269	269	7	0	0	222080	683	0	correct_rejection	NA	0
39	Triplet	108	270	270	4	0	0	222797	683	0	correct_rejection	NA	0
39	Triplet	109	271	271	5	0	0	223513	684	0	correct_rejection	NA	0
39	Triplet	110	272	272	6	0	0	224230	683	0	correct_rejection	NA	0
39	Triplet	111	273	273	4	0	0	224947	683	0	correct_rejection	NA	0
39	Triplet	112	274	274	5	0	0	225663	684	0	correct_rejection	NA	0
39	Triplet	113	275	275	6	0	0	226380	683	0	correct_rejection	NA	0
39	Triplet	114	276	276	6	0	0	227097	683	0	correct_rejection	NA	0
39	Triplet	115	277	277	0	1	1	227813	684	1	hit	567	0
39	Triplet	116	278	278	5	0	0	228530	683	0	correct_rejection	NA	0
39	Triplet	117	279	279	4	0	0	229247	683	0	correct_rejection	NA	0
39	Triplet	118	280	280	9	0	0	229963	684	0	correct_rejection	NA	0
39	Triplet	119	281	281	8	0	0	230680	683	0	correct_rejection	NA	0
39	Triplet	120	282	282	0	1	1	231397	683	0	miss	NA	0
39	Triplet	121	283	283	7	0	0	232113	684	1	false_alarm	195	0
39	Triplet	122	284	284	9	0	0	232830	683	0	correct_rejection	NA	0
39	Triplet	123	285	285	0	1	1	233547	683	1	hit	579	0
39	Triplet	124	286	286	8	0	0	234263	684	0	correct_rejection	NA	0
39	Triplet	125	287	287	7	0	0	234980	683	0	correct_rejection	NA	0
39	Triplet	126	288	288	6	0	0	235697	683	0	correct_rejection	NA	0
39	Triplet	127	289	289	5	0	0	236413	684	0	correct_rejection	NA	0
39	Triplet	128	290	290	4	0	0	237130	683	0	correct_rejection	NA	0
39	Triplet	129	291	291	6	0	0	237847	683	0	correct_rejection	NA	0
39	Triplet	130	292	292	5	0	0	238563	684	0	correct_rejection	NA	0
39	Triplet	131	293	293	4	0	0	239280	683	0	correct_rejection	NA	0
39	Triplet	132	294	294	7	0	0	239997	683	0	correct_rejection	NA	0
39	Triplet	133	295	295	0	1	1	240713	684	1	hit	512	0
39	Triplet	134	296	296	8	0	0	241430	683	0	correct_rejection	NA	0
39	Triplet	135	297	297	9	0	0	242147	683	0	correct_rejection	NA	0
39	Triplet	136	298	298	4	0	0	242863	684	0	correct_rejection	NA	0
39	Triplet	137	299	299	5	0	0	243580	683	0	correct_rejection	NA	0
39	Triplet	138	300	300	6	0	0	244297	683	0	correct_rejection	NA	0
39	Triplet	139	301	301	7	0	0	245013	684	0	correct_rejection	NA	0
39	Triplet	140	302	302	8	0	0	245730	683	0	correct_rejection	NA	0
39	Triplet	141	303	303	0	1	1	246447	683	1	hit	454	0
39	Triplet	142	304	304	9	0	0	247163	684	0	correct_rejection	NA	0
39	Triplet	143	305	305	9	0	0	247880	683	0	correct_rejection	NA	0
39	Triplet	144	306	306	8	0	0	248596	684	0	correct_rejection	NA	0
39	Triplet	145	307	307	7	0	0	249313	683	0	correct_rejection	NA	0
39	Triplet	146	308	308	4	0	0	250030	683	0	correct_rejection	NA	0
39	Triplet	147	309	309	5	0	0	250746	684	0	correct_rejection	NA	0
39	Triplet	148	310	310	6	0	0	251463	683	0	correct_rejection	NA	0
39	Triplet	149	311	311	9	0	0	252180	683	0	correct_rejection	NA	0
39	Triplet	150	312	312	0	1	1	252896	684	1	hit	471	0
39	Triplet	151	313	313	8	0	0	253613	683	0	correct_rejection	NA	0
39	Triplet	152	314	314	7	0	0	254330	683	0	correct_rejection	NA	0
39	Triplet	153	315	315	7	0	0	255046	684	0	correct_rejection	NA	0
39	Triplet	154	316	316	8	0	0	255763	683	0	correct_rejection	NA	0
39	Triplet	155	317	317	9	0	0	256480	683	0	correct_rejection	NA	0
39	Triplet	156	318	318	7	0	0	257196	684	0	correct_rejection	NA	0
39	Triplet	157	319	319	0	1	1	257913	683	1	hit	501	0
39	Triplet	158	320	320	8	0	0	258630	683	0	correct_rejection	NA	0
39	Triplet	159	321	321	9	0	0	259346	684	0	correct_rejection	NA	0
39	Triplet	160	322	322	6	0	0	260063	683	0	correct_rejection	NA	0
39	Triplet	161	323	323	5	0	0	260780	683	0	correct_rejection	NA	0
39	Triplet	162	324	324	4	0	0	261496	684	0	correct_rejection	NA	0
39	Correct	1	325	325	4	0	0	272013	683	0	correct_rejection	NA	7807
39	Correct	2	326	326	5	0	0	272730	683	0	correct_rejection	NA	0
39	Correct	3	327	327	6	0	0	273446	684	0	correct_rejection	NA	0
39	Correct	4	328	328	4	0	0	274163	683	0	correct_rejection	NA	0
39	Correct	5	329	329	5	0	0	274879	684	0	correct_rejection	NA	0
39	Correct	6	330	330	6	0	0	275596	683	0	correct_rejection	NA	0
39	Correct	7	331	331	4	0	0	276313	683	0	correct_rejection	NA	0
39	Correct	8	332	332	5	0	0	277029	684	0	correct_rejection	NA	0
39	Correct	9	333	333	6	0	0	277746	683	0	correct_rejection	NA	0
39	Correct	10	334	334	0	1	3	278463	683	1	hit	476	0
39	Correct	11	335	335	6	0	0	279179	684	0	correct_rejection	NA	0
39	Correct	12	336	336	5	0	0	279896	683	0	correct_rejection	NA	0
39	Correct	13	337	337	4	0	0	280613	683	0	correct_rejection	NA	0
39	Correct	14	338	338	6	0	0	281329	684	0	correct_rejection	NA	0
39	Correct	15	339	339	5	0	0	282046	683	0	correct_rejection	NA	0
39	Correct	16	340	340	4	0	0	282763	683	0	correct_rejection	NA	0
39	Correct	17	341	341	6	0	0	283479	684	0	correct_rejection	NA	0
39	Correct	18	342	342	0	1	1	284196	683	0	miss	NA	0
39	Correct	19	343	343	5	0	0	284913	683	1	false_alarm	66	0
39	Correct	20	344	344	4	0	0	285629	684	0	correct_rejection	NA	0
39	Correct	21	345	345	9	0	0	286346	683	0	correct_rejection	NA	0
39	Correct	22	346	346	8	0	0	287063	683	0	correct_rejection	NA	0
39	Correct	23	347	347	7	0	0	287779	684	0	correct_rejection	NA	0
39	Correct	24	348	348	0	1	2	288496	683	1	hit	471	0
39	Correct	25	349	349	9	0	0	289213	683	0	correct_rejection	NA	0
39	Correct	26	350	350	8	0	0	289929	684	0	correct_rejection	NA	0
39	Correct	27	351	351	7	0	0	290646	683	0	correct_rejection	NA	0
39	Correct	28	352	352	9	0	0	291363	683	0	correct_rejection	NA	0
39	Correct	29	353	353	8	0	0	292079	684	0	correct_rejection	NA	0
39	Correct	30	354	354	7	0	0	292796	683	0	correct_rejection	NA	0
39	Correct	31	355	355	7	0	0	293513	683	0	correct_rejection	NA	0
39	Correct	32	356	356	8	0	0	294229	684	0	correct_rejection	NA	0
39	Correct	33	357	357	9	0	0	294946	683	0	correct_rejection	NA	0
39	Correct	34	358	358	7	0	0	295663	683	0	correct_rejection	NA	0
39	Correct	35	359	359	8	0	0	296379	684	0	correct_rejection	NA	0
39	Correct	36	360	360	9	0	0	297096	683	0	correct_rejection	NA	0
39	Correct	37	361	361	7	0	0	297813	683	0	correct_rejection	NA	0
39	Correct	38	362	362	0	1	1	298529	684	1	hit	501	0
39	Correct	39	363	363	8	0	0	299246	683	0	correct_rejection	NA	0
39	Correct	40	364	364	9	0	0	299963	683	0	correct_rejection	NA	0
39	Correct	41	365	365	4	0	0	300679	684	0	correct_rejection	NA	0
39	Correct	42	366	366	5	0	0	301396	683	0	correct_rejection	NA	0
39	Correct	43	367	367	6	0	0	302113	683	0	correct_rejection	NA	0
39	Correct	44	368	368	4	0	0	302829	684	0	correct_rejection	NA	0
39	Correct	45	369	369	5	0	0	303546	683	0	correct_rejection	NA	0
39	Correct	46	370	370	6	0	0	304262	684	0	correct_rejection	NA	0
39	Correct	47	371	371	4	0	0	304979	683	0	correct_rejection	NA	0
39	Correct	48	372	372	0	1	1	305696	683	1	hit	467	0
39	Correct	49	373	373	5	0	0	306412	684	0	correct_rejection	NA	0
39	Correct	50	374	374	6	0	0	307129	683	0	correct_rejection	NA	0
39	Correct	51	375	375	6	0	0	307846	683	0	correct_rejection	NA	0
39	Correct	52	376	376	5	0	0	308562	684	0	correct_rejection	NA	0
39	Correct	53	377	377	4	0	0	309279	683	0	correct_rejection	NA	0
39	Correct	54	378	378	6	0	0	309996	683	0	correct_rejection	NA	0
39	Correct	55	379	379	5	0	0	310712	684	0	correct_rejection	NA	0
39	Correct	56	380	380	4	0	0	311429	683	0	correct_rejection	NA	0
39	Correct	57	381	381	6	0	0	312146	683	0	correct_rejection	NA	0
39	Correct	58	382	382	5	0	0	312862	684	0	correct_rejection	NA	0
39	Correct	59	383	383	4	0	0	313579	683	0	correct_rejection	NA	0
39	Correct	60	384	384	9	0	0	314296	683	0	correct_rejection	NA	0
39	Correct	61	385	385	8	0	0	315012	684	0	correct_rejection	NA	0
39	Correct	62	386	386	7	0	0	315729	683	0	correct_rejection	NA	0
39	Correct	63	387	387	9	0	0	316446	683	0	correct_rejection	NA	0
39	Correct	64	388	388	8	0	0	317162	684	0	correct_rejection	NA	0
39	Correct	65	389	389	0	1	1	317879	683	0	miss	NA	0
39	Correct	66	390	390	7	0	0	318596	683	0	correct_rejection	NA	0
39	Correct	67	391	391	9	0	0	319312	684	0	correct_rejection	NA	0
39	Correct	68	392	392	8	0	0	320029	683	0	correct_rejection	NA	0
39	Correct	69	393	393	7	0	0	320746	683	0	correct_rejection	NA	0
39	Correct	70	394	394	7	0	0	321462	684	0	correct_rejection	NA	0
39	Correct	71	395	395	8	0	0	322179	683	0	correct_rejection	NA	0
39	Correct	72	396	396	9	0	0	322896	683	0	correct_rejection	NA	0
39	Correct	73	397	397	0	1	2	323612	684	1	hit	504	0
39	Correct	74	398	398	7	0	0	324329	683	0	correct_rejection	NA	0
39	Correct	75	399	399	8	0	0	325046	683	0	correct_rejection	NA	0
39	Correct	76	400	400	0	1	1	325762	684	0	miss	NA	0
39	Correct	77	401	401	9	0	0	326479	683	0	correct_rejection	NA	0
39	Correct	78	402	402	7	0	0	327196	683	0	correct_rejection	NA	0
39	Correct	79	403	403	8	0	0	327912	684	0	correct_rejection	NA	0
39	Correct	80	404	404	0	1	1	328629	683	0	miss	NA	0
39	Correct	81	405	405	9	0	0	329346	683	0	correct_rejection	NA	0
39	Correct	82	406	406	4	0	0	330062	684	0	correct_rejection	NA	0
39	Correct	83	407	407	5	0	0	330779	683	0	correct_rejection	NA	0
39	Correct	84	408	408	0	1	1	331495	684	1	hit	514	0
39	Correct	85	409	409	6	0	0	332212	684	0	correct_rejection	NA	0
39	Correct	86	410	410	4	0	0	332929	683	0	correct_rejection	NA	0
39	Correct	87	411	411	5	0	0	333645	684	0	correct_rejection	NA	0
39	Correct	88	412	412	6	0	0	334362	683	0	correct_rejection	NA	0
39	Correct	89	413	413	4	0	0	335079	683	0	correct_rejection	NA	0
39	Correct	90	414	414	5	0	0	335795	684	0	correct_rejection	NA	0
39	Correct	91	415	415	6	0	0	336512	683	0	correct_rejection	NA	0
39	Correct	92	416	416	6	0	0	337229	683	0	correct_rejection	NA	0
39	Correct	93	417	417	5	0	0	337945	684	0	correct_rejection	NA	0
39	Correct	94	418	418	4	0	0	338662	683	0	correct_rejection	NA	0
39	Correct	95	419	419	6	0	0	339379	683	0	correct_rejection	NA	0
39	Correct	96	420	420	5	0	0	340095	684	0	correct_rejection	NA	0
39	Correct	97	421	421	4	0	0	340812	683	0	correct_rejection	NA	0
39	Correct	98	422	422	6	0	0	341529	683	0	correct_rejection	NA	0
39	Correct	99	423	423	5	0	0	342245	684	0	correct_rejection	NA	0
39	Correct	100	424	424	4	0	0	342962	683	0	correct_rejection	NA	0
39	Correct	101	425	425	9	0	0	343679	683	0	correct_rejection	NA	0
39	Correct	102	426	426	8	0	0	344395	684	0	correct_rejection	NA	0
39	Correct	103	427	427	7	0	0	345112	683	0	correct_rejection	NA	0
39	Correct	104	428	428	0	1	2	345829	683	0	miss	NA	0
39	Correct	105	429	429	9	0	0	346545	684	0	correct_rejection	NA	0
39	Correct	106	430	430	8	0	0	347262	683	0	correct_rejection	NA	0
39	Correct	107	431	431	7	0	0	347979	683	0	correct_rejection	NA	0
39	Correct	108	432	432	9	0	0	348695	684	0	correct_rejection	NA	0
39	Correct	109	433	433	8	0	0	349412	683	0	correct_rejection	NA	0
39	Correct	110	434	434	7	0	0	350129	683	0	correct_rejection	NA	0
39	Correct	111	435	435	0	1	3	350845	684	1	hit	411	0
39	Correct	112	436	436	7	0	0	351562	683	0	correct_rejection	NA	0
39	Correct	113	437	437	8	0	0	352279	683	0	correct_rejection	NA	0
39	Correct	114	438	438	9	0	0	352995	684	0	correct_rejection	NA	0
39	Correct	115	439	439	7	0	0	353712	683	0	correct_rejection	NA	0
39	Correct	116	440	440	0	1	1	354429	683	0	miss	NA	0
39	Correct	117	441	441	8	0	0	355145	684	1	false_alarm	0	0
39	Correct	118	442	442	9	0	0	355862	683	0	correct_rejection	NA	0
39	Correct	119	443	443	7	0	0	356579	683	0	correct_rejection	NA	0
39	Correct	120	444	444	0	1	1	357295	684	1	hit	415	0
39	Correct	121	445	445	8	0	0	358012	683	0	correct_rejection	NA	0
39	Correct	122	446	446	9	0	0	358728	684	0	correct_rejection	NA	0
39	Correct	123	447	447	4	0	0	359445	684	0	correct_rejection	NA	0
39	Correct	124	448	448	5	0	0	360162	683	0	correct_rejection	NA	0
39	Correct	125	449	449	6	0	0	360878	684	0	correct_rejection	NA	0
39	Correct	126	450	450	4	0	0	361595	683	0	correct_rejection	NA	0
39	Correct	127	451	451	0	1	1	362312	683	1	hit	532	0
39	Correct	128	452	452	5	0	0	363028	684	0	correct_rejection	NA	0
39	Correct	129	453	453	6	0	0	363745	683	0	correct_rejection	NA	0
39	Correct	130	454	454	4	0	0	364462	683	0	correct_rejection	NA	0
39	Correct	131	455	455	5	0	0	365178	684	0	correct_rejection	NA	0
39	Correct	132	456	456	6	0	0	365895	683	0	correct_rejection	NA	0
39	Correct	133	457	457	6	0	0	366612	683	0	correct_rejection	NA	0
39	Correct	134	458	458	5	0	0	367328	684	0	correct_rejection	NA	0
39	Correct	135	459	459	0	1	1	368045	683	1	hit	480	0
39	Correct	136	460	460	4	0	0	368762	683	0	correct_rejection	NA	0
39	Correct	137	461	461	6	0	0	369478	684	0	correct_rejection	NA	0
39	Correct	138	462	462	5	0	0	370195	683	0	correct_rejection	NA	0
39	Correct	139	463	463	4	0	0	370912	683	0	correct_rejection	NA	0
39	Correct	140	464	464	6	0	0	371628	684	0	correct_rejection	NA	0
39	Correct	141	465	465	5	0	0	372345	683	0	correct_rejection	NA	0
39	Correct	142	466	466	4	0	0	373062	683	0	correct_rejection	NA	0
39	Correct	143	467	467	9	0	0	373778	684	0	correct_rejection	NA	0
39	Correct	144	468	468	8	0	0	374495	683	0	correct_rejection	NA	0
39	Correct	145	469	469	7	0	0	375212	683	0	correct_rejection	NA	0
39	Correct	146	470	470	9	0	0	375928	684	0	correct_rejection	NA	0
39	Correct	147	471	471	0	1	1	376645	683	1	hit	525	0
39	Correct	148	472	472	8	0	0	377362	683	0	correct_rejection	NA	0
39	Correct	149	473	473	7	0	0	378078	684	0	correct_rejection	NA	0
39	Correct	150	474	474	9	0	0	378795	683	0	correct_rejection	NA	0
39	Correct	151	475	475	8	0	0	379512	683	0	correct_rejection	NA	0
39	Correct	152	476	476	7	0	0	380228	684	0	correct_rejection	NA	0
39	Correct	153	477	477	7	0	0	380945	683	0	correct_rejection	NA	0
39	Correct	154	478	478	8	0	0	381662	683	0	correct_rejection	NA	0
39	Correct	155	479	479	9	0	0	382378	684	0	correct_rejection	NA	0
39	Correct	156	480	480	0	1	2	383095	683	0	miss	NA	0
39	Correct	157	481	481	7	0	0	383812	683	0	correct_rejection	NA	0
39	Correct	158	482	482	8	0	0	384528	684	0	correct_rejection	NA	0
39	Correct	159	483	483	9	0	0	385245	683	0	correct_rejection	NA	0
39	Correct	160	484	484	7	0	0	385962	683	0	correct_rejection	NA	0
39	Correct	161	485	485	8	0	0	386678	684	0	correct_rejection	NA	0
39	Correct	162	486	486	9	0	0	387395	683	0	correct_rejection	NA	0
39	Nonet	1	649	487	6	0	0	397028	683	0	correct_rejection	NA	7817
39	Nonet	2	650	488	5	0	0	397745	683	0	correct_rejection	NA	0
39	Nonet	3	651	489	4	0	0	398461	684	0	correct_rejection	NA	0
39	Nonet	4	652	490	6	0	0	399178	683	0	correct_rejection	NA	0
39	Nonet	5	653	491	5	0	0	399895	683	0	correct_rejection	NA	0
39	Nonet	6	654	492	4	0	0	400611	684	0	correct_rejection	NA	0
39	Nonet	7	655	493	6	0	0	401328	683	0	correct_rejection	NA	0
39	Nonet	8	656	494	5	0	0	402045	683	0	correct_rejection	NA	0
39	Nonet	9	657	495	4	0	0	402761	684	0	correct_rejection	NA	0
39	Nonet	10	658	496	9	0	0	403478	683	0	correct_rejection	NA	0
39	Nonet	11	659	497	8	0	0	404195	683	0	correct_rejection	NA	0
39	Nonet	12	660	498	7	0	0	404911	684	0	correct_rejection	NA	0
39	Nonet	13	661	499	9	0	0	405628	683	0	correct_rejection	NA	0
39	Nonet	14	662	500	8	0	0	406345	683	0	correct_rejection	NA	0
39	Nonet	15	663	501	7	0	0	407061	684	0	correct_rejection	NA	0
39	Nonet	16	664	502	0	1	2	407778	683	0	miss	NA	0
39	Nonet	17	665	503	9	0	0	408495	683	0	correct_rejection	NA	0
39	Nonet	18	666	504	8	0	0	409211	684	0	correct_rejection	NA	0
39	Nonet	19	667	505	7	0	0	409928	683	0	correct_rejection	NA	0
39	Nonet	20	668	506	0	1	3	410645	683	1	hit	556	0
39	Nonet	21	669	507	4	0	0	411361	684	0	correct_rejection	NA	0
39	Nonet	22	670	508	5	0	0	412078	683	0	correct_rejection	NA	0
39	Nonet	23	671	509	0	1	1	412795	683	1	hit	518	0
39	Nonet	24	672	510	6	0	0	413511	684	0	correct_rejection	NA	0
39	Nonet	25	673	511	4	0	0	414228	683	0	correct_rejection	NA	0
39	Nonet	26	674	512	5	0	0	414944	684	0	correct_rejection	NA	0
39	Nonet	27	675	513	6	0	0	415661	683	0	correct_rejection	NA	0
39	Nonet	28	676	514	4	0	0	416378	683	0	correct_rejection	NA	0
39	Nonet	29	677	515	5	0	0	417094	684	0	correct_rejection	NA	0
39	Nonet	30	678	516	0	1	1	417811	683	1	hit	675	0
39	Nonet	31	679	517	6	0	0	418528	683	0	correct_rejection	NA	0
39	Nonet	32	680	518	4	0	0	419244	684	0	correct_rejection	NA	0
39	Nonet	33	681	519	5	0	0	419961	683	0	correct_rejection	NA	0
39	Nonet	34	682	520	6	0	0	420678	683	0	correct_rejection	NA	0
39	Nonet	35	683	521	4	0	0	421394	684	0	correct_rejection	NA	0
39	Nonet	36	684	522	5	0	0	422111	683	0	correct_rejection	NA	0
39	Nonet	37	685	523	6	0	0	422828	683	0	correct_rejection	NA	0
39	Nonet	38	686	524	4	0	0	423544	684	0	correct_rejection	NA	0
39	Nonet	39	687	525	5	0	0	424261	683	0	correct_rejection	NA	0
39	Nonet	40	688	526	6	0	0	424978	683	0	correct_rejection	NA	0
39	Nonet	41	689	527	6	0	0	425694	684	0	correct_rejection	NA	0
39	Nonet	42	690	528	5	0	0	426411	683	0	correct_rejection	NA	0
39	Nonet	43	691	529	4	0	0	427128	683	0	correct_rejection	NA	0
39	Nonet	44	692	530	6	0	0	427844	684	0	correct_rejection	NA	0
39	Nonet	45	693	531	5	0	0	428561	683	0	correct_rejection	NA	0
39	Nonet	46	694	532	4	0	0	429278	683	0	correct_rejection	NA	0
39	Nonet	47	695	533	6	0	0	429994	684	0	correct_rejection	NA	0
39	Nonet	48	696	534	5	0	0	430711	683	0	correct_rejection	NA	0
39	Nonet	49	697	535	0	1	1	431428	683	1	hit	450	0
39	Nonet	50	698	536	4	0	0	432144	684	0	correct_rejection	NA	0
39	Nonet	51	699	537	6	0	0	432861	683	0	correct_rejection	NA	0
39	Nonet	52	700	538	5	0	0	433578	683	0	correct_rejection	NA	0
39	Nonet	53	701	539	4	0	0	434294	684	0	correct_rejection	NA	0
39	Nonet	54	702	540	6	0	0	435011	683	0	correct_rejection	NA	0
39	Nonet	55	703	541	0	1	1	435728	683	1	hit	510	0
39	Nonet	56	704	542	5	0	0	436444	684	0	correct_rejection	NA	0
39	Nonet	57	705	543	4	0	0	437161	683	0	correct_rejection	NA	0
39	Nonet	58	706	544	0	1	2	437878	683	1	hit	498	0
39	Nonet	59	707	545	6	0	0	438594	684	0	correct_rejection	NA	0
39	Nonet	60	708	546	5	0	0	439311	683	0	correct_rejection	NA	0
39	Nonet	61	709	547	4	0	0	440028	683	0	correct_rejection	NA	0
39	Nonet	62	710	548	4	0	0	440744	684	0	correct_rejection	NA	0
39	Nonet	63	711	549	5	0	0	441461	683	0	correct_rejection	NA	0
39	Nonet	64	712	550	6	0	0	442177	684	0	correct_rejection	NA	0
39	Nonet	65	713	551	4	0	0	442894	683	0	correct_rejection	NA	0
39	Nonet	66	714	552	5	0	0	443611	683	0	correct_rejection	NA	0
39	Nonet	67	715	553	6	0	0	444327	684	0	correct_rejection	NA	0
39	Nonet	68	716	554	4	0	0	445044	683	0	correct_rejection	NA	0
39	Nonet	69	717	555	5	0	0	445761	683	0	correct_rejection	NA	0
39	Nonet	70	718	556	6	0	0	446477	684	0	correct_rejection	NA	0
39	Nonet	71	719	557	7	0	0	447194	683	0	correct_rejection	NA	0
39	Nonet	72	720	558	8	0	0	447911	683	0	correct_rejection	NA	0
39	Nonet	73	721	559	9	0	0	448627	684	0	correct_rejection	NA	0
39	Nonet	74	722	560	0	1	2	449344	683	0	miss	NA	0
39	Nonet	75	723	561	7	0	0	450061	683	0	correct_rejection	NA	0
39	Nonet	76	724	562	8	0	0	450777	684	0	correct_rejection	NA	0
39	Nonet	77	725	563	0	1	1	451494	683	0	miss	NA	0
39	Nonet	78	726	564	9	0	0	452211	683	0	correct_rejection	NA	0
39	Nonet	79	727	565	7	0	0	452927	684	0	correct_rejection	NA	0
39	Nonet	80	728	566	8	0	0	453644	683	0	correct_rejection	NA	0
39	Nonet	81	729	567	9	0	0	454361	683	0	correct_rejection	NA	0
39	Nonet	82	730	568	6	0	0	455077	684	0	correct_rejection	NA	0
39	Nonet	83	731	569	5	0	0	455794	683	0	correct_rejection	NA	0
39	Nonet	84	732	570	4	0	0	456511	683	0	correct_rejection	NA	0
39	Nonet	85	733	571	6	0	0	457227	684	0	correct_rejection	NA	0
39	Nonet	86	734	572	5	0	0	457944	683	0	correct_rejection	NA	0
39	Nonet	87	735	573	4	0	0	458661	683	0	correct_rejection	NA	0
39	Nonet	88	736	574	0	1	2	459377	684	1	hit	497	0
39	Nonet	89	737	575	6	0	0	460094	683	0	correct_rejection	NA	0
39	Nonet	90	738	576	5	0	0	460811	683	0	correct_rejection	NA	0
39	Nonet	91	739	577	4	0	0	461527	684	0	correct_rejection	NA	0
39	Nonet	92	740	578	7	0	0	462244	683	0	correct_rejection	NA	0
39	Nonet	93	741	579	8	0	0	462961	683	0	correct_rejection	NA	0
39	Nonet	94	742	580	9	0	0	463677	684	0	correct_rejection	NA	0
39	Nonet	95	743	581	7	0	0	464394	683	0	correct_rejection	NA	0
39	Nonet	96	744	582	8	0	0	465111	683	0	correct_rejection	NA	0
39	Nonet	97	745	583	9	0	0	465827	684	0	correct_rejection	NA	0
39	Nonet	98	746	584	7	0	0	466544	683	0	correct_rejection	NA	0
39	Nonet	99	747	585	0	1	1	467261	683	0	miss	NA	0
39	Nonet	100	748	586	8	0	0	467977	684	0	correct_rejection	NA	0
39	Nonet	101	749	587	9	0	0	468694	683	0	correct_rejection	NA	0
39	Nonet	102	750	588	4	0	0	469410	684	0	correct_rejection	NA	0
39	Nonet	103	751	589	0	1	1	470127	684	0	miss	NA	0
39	Nonet	104	752	590	5	0	0	470844	683	0	correct_rejection	NA	0
39	Nonet	105	753	591	6	0	0	471560	684	0	correct_rejection	NA	0
39	Nonet	106	754	592	0	1	2	472277	683	0	miss	NA	0
39	Nonet	107	755	593	4	0	0	472994	683	0	correct_rejection	NA	0
39	Nonet	108	756	594	5	0	0	473710	684	0	correct_rejection	NA	0
39	Nonet	109	757	595	6	0	0	474427	683	0	correct_rejection	NA	0
39	Nonet	110	758	596	4	0	0	475144	683	0	correct_rejection	NA	0
39	Nonet	111	759	597	5	0	0	475860	684	0	correct_rejection	NA	0
39	Nonet	112	760	598	6	0	0	476577	683	0	correct_rejection	NA	0
39	Nonet	113	761	599	9	0	0	477294	683	0	correct_rejection	NA	0
39	Nonet	114	762	600	8	0	0	478010	684	0	correct_rejection	NA	0
39	Nonet	115	763	601	7	0	0	478727	683	0	correct_rejection	NA	0
39	Nonet	116	764	602	9	0	0	479444	683	0	correct_rejection	NA	0
39	Nonet	117	765	603	0	1	1	480160	684	0	miss	NA	0
39	Nonet	118	766	604	8	0	0	480877	683	0	correct_rejection	NA	0
39	Nonet	119	767	605	7	0	0	481594	683	0	correct_rejection	NA	0
39	Nonet	120	768	606	9	0	0	482310	684	0	correct_rejection	NA	0
39	Nonet	121	769	607	8	0	0	483027	683	0	correct_rejection	NA	0
39	Nonet	122	770	608	0	1	1	483744	683	1	hit	464	0
39	Nonet	123	771	609	7	0	0	484460	684	0	correct_rejection	NA	0
39	Nonet	124	772	610	9	0	0	485177	683	0	correct_rejection	NA	0
39	Nonet	125	773	611	8	0	0	485894	683	0	correct_rejection	NA	0
39	Nonet	126	774	612	7	0	0	486610	684	0	correct_rejection	NA	0
39	Nonet	127	775	613	0	1	2	487327	683	1	hit	659	0
39	Nonet	128	776	614	9	0	0	488044	683	0	correct_rejection	NA	0
39	Nonet	129	777	615	8	0	0	488760	684	0	correct_rejection	NA	0
39	Nonet	130	778	616	0	1	1	489477	683	1	hit	606	0
39	Nonet	131	779	617	7	0	0	490194	683	0	correct_rejection	NA	0
39	Nonet	132	780	618	9	0	0	490910	684	0	correct_rejection	NA	0
39	Nonet	133	781	619	8	0	0	491627	683	0	correct_rejection	NA	0
39	Nonet	134	782	620	7	0	0	492344	683	1	false_alarm	670	0
39	Nonet	135	783	621	7	0	0	493060	684	0	correct_rejection	NA	0
39	Nonet	136	784	622	8	0	0	493777	683	0	correct_rejection	NA	0
39	Nonet	137	785	623	9	0	0	494494	683	0	correct_rejection	NA	0
39	Nonet	138	786	624	7	0	0	495210	684	0	correct_rejection	NA	0
39	Nonet	139	787	625	8	0	0	495927	683	0	correct_rejection	NA	0
39	Nonet	140	788	626	9	0	0	496644	683	0	correct_rejection	NA	0
39	Nonet	141	789	627	7	0	0	497360	684	0	correct_rejection	NA	0
39	Nonet	142	790	628	8	0	0	498077	683	0	correct_rejection	NA	0
39	Nonet	143	791	629	9	0	0	498793	684	0	correct_rejection	NA	0
39	Nonet	144	792	630	0	1	3	499510	683	0	miss	NA	0
39	Nonet	145	793	631	7	0	0	500227	683	0	correct_rejection	NA	0
39	Nonet	146	794	632	8	0	0	500943	684	0	correct_rejection	NA	0
39	Nonet	147	795	633	9	0	0	501660	683	0	correct_rejection	NA	0
39	Nonet	148	796	634	7	0	0	502377	683	0	correct_rejection	NA	0
39	Nonet	149	797	635	8	0	0	503093	684	0	correct_rejection	NA	0
39	Nonet	150	798	636	9	0	0	503810	683	0	correct_rejection	NA	0
39	Nonet	151	799	637	7	0	0	504527	683	0	correct_rejection	NA	0
39	Nonet	152	800	638	8	0	0	505243	684	0	correct_rejection	NA	0
39	Nonet	153	801	639	9	0	0	505960	683	0	correct_rejection	NA	0
39	Nonet	154	802	640	9	0	0	506677	683	0	correct_rejection	NA	0
39	Nonet	155	803	641	8	0	0	507393	684	0	correct_rejection	NA	0
39	Nonet	156	804	642	7	0	0	508110	683	0	correct_rejection	NA	0
39	Nonet	157	805	643	9	0	0	508827	683	0	correct_rejection	NA	0
39	Nonet	158	806	644	8	0	0	509543	684	0	correct_rejection	NA	0
39	Nonet	159	807	645	7	0	0	510260	683	0	correct_rejection	NA	0
39	Nonet	160	808	646	9	0	0	510977	683	0	correct_rejection	NA	0
39	Nonet	161	809	647	8	0	0	511693	684	0	correct_rejection	NA	0
39	Nonet	162	810	648	7	0	0	512410	683	0	correct_rejection	NA	0
39	Single	1	163	649	8	0	0	521210	683	0	correct_rejection	NA	7007
39	Single	2	164	650	6	0	0	521927	683	0	correct_rejection	NA	0
39	Single	3	165	651	7	0	0	522643	684	0	correct_rejection	NA	0
39	Single	4	166	652	5	0	0	523360	683	0	correct_rejection	NA	0
39	Single	5	167	653	0	1	1	524077	683	0	miss	NA	0
39	Single	6	168	654	5	0	0	524793	684	1	false_alarm	0	0
39	Single	7	169	655	7	0	0	525510	683	0	correct_rejection	NA	0
39	Single	8	170	656	6	0	0	526226	684	0	correct_rejection	NA	0
39	Single	9	171	657	0	1	1	526943	683	1	hit	484	0
39	Single	10	172	658	8	0	0	527660	683	0	correct_rejection	NA	0
39	Single	11	173	659	7	0	0	528376	684	0	correct_rejection	NA	0
39	Single	12	174	660	7	0	0	529093	683	0	correct_rejection	NA	0
39	Single	13	175	661	8	0	0	529810	683	0	correct_rejection	NA	0
39	Single	14	176	662	8	0	0	530526	684	0	correct_rejection	NA	0
39	Single	15	177	663	4	0	0	531243	683	0	correct_rejection	NA	0
39	Single	16	178	664	7	0	0	531960	683	0	correct_rejection	NA	0
39	Single	17	179	665	0	1	1	532676	684	0	miss	NA	0
39	Single	18	180	666	9	0	0	533393	683	0	correct_rejection	NA	0
39	Single	19	181	667	6	0	0	534110	683	0	correct_rejection	NA	0
39	Single	20	182	668	5	0	0	534826	684	0	correct_rejection	NA	0
39	Single	21	183	669	9	0	0	535543	683	0	correct_rejection	NA	0
39	Single	22	184	670	7	0	0	536260	683	0	correct_rejection	NA	0
39	Single	23	185	671	4	0	0	536976	684	0	correct_rejection	NA	0
39	Single	24	186	672	4	0	0	537693	683	0	correct_rejection	NA	0
39	Single	25	187	673	0	1	1	538410	683	1	hit	439	0
39	Single	26	188	674	6	0	0	539126	684	0	correct_rejection	NA	0
39	Single	27	189	675	9	0	0	539843	683	0	correct_rejection	NA	0
39	Single	28	190	676	9	0	0	540560	683	0	correct_rejection	NA	0
39	Single	29	191	677	5	0	0	541276	684	0	correct_rejection	NA	0
39	Single	30	192	678	6	0	0	541993	683	0	correct_rejection	NA	0
39	Single	31	193	679	6	0	0	542710	683	0	correct_rejection	NA	0
39	Single	32	194	680	0	1	1	543426	684	1	hit	510	0
39	Single	33	195	681	4	0	0	544143	683	0	correct_rejection	NA	0
39	Single	34	196	682	8	0	0	544860	683	0	correct_rejection	NA	0
39	Single	35	197	683	5	0	0	545576	684	0	correct_rejection	NA	0
39	Single	36	198	684	4	0	0	546293	683	0	correct_rejection	NA	0
39	Single	37	199	685	9	0	0	547010	683	0	correct_rejection	NA	0
39	Single	38	200	686	4	0	0	547726	684	0	correct_rejection	NA	0
39	Single	39	201	687	5	0	0	548443	683	0	correct_rejection	NA	0
39	Single	40	202	688	8	0	0	549160	683	0	correct_rejection	NA	0
39	Single	41	203	689	9	0	0	549876	684	0	correct_rejection	NA	0
39	Single	42	204	690	9	0	0	550593	683	0	correct_rejection	NA	0
39	Single	43	205	691	7	0	0	551310	683	0	correct_rejection	NA	0
39	Single	44	206	692	6	0	0	552026	684	0	correct_rejection	NA	0
39	Single	45	207	693	9	0	0	552743	683	0	correct_rejection	NA	0
39	Single	46	208	694	6	0	0	553459	684	0	correct_rejection	NA	0
39	Single	47	209	695	8	0	0	554176	684	0	correct_rejection	NA	0
39	Single	48	210	696	0	1	1	554893	683	1	hit	682	0
39	Single	49	211	697	4	0	0	555609	684	0	correct_rejection	NA	0
39	Single	50	212	698	8	0	0	556326	683	0	correct_rejection	NA	0
39	Single	51	213	699	8	0	0	557043	683	0	correct_rejection	NA	0
39	Single	52	214	700	0	1	1	557759	684	1	hit	575	0
39	Single	53	215	701	5	0	0	558476	683	0	correct_rejection	NA	0
39	Single	54	216	702	7	0	0	559193	683	0	correct_rejection	NA	0
39	Single	55	217	703	7	0	0	559909	684	0	correct_rejection	NA	0
39	Single	56	218	704	5	0	0	560626	683	0	correct_rejection	NA	0
39	Single	57	219	705	6	0	0	561343	683	0	correct_rejection	NA	0
39	Single	58	220	706	4	0	0	562059	684	0	correct_rejection	NA	0
39	Single	59	221	707	7	0	0	562776	683	0	correct_rejection	NA	0
39	Single	60	222	708	0	1	1	563493	683	1	hit	520	0
39	Single	61	223	709	4	0	0	564209	684	0	correct_rejection	NA	0
39	Single	62	224	710	6	0	0	564926	683	0	correct_rejection	NA	0
39	Single	63	225	711	5	0	0	565643	683	0	correct_rejection	NA	0
39	Single	64	226	712	5	0	0	566359	684	0	correct_rejection	NA	0
39	Single	65	227	713	8	0	0	567076	683	0	correct_rejection	NA	0
39	Single	66	228	714	0	1	1	567793	683	1	hit	511	0
39	Single	67	229	715	7	0	0	568509	684	0	correct_rejection	NA	0
39	Single	68	230	716	8	0	0	569226	683	0	correct_rejection	NA	0
39	Single	69	231	717	9	0	0	569943	683	0	correct_rejection	NA	0
39	Single	70	232	718	0	1	1	570659	684	1	hit	505	0
39	Single	71	233	719	4	0	0	571376	683	0	correct_rejection	NA	0
39	Single	72	234	720	9	0	0	572093	683	0	correct_rejection	NA	0
39	Single	73	235	721	5	0	0	572809	684	0	correct_rejection	NA	0
39	Single	74	236	722	4	0	0	573526	683	0	correct_rejection	NA	0
39	Single	75	237	723	4	0	0	574243	683	0	correct_rejection	NA	0
39	Single	76	238	724	5	0	0	574959	684	0	correct_rejection	NA	0
39	Single	77	239	725	0	1	1	575676	683	1	hit	595	0
39	Single	78	240	726	9	0	0	576393	683	0	correct_rejection	NA	0
39	Single	79	241	727	9	0	0	577109	684	0	correct_rejection	NA	0
39	Single	80	242	728	8	0	0	577826	683	0	correct_rejection	NA	0
39	Single	81	243	729	6	0	0	578543	683	0	correct_rejection	NA	0
39	Single	82	244	730	6	0	0	579259	684	0	correct_rejection	NA	0
39	Single	83	245	731	7	0	0	579976	683	0	correct_rejection	NA	0
39	Single	84	246	732	7	0	0	580692	684	0	correct_rejection	NA	0
39	Single	85	247	733	5	0	0	581409	684	0	correct_rejection	NA	0
39	Single	86	248	734	7	0	0	582126	683	0	correct_rejection	NA	0
39	Single	87	249	735	9	0	0	582842	684	0	correct_rejection	NA	0
39	Single	88	250	736	9	0	0	583559	683	0	correct_rejection	NA	0
39	Single	89	251	737	7	0	0	584276	683	0	correct_rejection	NA	0
39	Single	90	252	738	7	0	0	584992	684	0	correct_rejection	NA	0
39	Single	91	253	739	4	0	0	585709	683	0	correct_rejection	NA	0
39	Single	92	254	740	8	0	0	586426	683	0	correct_rejection	NA	0
39	Single	93	255	741	7	0	0	587142	684	0	correct_rejection	NA	0
39	Single	94	256	742	6	0	0	587859	683	0	correct_rejection	NA	0
39	Single	95	257	743	5	0	0	588576	683	0	correct_rejection	NA	0
39	Single	96	258	744	6	0	0	589292	684	0	correct_rejection	NA	0
39	Single	97	259	745	7	0	0	590009	683	0	correct_rejection	NA	0
39	Single	98	260	746	8	0	0	590726	683	0	correct_rejection	NA	0
39	Single	99	261	747	5	0	0	591442	684	0	correct_rejection	NA	0
39	Single	100	262	748	9	0	0	592159	683	0	correct_rejection	NA	0
39	Single	101	263	749	4	0	0	592876	683	0	correct_rejection	NA	0
39	Single	102	264	750	4	0	0	593592	684	0	correct_rejection	NA	0
39	Single	103	265	751	9	0	0	594309	683	0	correct_rejection	NA	0
39	Single	104	266	752	0	1	1	595026	683	0	miss	NA	0
39	Single	105	267	753	8	0	0	595742	684	0	correct_rejection	NA	0
39	Single	106	268	754	9	0	0	596459	683	0	correct_rejection	NA	0
39	Single	107	269	755	6	0	0	597176	683	0	correct_rejection	NA	0
39	Single	108	270	756	9	0	0	597892	684	0	correct_rejection	NA	0
39	Single	109	271	757	0	1	1	598609	683	0	miss	NA	0
39	Single	110	272	758	5	0	0	599326	683	0	correct_rejection	NA	0
39	Single	111	273	759	8	0	0	600042	684	0	correct_rejection	NA	0
39	Single	112	274	760	4	0	0	600759	683	0	correct_rejection	NA	0
39	Single	113	275	761	5	0	0	601476	683	0	correct_rejection	NA	0
39	Single	114	276	762	5	0	0	602192	684	0	correct_rejection	NA	0
39	Single	115	277	763	4	0	0	602909	683	0	correct_rejection	NA	0
39	Single	116	278	764	6	0	0	603626	683	0	correct_rejection	NA	0
39	Single	117	279	765	6	0	0	604342	684	0	correct_rejection	NA	0
39	Single	118	280	766	8	0	0	605059	683	0	correct_rejection	NA	0
39	Single	119	281	767	8	0	0	605776	683	0	correct_rejection	NA	0
39	Single	120	282	768	6	0	0	606492	684	0	correct_rejection	NA	0
39	Single	121	283	769	4	0	0	607209	683	0	correct_rejection	NA	0
39	Single	122	284	770	8	0	0	607925	684	0	correct_rejection	NA	0
39	Single	123	285	771	4	0	0	608642	684	0	correct_rejection	NA	0
39	Single	124	286	772	6	0	0	609359	683	0	correct_rejection	NA	0
39	Single	125	287	773	0	1	1	610075	684	1	hit	566	0
39	Single	126	288	774	9	0	0	610792	683	0	correct_rejection	NA	0
39	Single	127	289	775	8	0	0	611509	683	0	correct_rejection	NA	0
39	Single	128	290	776	8	0	0	612225	684	0	correct_rejection	NA	0
39	Single	129	291	777	0	1	1	612942	683	1	hit	629	0
39	Single	130	292	778	9	0	0	613659	683	0	correct_rejection	NA	0
39	Single	131	293	779	5	0	0	614375	684	0	correct_rejection	NA	0
39	Single	132	294	780	9	0	0	615092	683	0	correct_rejection	NA	0
39	Single	133	295	781	7	0	0	615809	683	0	correct_rejection	NA	0
39	Single	134	296	782	5	0	0	616525	684	0	correct_rejection	NA	0
39	Single	135	297	783	8	0	0	617242	683	0	correct_rejection	NA	0
39	Single	136	298	784	5	0	0	617959	683	0	correct_rejection	NA	0
39	Single	137	299	785	5	0	0	618675	684	0	correct_rejection	NA	0
39	Single	138	300	786	6	0	0	619392	683	0	correct_rejection	NA	0
39	Single	139	301	787	8	0	0	620109	683	0	correct_rejection	NA	0
39	Single	140	302	788	0	1	1	620825	684	1	hit	655	0
39	Single	141	303	789	6	0	0	621542	683	0	correct_rejection	NA	0
39	Single	142	304	790	7	0	0	622259	683	0	correct_rejection	NA	0
39	Single	143	305	791	9	0	0	622975	684	0	correct_rejection	NA	0
39	Single	144	306	792	6	0	0	623692	683	0	correct_rejection	NA	0
39	Single	145	307	793	0	1	1	624409	683	1	hit	477	0
39	Single	146	308	794	5	0	0	625125	684	0	correct_rejection	NA	0
39	Single	147	309	795	4	0	0	625842	683	0	correct_rejection	NA	0
39	Single	148	310	796	0	1	1	626559	683	0	miss	NA	0
39	Single	149	311	797	5	0	0	627275	684	0	correct_rejection	NA	0
39	Single	150	312	798	7	0	0	627992	683	0	correct_rejection	NA	0
39	Single	151	313	799	8	0	0	628709	683	0	correct_rejection	NA	0
39	Single	152	314	800	7	0	0	629425	684	0	correct_rejection	NA	0
39	Single	153	315	801	4	0	0	630142	683	0	correct_rejection	NA	0
39	Single	154	316	802	4	0	0	630859	683	0	correct_rejection	NA	0
39	Single	155	317	803	7	0	0	631575	684	0	correct_rejection	NA	0
39	Single	156	318	804	7	0	0	632292	683	0	correct_rejection	NA	0
39	Single	157	319	805	6	0	0	633009	683	0	correct_rejection	NA	0
39	Single	158	320	806	6	0	0	633725	684	0	correct_rejection	NA	0
39	Single	159	321	807	4	0	0	634442	683	0	correct_rejection	NA	0
39	Single	160	322	808	9	0	0	635158	684	0	correct_rejection	NA	0
39	Single	161	323	809	9	0	0	635875	684	0	correct_rejection	NA	0
39	Single	162	324	810	4	0	0	636592	683	0	correct_rejection	NA	0
trigger nr 629 at 639128
trigger nr 632 at 712443
39	Correct	1	163	811	4	0	0	719007	684	0	correct_rejection	NA	6496
39	Correct	2	164	812	5	0	0	719724	684	0	correct_rejection	NA	0
39	Correct	3	165	813	6	0	0	720441	683	0	correct_rejection	NA	0
39	Correct	4	166	814	4	0	0	721157	684	0	correct_rejection	NA	0
39	Correct	5	167	815	5	0	0	721874	683	0	correct_rejection	NA	0
39	Correct	6	168	816	6	0	0	722591	683	0	correct_rejection	NA	0
39	Correct	7	169	817	4	0	0	723307	684	0	correct_rejection	NA	0
39	Correct	8	170	818	0	1	1	724024	683	0	miss	NA	0
39	Correct	9	171	819	5	0	0	724741	683	0	correct_rejection	NA	0
39	Correct	10	172	820	6	0	0	725457	684	0	correct_rejection	NA	0
39	Correct	11	173	821	6	0	0	726174	683	0	correct_rejection	NA	0
39	Correct	12	174	822	5	0	0	726891	683	0	correct_rejection	NA	0
39	Correct	13	175	823	4	0	0	727607	684	0	correct_rejection	NA	0
39	Correct	14	176	824	0	1	2	728324	683	0	miss	NA	0
39	Correct	15	177	825	6	0	0	729041	683	0	correct_rejection	NA	0
39	Correct	16	178	826	5	0	0	729757	684	0	correct_rejection	NA	0
39	Correct	17	179	827	4	0	0	730474	683	0	correct_rejection	NA	0
39	Correct	18	180	828	6	0	0	731191	683	0	correct_rejection	NA	0
39	Correct	19	181	829	5	0	0	731907	684	0	correct_rejection	NA	0
39	Correct	20	182	830	4	0	0	732624	683	0	correct_rejection	NA	0
39	Correct	21	183	831	0	1	3	733341	683	1	hit	485	0
39	Correct	22	184	832	9	0	0	734057	684	0	correct_rejection	NA	0
39	Correct	23	185	833	8	0	0	734774	683	0	correct_rejection	NA	0
39	Correct	24	186	834	7	0	0	735491	683	0	correct_rejection	NA	0
39	Correct	25	187	835	0	1	2	736207	684	1	hit	438	0
39	Correct	26	188	836	9	0	0	736924	683	0	correct_rejection	NA	0
39	Correct	27	189	837	8	0	0	737641	683	0	correct_rejection	NA	0
39	Correct	28	190	838	0	1	1	738357	684	1	hit	485	0
39	Correct	29	191	839	7	0	0	739074	683	0	correct_rejection	NA	0
39	Correct	30	192	840	9	0	0	739791	683	0	correct_rejection	NA	0
39	Correct	31	193	841	8	0	0	740507	684	0	correct_rejection	NA	0
39	Correct	32	194	842	7	0	0	741224	683	0	correct_rejection	NA	0
39	Correct	33	195	843	0	1	3	741941	683	1	hit	442	0
39	Correct	34	196	844	7	0	0	742657	684	0	correct_rejection	NA	0
39	Correct	35	197	845	8	0	0	743374	683	0	correct_rejection	NA	0
39	Correct	36	198	846	9	0	0	744091	683	0	correct_rejection	NA	0
39	Correct	37	199	847	7	0	0	744807	684	0	correct_rejection	NA	0
39	Correct	38	200	848	8	0	0	745524	683	0	correct_rejection	NA	0
39	Correct	39	201	849	9	0	0	746240	684	0	correct_rejection	NA	0
39	Correct	40	202	850	7	0	0	746957	683	0	correct_rejection	NA	0
39	Correct	41	203	851	8	0	0	747674	683	0	correct_rejection	NA	0
39	Correct	42	204	852	9	0	0	748390	684	0	correct_rejection	NA	0
39	Correct	43	205	853	4	0	0	749107	683	0	correct_rejection	NA	0
39	Correct	44	206	854	5	0	0	749824	683	0	correct_rejection	NA	0
39	Correct	45	207	855	6	0	0	750540	684	0	correct_rejection	NA	0
39	Correct	46	208	856	4	0	0	751257	683	0	correct_rejection	NA	0
39	Correct	47	209	857	5	0	0	751974	683	0	correct_rejection	NA	0
39	Correct	48	210	858	6	0	0	752690	684	0	correct_rejection	NA	0
39	Correct	49	211	859	4	0	0	753407	683	0	correct_rejection	NA	0
39	Correct	50	212	860	5	0	0	754124	683	0	correct_rejection	NA	0
39	Correct	51	213	861	6	0	0	754840	684	0	correct_rejection	NA	0
39	Correct	52	214	862	6	0	0	755557	683	0	correct_rejection	NA	0
39	Correct	53	215	863	5	0	0	756274	683	0	correct_rejection	NA	0
39	Correct	54	216	864	4	0	0	756990	684	0	correct_rejection	NA	0
39	Correct	55	217	865	6	0	0	757707	683	0	correct_rejection	NA	0
39	Correct	56	218	866	5	0	0	758424	683	0	correct_rejection	NA	0
39	Correct	57	219	867	4	0	0	759140	684	0	correct_rejection	NA	0
39	Correct	58	220	868	6	0	0	759857	683	0	correct_rejection	NA	0
39	Correct	59	221	869	5	0	0	760574	683	0	correct_rejection	NA	0
39	Correct	60	222	870	0	1	1	761290	684	1	hit	524	0
39	Correct	61	223	871	4	0	0	762007	683	0	correct_rejection	NA	0
39	Correct	62	224	872	9	0	0	762724	683	0	correct_rejection	NA	0
39	Correct	63	225	873	0	1	1	763440	684	1	hit	629	0
39	Correct	64	226	874	8	0	0	764157	683	0	correct_rejection	NA	0
39	Correct	65	227	875	7	0	0	764874	683	0	correct_rejection	NA	0
39	Correct	66	228	876	9	0	0	765590	684	0	correct_rejection	NA	0
39	Correct	67	229	877	8	0	0	766307	683	0	correct_rejection	NA	0
39	Correct	68	230	878	7	0	0	767024	683	0	correct_rejection	NA	0
39	Correct	69	231	879	9	0	0	767740	684	0	correct_rejection	NA	0
39	Correct	70	232	880	8	0	0	768457	683	0	correct_rejection	NA	0
39	Correct	71	233	881	7	0	0	769174	683	0	correct_rejection	NA	0
39	Correct	72	234	882	7	0	0	769890	684	0	correct_rejection	NA	0
39	Correct	73	235	883	8	0	0	770607	683	0	correct_rejection	NA	0
39	Correct	74	236	884	0	1	1	771324	683	0	miss	NA	0
39	Correct	75	237	885	9	0	0	772040	684	0	correct_rejection	NA	0
39	Correct	76	238	886	7	0	0	772757	683	0	correct_rejection	NA	0
39	Correct	77	239	887	0	1	1	773474	683	0	miss	NA	0
39	Correct	78	240	888	8	0	0	774190	684	0	correct_rejection	NA	0
39	Correct	79	241	889	9	0	0	774907	683	0	correct_rejection	NA	0
39	Correct	80	242	890	7	0	0	775623	684	0	correct_rejection	NA	0
39	Correct	81	243	891	0	1	1	776340	683	1	hit	535	0
39	Correct	82	244	892	8	0	0	777057	683	0	correct_rejection	NA	0
39	Correct	83	245	893	9	0	0	777773	684	0	correct_rejection	NA	0
39	Correct	84	246	894	4	0	0	778490	683	0	correct_rejection	NA	0
39	Correct	85	247	895	5	0	0	779207	683	0	correct_rejection	NA	0
39	Correct	86	248	896	6	0	0	779923	684	0	correct_rejection	NA	0
39	Correct	87	249	897	0	1	2	780640	683	0	miss	NA	0
39	Correct	88	250	898	4	0	0	781357	683	0	correct_rejection	NA	0
39	Correct	89	251	899	5	0	0	782073	684	0	correct_rejection	NA	0
39	Correct	90	252	900	6	0	0	782790	683	0	correct_rejection	NA	0
39	Correct	91	253	901	4	0	0	783507	683	0	correct_rejection	NA	0
39	Correct	92	254	902	5	0	0	784223	684	0	correct_rejection	NA	0
39	Correct	93	255	903	6	0	0	784940	683	0	correct_rejection	NA	0
39	Correct	94	256	904	6	0	0	785657	683	0	correct_rejection	NA	0
39	Correct	95	257	905	0	1	1	786373	684	0	miss	NA	0
39	Correct	96	258	906	5	0	0	787090	683	0	correct_rejection	NA	0
39	Correct	97	259	907	4	0	0	787807	683	0	correct_rejection	NA	0
39	Correct	98	260	908	6	0	0	788523	684	0	correct_rejection	NA	0
39	Correct	99	261	909	5	0	0	789240	683	0	correct_rejection	NA	0
39	Correct	100	262	910	4	0	0	789957	683	0	correct_rejection	NA	0
39	Correct	101	263	911	6	0	0	790673	684	0	correct_rejection	NA	0
39	Correct	102	264	912	5	0	0	791390	683	0	correct_rejection	NA	0
39	Correct	103	265	913	4	0	0	792107	683	0	correct_rejection	NA	0
39	Correct	104	266	914	9	0	0	792823	684	0	correct_rejection	NA	0
39	Correct	105	267	915	8	0	0	793540	683	0	correct_rejection	NA	0
39	Correct	106	268	916	7	0	0	794257	683	0	correct_rejection	NA	0
39	Correct	107	269	917	9	0	0	794973	684	0	correct_rejection	NA	0
39	Correct	108	270	918	8	0	0	795690	683	0	correct_rejection	NA	0
39	Correct	109	271	919	7	0	0	796407	683	0	correct_rejection	NA	0
39	Correct	110	272	920	9	0	0	797123	684	0	correct_rejection	NA	0
39	Correct	111	273	921	8	0	0	797840	683	0	correct_rejection	NA	0
39	Correct	112	274	922	7	0	0	798557	683	0	correct_rejection	NA	0
39	Correct	113	275	923	7	0	0	799273	684	0	correct_rejection	NA	0
39	Correct	114	276	924	8	0	0	799990	683	0	correct_rejection	NA	0
39	Correct	115	277	925	0	1	1	800706	684	0	miss	NA	0
39	Correct	116	278	926	9	0	0	801423	684	0	correct_rejection	NA	0
39	Correct	117	279	927	7	0	0	802140	683	0	correct_rejection	NA	0
39	Correct	118	280	928	8	0	0	802856	684	0	correct_rejection	NA	0
39	Correct	119	281	929	9	0	0	803573	683	0	correct_rejection	NA	0
39	Correct	120	282	930	0	1	2	804290	683	0	miss	NA	0
39	Correct	121	283	931	7	0	0	805006	684	0	correct_rejection	NA	0
39	Correct	122	284	932	8	0	0	805723	683	0	correct_rejection	NA	0
39	Correct	123	285	933	9	0	0	806440	683	0	correct_rejection	NA	0
39	Correct	124	286	934	4	0	0	807156	684	0	correct_rejection	NA	0
39	Correct	125	287	935	5	0	0	807873	683	0	correct_rejection	NA	0
39	Correct	126	288	936	0	1	1	808590	683	1	hit	458	0
39	Correct	127	289	937	6	0	0	809306	684	0	correct_rejection	NA	0
39	Correct	128	290	938	4	0	0	810023	683	0	correct_rejection	NA	0
39	Correct	129	291	939	5	0	0	810740	683	0	correct_rejection	NA	0
39	Correct	130	292	940	6	0	0	811456	684	0	correct_rejection	NA	0
39	Correct	131	293	941	4	0	0	812173	683	0	correct_rejection	NA	0
39	Correct	132	294	942	5	0	0	812890	683	0	correct_rejection	NA	0
39	Correct	133	295	943	6	0	0	813606	684	0	correct_rejection	NA	0
39	Correct	134	296	944	6	0	0	814323	683	0	correct_rejection	NA	0
39	Correct	135	297	945	5	0	0	815040	683	0	correct_rejection	NA	0
39	Correct	136	298	946	4	0	0	815756	684	0	correct_rejection	NA	0
39	Correct	137	299	947	6	0	0	816473	683	0	correct_rejection	NA	0
39	Correct	138	300	948	5	0	0	817190	683	0	correct_rejection	NA	0
39	Correct	139	301	949	4	0	0	817906	684	0	correct_rejection	NA	0
39	Correct	140	302	950	6	0	0	818623	683	0	correct_rejection	NA	0
39	Correct	141	303	951	5	0	0	819340	683	0	correct_rejection	NA	0
39	Correct	142	304	952	4	0	0	820056	684	0	correct_rejection	NA	0
39	Correct	143	305	953	9	0	0	820773	683	0	correct_rejection	NA	0
39	Correct	144	306	954	8	0	0	821490	683	0	correct_rejection	NA	0
39	Correct	145	307	955	7	0	0	822206	684	0	correct_rejection	NA	0
39	Correct	146	308	956	9	0	0	822923	683	0	correct_rejection	NA	0
39	Correct	147	309	957	8	0	0	823640	683	0	correct_rejection	NA	0
39	Correct	148	310	958	0	1	1	824356	684	0	miss	NA	0
39	Correct	149	311	959	7	0	0	825073	683	0	correct_rejection	NA	0
39	Correct	150	312	960	9	0	0	825790	683	0	correct_rejection	NA	0
39	Correct	151	313	961	8	0	0	826506	684	0	correct_rejection	NA	0
39	Correct	152	314	962	7	0	0	827223	683	0	correct_rejection	NA	0
39	Correct	153	315	963	7	0	0	827940	683	0	correct_rejection	NA	0
39	Correct	154	316	964	0	1	1	828656	684	0	miss	NA	0
39	Correct	155	317	965	8	0	0	829373	683	0	correct_rejection	NA	0
39	Correct	156	318	966	9	0	0	830089	684	0	correct_rejection	NA	0
39	Correct	157	319	967	7	0	0	830806	683	0	correct_rejection	NA	0
39	Correct	158	320	968	8	0	0	831523	683	0	correct_rejection	NA	0
39	Correct	159	321	969	9	0	0	832239	684	0	correct_rejection	NA	0
39	Correct	160	322	970	7	0	0	832956	683	0	correct_rejection	NA	0
39	Correct	161	323	971	8	0	0	833673	683	0	correct_rejection	NA	0
39	Correct	162	324	972	9	0	0	834389	684	0	correct_rejection	NA	0
39	Single	1	325	973	9	0	0	844139	684	0	correct_rejection	NA	7617
39	Single	2	326	974	5	0	0	844856	683	0	correct_rejection	NA	0
39	Single	3	327	975	7	0	0	845573	683	0	correct_rejection	NA	0
39	Single	4	328	976	6	0	0	846289	684	0	correct_rejection	NA	0
39	Single	5	329	977	0	1	1	847006	683	0	miss	NA	0
39	Single	6	330	978	9	0	0	847723	683	1	false_alarm	209	0
39	Single	7	331	979	4	0	0	848439	684	0	correct_rejection	NA	0
39	Single	8	332	980	4	0	0	849156	683	0	correct_rejection	NA	0
39	Single	9	333	981	7	0	0	849873	683	0	correct_rejection	NA	0
39	Single	10	334	982	8	0	0	850589	684	0	correct_rejection	NA	0
39	Single	11	335	983	5	0	0	851306	683	0	correct_rejection	NA	0
39	Single	12	336	984	9	0	0	852023	683	0	correct_rejection	NA	0
39	Single	13	337	985	0	1	1	852739	684	0	miss	NA	0
39	Single	14	338	986	8	0	0	853456	683	0	correct_rejection	NA	0
39	Single	15	339	987	6	0	0	854173	683	0	correct_rejection	NA	0
39	Single	16	340	988	7	0	0	854889	684	0	correct_rejection	NA	0
39	Single	17	341	989	4	0	0	855606	683	0	correct_rejection	NA	0
39	Single	18	342	990	0	1	1	856323	683	1	hit	544	0
39	Single	19	343	991	5	0	0	857039	684	0	correct_rejection	NA	0
39	Single	20	344	992	8	0	0	857756	683	0	correct_rejection	NA	0
39	Single	21	345	993	8	0	0	858472	684	0	correct_rejection	NA	0
39	Single	22	346	994	9	0	0	859189	683	0	correct_rejection	NA	0
39	Single	23	347	995	7	0	0	859906	683	0	correct_rejection	NA	0
39	Single	24	348	996	5	0	0	860622	684	0	correct_rejection	NA	0
39	Single	25	349	997	5	0	0	861339	683	0	correct_rejection	NA	0
39	Single	26	350	998	4	0	0	862056	683	0	correct_rejection	NA	0
39	Single	27	351	999	9	0	0	862772	684	0	correct_rejection	NA	0
39	Single	28	352	1000	9	0	0	863489	683	0	correct_rejection	NA	0
39	Single	29	353	1001	6	0	0	864206	683	0	correct_rejection	NA	0
39	Single	30	354	1002	8	0	0	864922	684	0	correct_rejection	NA	0
39	Single	31	355	1003	4	0	0	865639	683	0	correct_rejection	NA	0
39	Single	32	356	1004	6	0	0	866356	683	0	correct_rejection	NA	0
39	Single	33	357	1005	0	1	1	867072	684	1	hit	577	0
39	Single	34	358	1006	6	0	0	867789	683	0	correct_rejection	NA	0
39	Single	35	359	1007	5	0	0	868506	683	0	correct_rejection	NA	0
39	Single	36	360	1008	6	0	0	869222	684	0	correct_rejection	NA	0
39	Single	37	361	1009	4	0	0	869939	683	0	correct_rejection	NA	0
39	Single	38	362	1010	8	0	0	870656	683	0	correct_rejection	NA	0
39	Single	39	363	1011	7	0	0	871372	684	0	correct_rejection	NA	0
39	Single	40	364	1012	7	0	0	872089	683	0	correct_rejection	NA	0
39	Single	41	365	1013	5	0	0	872806	683	0	correct_rejection	NA	0
39	Single	42	366	1014	8	0	0	873522	684	0	correct_rejection	NA	0
39	Single	43	367	1015	4	0	0	874239	683	0	correct_rejection	NA	0
39	Single	44	368	1016	5	0	0	874956	683	0	correct_rejection	NA	0
39	Single	45	369	1017	6	0	0	875672	684	0	correct_rejection	NA	0
39	Single	46	370	1018	8	0	0	876389	683	0	correct_rejection	NA	0
39	Single	47	371	1019	6	0	0	877106	683	0	correct_rejection	NA	0
39	Single	48	372	1020	6	0	0	877822	684	0	correct_rejection	NA	0
39	Single	49	373	1021	0	1	1	878539	683	0	miss	NA	0
39	Single	50	374	1022	4	0	0	879256	683	1	false_alarm	0	0
39	Single	51	375	1023	7	0	0	879972	684	0	correct_rejection	NA	0
39	Single	52	376	1024	9	0	0	880689	683	0	correct_rejection	NA	0
39	Single	53	377	1025	0	1	1	881406	683	0	miss	NA	0
39	Single	54	378	1026	7	0	0	882122	684	0	correct_rejection	NA	0
39	Single	55	379	1027	7	0	0	882839	683	0	correct_rejection	NA	0
39	Single	56	380	1028	8	0	0	883556	683	0	correct_rejection	NA	0
39	Single	57	381	1029	0	1	1	884272	684	0	miss	NA	0
39	Single	58	382	1030	7	0	0	884989	683	0	correct_rejection	NA	0
39	Single	59	383	1031	4	0	0	885705	684	0	correct_rejection	NA	0
39	Single	60	384	1032	0	1	1	886422	683	1	hit	625	0
39	Single	61	385	1033	9	0	0	887139	683	0	correct_rejection	NA	0
39	Single	62	386	1034	8	0	0	887855	684	0	correct_rejection	NA	0
39	Single	63	387	1035	9	0	0	888572	683	0	correct_rejection	NA	0
39	Single	64	388	1036	5	0	0	889289	683	0	correct_rejection	NA	0
39	Single	65	389	1037	5	0	0	890005	684	0	correct_rejection	NA	0
39	Single	66	390	1038	7	0	0	890722	683	0	correct_rejection	NA	0
39	Single	67	391	1039	5	0	0	891439	683	0	correct_rejection	NA	0
39	Single	68	392	1040	9	0	0	892155	684	0	correct_rejection	NA	0
39	Single	69	393	1041	6	0	0	892872	683	0	correct_rejection	NA	0
39	Single	70	394	1042	9	0	0	893589	683	0	correct_rejection	NA	0
39	Single	71	395	1043	9	0	0	894305	684	0	correct_rejection	NA	0
39	Single	72	396	1044	4	0	0	895022	683	0	correct_rejection	NA	0
39	Single	73	397	1045	6	0	0	895739	683	0	correct_rejection	NA	0
39	Single	74	398	1046	7	0	0	896455	684	0	correct_rejection	NA	0
39	Single	75	399	1047	6	0	0	897172	683	0	correct_rejection	NA	0
39	Single	76	400	1048	5	0	0	897889	683	0	correct_rejection	NA	0
39	Single	77	401	1049	0	1	1	898605	684	1	hit	426	0
39	Single	78	402	1050	4	0	0	899322	683	0	correct_rejection	NA	0
39	Single	79	403	1051	4	0	0	900039	683	0	correct_rejection	NA	0
39	Single	80	404	1052	8	0	0	900755	684	0	correct_rejection	NA	0
39	Single	81	405	1053	8	0	0	901472	683	0	correct_rejection	NA	0
39	Single	82	406	1054	0	1	1	902189	683	1	hit	571	0
39	Single	83	407	1055	8	0	0	902905	684	0	correct_rejection	NA	0
39	Single	84	408	1056	4	0	0	903622	683	0	correct_rejection	NA	0
39	Single	85	409	1057	9	0	0	904339	683	0	correct_rejection	NA	0
39	Single	86	410	1058	7	0	0	905055	684	0	correct_rejection	NA	0
39	Single	87	411	1059	4	0	0	905772	683	0	correct_rejection	NA	0
39	Single	88	412	1060	8	0	0	906489	683	0	correct_rejection	NA	0
39	Single	89	413	1061	9	0	0	907205	684	0	correct_rejection	NA	0
39	Single	90	414	1062	4	0	0	907922	683	0	correct_rejection	NA	0
39	Single	91	415	1063	7	0	0	908639	683	0	correct_rejection	NA	0
39	Single	92	416	1064	6	0	0	909355	684	0	correct_rejection	NA	0
39	Single	93	417	1065	6	0	0	910072	683	0	correct_rejection	NA	0
39	Single	94	418	1066	0	1	1	910789	683	0	miss	NA	0
39	Single	95	419	1067	8	0	0	911505	684	0	correct_rejection	NA	0
39	Single	96	420	1068	8	0	0	912222	683	0	correct_rejection	NA	0
39	Single	97	421	1069	5	0	0	912938	684	0	correct_rejection	NA	0
39	Single	98	422	1070	5	0	0	913655	683	0	correct_rejection	NA	0
39	Single	99	423	1071	6	0	0	914372	683	0	correct_rejection	NA	0
39	Single	100	424	1072	0	1	1	915088	684	0	miss	NA	0
39	Single	101	425	1073	7	0	0	915805	683	0	correct_rejection	NA	0
39	Single	102	426	1074	9	0	0	916522	683	0	correct_rejection	NA	0
39	Single	103	427	1075	6	0	0	917238	684	0	correct_rejection	NA	0
39	Single	104	428	1076	4	0	0	917955	683	0	correct_rejection	NA	0
39	Single	105	429	1077	4	0	0	918672	683	0	correct_rejection	NA	0
39	Single	106	430	1078	6	0	0	919388	684	0	correct_rejection	NA	0
39	Single	107	431	1079	9	0	0	920105	683	0	correct_rejection	NA	0
39	Single	108	432	1080	5	0	0	920822	683	0	correct_rejection	NA	0
39	Single	109	433	1081	4	0	0	921538	684	0	correct_rejection	NA	0
39	Single	110	434	1082	5	0	0	922255	683	0	correct_rejection	NA	0
39	Single	111	435	1083	9	0	0	922972	683	0	correct_rejection	NA	0
39	Single	112	436	1084	9	0	0	923688	684	0	correct_rejection	NA	0
39	Single	113	437	1085	8	0	0	924405	683	0	correct_rejection	NA	0
39	Single	114	438	1086	7	0	0	925122	683	0	correct_rejection	NA	0
39	Single	115	439	1087	8	0	0	925838	684	0	correct_rejection	NA	0
39	Single	116	440	1088	6	0	0	926555	683	0	correct_rejection	NA	0
39	Single	117	441	1089	5	0	0	927272	683	0	correct_rejection	NA	0
39	Single	118	442	1090	7	0	0	927988	684	0	correct_rejection	NA	0
39	Single	119	443	1091	7	0	0	928705	683	0	correct_rejection	NA	0
39	Single	120	444	1092	5	0	0	929422	683	0	correct_rejection	NA	0
39	Single	121	445	1093	8	0	0	930138	684	0	correct_rejection	NA	0
39	Single	122	446	1094	7	0	0	930855	683	0	correct_rejection	NA	0
39	Single	123	447	1095	9	0	0	931572	683	0	correct_rejection	NA	0
39	Single	124	448	1096	0	1	1	932288	684	1	hit	536	0
39	Single	125	449	1097	9	0	0	933005	683	0	correct_rejection	NA	0
39	Single	126	450	1098	6	0	0	933722	683	0	correct_rejection	NA	0
39	Single	127	451	1099	0	1	1	934438	684	1	hit	448	0
39	Single	128	452	1100	5	0	0	935155	683	0	correct_rejection	NA	0
39	Single	129	453	1101	5	0	0	935872	683	0	correct_rejection	NA	0
39	Single	130	454	1102	9	0	0	936588	684	0	correct_rejection	NA	0
39	Single	131	455	1103	4	0	0	937305	683	0	correct_rejection	NA	0
39	Single	132	456	1104	9	0	0	938022	683	0	correct_rejection	NA	0
39	Single	133	457	1105	5	0	0	938738	684	0	correct_rejection	NA	0
39	Single	134	458	1106	7	0	0	939455	683	0	correct_rejection	NA	0
39	Single	135	459	1107	4	0	0	940171	684	0	correct_rejection	NA	0
39	Single	136	460	1108	4	0	0	940888	684	0	correct_rejection	NA	0
39	Single	137	461	1109	5	0	0	941605	683	0	correct_rejection	NA	0
39	Single	138	462	1110	8	0	0	942321	684	0	correct_rejection	NA	0
39	Single	139	463	1111	8	0	0	943038	683	0	correct_rejection	NA	0
39	Single	140	464	1112	0	1	1	943755	683	0	miss	NA	0
39	Single	141	465	1113	9	0	0	944471	684	0	correct_rejection	NA	0
39	Single	142	466	1114	7	0	0	945188	683	0	correct_rejection	NA	0
39	Single	143	467	1115	8	0	0	945905	683	0	correct_rejection	NA	0
39	Single	144	468	1116	4	0	0	946621	684	0	correct_rejection	NA	0
39	Single	145	469	1117	8	0	0	947338	683	0	correct_rejection	NA	0
39	Single	146	470	1118	6	0	0	948055	683	0	correct_rejection	NA	0
39	Single	147	471	1119	9	0	0	948771	684	0	correct_rejection	NA	0
39	Single	148	472	1120	8	0	0	949488	683	0	correct_rejection	NA	0
39	Single	149	473	1121	0	1	1	950205	683	0	miss	NA	0
39	Single	150	474	1122	5	0	0	950921	684	0	correct_rejection	NA	0
39	Single	151	475	1123	4	0	0	951638	683	0	correct_rejection	NA	0
39	Single	152	476	1124	0	1	1	952355	683	0	miss	NA	0
39	Single	153	477	1125	7	0	0	953071	684	0	correct_rejection	NA	0
39	Single	154	478	1126	5	0	0	953788	683	0	correct_rejection	NA	0
39	Single	155	479	1127	0	1	1	954505	683	0	miss	NA	0
39	Single	156	480	1128	6	0	0	955221	684	0	correct_rejection	NA	0
39	Single	157	481	1129	6	0	0	955938	683	0	correct_rejection	NA	0
39	Single	158	482	1130	7	0	0	956655	683	0	correct_rejection	NA	0
39	Single	159	483	1131	7	0	0	957371	684	0	correct_rejection	NA	0
39	Single	160	484	1132	6	0	0	958088	683	0	correct_rejection	NA	0
39	Single	161	485	1133	4	0	0	958805	683	0	correct_rejection	NA	0
39	Single	162	486	1134	6	0	0	959521	684	0	correct_rejection	NA	0
39	Triplet	1	487	1135	6	0	0	968738	683	0	correct_rejection	NA	7227
39	Triplet	2	488	1136	5	0	0	969454	684	0	correct_rejection	NA	0
39	Triplet	3	489	1137	4	0	0	970171	683	0	correct_rejection	NA	0
39	Triplet	4	490	1138	4	0	0	970888	683	0	correct_rejection	NA	0
39	Triplet	5	491	1139	5	0	0	971604	684	0	correct_rejection	NA	0
39	Triplet	6	492	1140	6	0	0	972321	683	0	correct_rejection	NA	0
39	Triplet	7	493	1141	9	0	0	973038	683	0	correct_rejection	NA	0
39	Triplet	8	494	1142	8	0	0	973754	684	0	correct_rejection	NA	0
39	Triplet	9	495	1143	7	0	0	974471	683	0	correct_rejection	NA	0
39	Triplet	10	496	1144	0	1	2	975188	683	0	miss	NA	0
39	Triplet	11	497	1145	4	0	0	975904	684	0	correct_rejection	NA	0
39	Triplet	12	498	1146	5	0	0	976621	683	0	correct_rejection	NA	0
39	Triplet	13	499	1147	0	1	1	977338	683	0	miss	NA	0
39	Triplet	14	500	1148	6	0	0	978054	684	0	correct_rejection	NA	0
39	Triplet	15	501	1149	6	0	0	978771	683	0	correct_rejection	NA	0
39	Triplet	16	502	1150	5	0	0	979488	683	0	correct_rejection	NA	0
39	Triplet	17	503	1151	0	1	1	980204	684	0	miss	NA	0
39	Triplet	18	504	1152	4	0	0	980921	683	0	correct_rejection	NA	0
39	Triplet	19	505	1153	6	0	0	981638	683	0	correct_rejection	NA	0
39	Triplet	20	506	1154	5	0	0	982354	684	0	correct_rejection	NA	0
39	Triplet	21	507	1155	4	0	0	983071	683	0	correct_rejection	NA	0
39	Triplet	22	508	1156	7	0	0	983788	683	0	correct_rejection	NA	0
39	Triplet	23	509	1157	0	1	1	984504	684	1	hit	433	0
39	Triplet	24	510	1158	8	0	0	985221	683	0	correct_rejection	NA	0
39	Triplet	25	511	1159	9	0	0	985938	683	0	correct_rejection	NA	0
39	Triplet	26	512	1160	6	0	0	986654	684	0	correct_rejection	NA	0
39	Triplet	27	513	1161	0	1	1	987371	683	1	hit	466	0
39	Triplet	28	514	1162	5	0	0	988088	683	0	correct_rejection	NA	0
39	Triplet	29	515	1163	4	0	0	988804	684	0	correct_rejection	NA	0
39	Triplet	30	516	1164	9	0	0	989521	683	0	correct_rejection	NA	0
39	Triplet	31	517	1165	0	1	1	990238	683	1	hit	421	0
39	Triplet	32	518	1166	8	0	0	990954	684	0	correct_rejection	NA	0
39	Triplet	33	519	1167	7	0	0	991671	683	0	correct_rejection	NA	0
39	Triplet	34	520	1168	9	0	0	992388	683	0	correct_rejection	NA	0
39	Triplet	35	521	1169	8	0	0	993104	684	0	correct_rejection	NA	0
39	Triplet	36	522	1170	0	1	1	993821	683	1	hit	476	0
39	Triplet	37	523	1171	7	0	0	994537	684	0	correct_rejection	NA	0
39	Triplet	38	524	1172	7	0	0	995254	684	0	correct_rejection	NA	0
39	Triplet	39	525	1173	8	0	0	995971	683	0	correct_rejection	NA	0
39	Triplet	40	526	1174	9	0	0	996687	684	0	correct_rejection	NA	0
39	Triplet	41	527	1175	0	1	2	997404	683	1	hit	402	0
39	Triplet	42	528	1176	4	0	0	998121	683	0	correct_rejection	NA	0
39	Triplet	43	529	1177	5	0	0	998837	684	0	correct_rejection	NA	0
39	Triplet	44	530	1178	6	0	0	999554	683	0	correct_rejection	NA	0
39	Triplet	45	531	1179	4	0	0	1000271	683	0	correct_rejection	NA	0
39	Triplet	46	532	1180	5	0	0	1000987	684	0	correct_rejection	NA	0
39	Triplet	47	533	1181	6	0	0	1001704	683	0	correct_rejection	NA	0
39	Triplet	48	534	1182	7	0	0	1002421	683	0	correct_rejection	NA	0
39	Triplet	49	535	1183	8	0	0	1003137	684	0	correct_rejection	NA	0
39	Triplet	50	536	1184	9	0	0	1003854	683	0	correct_rejection	NA	0
39	Triplet	51	537	1185	7	0	0	1004571	683	0	correct_rejection	NA	0
39	Triplet	52	538	1186	8	0	0	1005287	684	0	correct_rejection	NA	0
39	Triplet	53	539	1187	0	1	1	1006004	683	1	hit	551	0
39	Triplet	54	540	1188	9	0	0	1006721	683	0	correct_rejection	NA	0
39	Triplet	55	541	1189	9	0	0	1007437	684	0	correct_rejection	NA	0
39	Triplet	56	542	1190	8	0	0	1008154	683	0	correct_rejection	NA	0
39	Triplet	57	543	1191	7	0	0	1008871	683	0	correct_rejection	NA	0
39	Triplet	58	544	1192	4	0	0	1009587	684	0	correct_rejection	NA	0
39	Triplet	59	545	1193	5	0	0	1010304	683	0	correct_rejection	NA	0
39	Triplet	60	546	1194	0	1	1	1011021	683	0	miss	NA	0
39	Triplet	61	547	1195	6	0	0	1011737	684	0	correct_rejection	NA	0
39	Triplet	62	548	1196	7	0	0	1012454	683	0	correct_rejection	NA	0
39	Triplet	63	549	1197	8	0	0	1013171	683	0	correct_rejection	NA	0
39	Triplet	64	550	1198	9	0	0	1013887	684	0	correct_rejection	NA	0
39	Triplet	65	551	1199	6	0	0	1014604	683	0	correct_rejection	NA	0
39	Triplet	66	552	1200	0	1	1	1015321	683	0	miss	NA	0
39	Triplet	67	553	1201	5	0	0	1016037	684	0	correct_rejection	NA	0
39	Triplet	68	554	1202	4	0	0	1016754	683	0	correct_rejection	NA	0
39	Triplet	69	555	1203	6	0	0	1017471	683	0	correct_rejection	NA	0
39	Triplet	70	556	1204	5	0	0	1018187	684	0	correct_rejection	NA	0
39	Triplet	71	557	1205	4	0	0	1018904	683	0	correct_rejection	NA	0
39	Triplet	72	558	1206	4	0	0	1019621	683	0	correct_rejection	NA	0
39	Triplet	73	559	1207	5	0	0	1020337	684	0	correct_rejection	NA	0
39	Triplet	74	560	1208	6	0	0	1021054	683	0	correct_rejection	NA	0
39	Triplet	75	561	1209	4	0	0	1021771	683	0	correct_rejection	NA	0
39	Triplet	76	562	1210	5	0	0	1022487	684	0	correct_rejection	NA	0
39	Triplet	77	563	1211	6	0	0	1023204	683	0	correct_rejection	NA	0
39	Triplet	78	564	1212	0	1	2	1023920	684	0	miss	NA	0
39	Triplet	79	565	1213	6	0	0	1024637	683	1	false_alarm	196	0
39	Triplet	80	566	1214	5	0	0	1025354	683	0	correct_rejection	NA	0
39	Triplet	81	567	1215	4	0	0	1026070	684	0	correct_rejection	NA	0
39	Triplet	82	568	1216	7	0	0	1026787	683	0	correct_rejection	NA	0
39	Triplet	83	569	1217	0	1	1	1027504	683	0	miss	NA	0
39	Triplet	84	570	1218	8	0	0	1028220	684	0	correct_rejection	NA	0
39	Triplet	85	571	1219	9	0	0	1028937	683	0	correct_rejection	NA	0
39	Triplet	86	572	1220	0	1	2	1029654	683	0	miss	NA	0
39	Triplet	87	573	1221	9	0	0	1030370	684	0	correct_rejection	NA	0
39	Triplet	88	574	1222	8	0	0	1031087	683	0	correct_rejection	NA	0
39	Triplet	89	575	1223	0	1	1	1031804	683	0	miss	NA	0
39	Triplet	90	576	1224	7	0	0	1032520	684	0	correct_rejection	NA	0
39	Triplet	91	577	1225	4	0	0	1033237	683	0	correct_rejection	NA	0
39	Triplet	92	578	1226	5	0	0	1033954	683	0	correct_rejection	NA	0
39	Triplet	93	579	1227	6	0	0	1034670	684	0	correct_rejection	NA	0
39	Triplet	94	580	1228	9	0	0	1035387	683	0	correct_rejection	NA	0
39	Triplet	95	581	1229	8	0	0	1036104	683	0	correct_rejection	NA	0
39	Triplet	96	582	1230	7	0	0	1036820	684	0	correct_rejection	NA	0
39	Triplet	97	583	1231	9	0	0	1037537	683	0	correct_rejection	NA	0
39	Triplet	98	584	1232	8	0	0	1038254	683	0	correct_rejection	NA	0
39	Triplet	99	585	1233	0	1	1	1038970	684	1	hit	436	0
39	Triplet	100	586	1234	7	0	0	1039687	683	0	correct_rejection	NA	0
39	Triplet	101	587	1235	6	0	0	1040404	683	0	correct_rejection	NA	0
39	Triplet	102	588	1236	5	0	0	1041120	684	0	correct_rejection	NA	0
39	Triplet	103	589	1237	4	0	0	1041837	683	0	correct_rejection	NA	0
39	Triplet	104	590	1238	9	0	0	1042554	683	0	correct_rejection	NA	0
39	Triplet	105	591	1239	8	0	0	1043270	684	0	correct_rejection	NA	0
39	Triplet	106	592	1240	7	0	0	1043987	683	0	correct_rejection	NA	0
39	Triplet	107	593	1241	7	0	0	1044704	683	0	correct_rejection	NA	0
39	Triplet	108	594	1242	8	0	0	1045420	684	0	correct_rejection	NA	0
39	Triplet	109	595	1243	9	0	0	1046137	683	0	correct_rejection	NA	0
39	Triplet	110	596	1244	7	0	0	1046854	683	0	correct_rejection	NA	0
39	Triplet	111	597	1245	8	0	0	1047570	684	0	correct_rejection	NA	0
39	Triplet	112	598	1246	9	0	0	1048287	683	0	correct_rejection	NA	0
39	Triplet	113	599	1247	6	0	0	1049004	683	0	correct_rejection	NA	0
39	Triplet	114	600	1248	5	0	0	1049720	684	0	correct_rejection	NA	0
39	Triplet	115	601	1249	4	0	0	1050437	683	0	correct_rejection	NA	0
39	Triplet	116	602	1250	0	1	2	1051153	684	0	miss	NA	0
39	Triplet	117	603	1251	9	0	0	1051870	683	0	correct_rejection	NA	0
39	Triplet	118	604	1252	8	0	0	1052587	683	0	correct_rejection	NA	0
39	Triplet	119	605	1253	7	0	0	1053303	684	0	correct_rejection	NA	0
39	Triplet	120	606	1254	6	0	0	1054020	683	0	correct_rejection	NA	0
39	Triplet	121	607	1255	5	0	0	1054737	683	0	correct_rejection	NA	0
39	Triplet	122	608	1256	4	0	0	1055453	684	0	correct_rejection	NA	0
39	Triplet	123	609	1257	7	0	0	1056170	683	0	correct_rejection	NA	0
39	Triplet	124	610	1258	8	0	0	1056887	683	0	correct_rejection	NA	0
39	Triplet	125	611	1259	9	0	0	1057603	684	0	correct_rejection	NA	0
39	Triplet	126	612	1260	7	0	0	1058320	683	0	correct_rejection	NA	0
39	Triplet	127	613	1261	8	0	0	1059037	683	0	correct_rejection	NA	0
39	Triplet	128	614	1262	9	0	0	1059753	684	0	correct_rejection	NA	0
39	Triplet	129	615	1263	4	0	0	1060470	683	0	correct_rejection	NA	0
39	Triplet	130	616	1264	5	0	0	1061187	683	0	correct_rejection	NA	0
39	Triplet	131	617	1265	6	0	0	1061903	684	0	correct_rejection	NA	0
39	Triplet	132	618	1266	6	0	0	1062620	683	0	correct_rejection	NA	0
39	Triplet	133	619	1267	5	0	0	1063337	683	0	correct_rejection	NA	0
39	Triplet	134	620	1268	4	0	0	1064053	684	0	correct_rejection	NA	0
39	Triplet	135	621	1269	4	0	0	1064770	683	0	correct_rejection	NA	0
39	Triplet	136	622	1270	5	0	0	1065487	683	0	correct_rejection	NA	0
39	Triplet	137	623	1271	6	0	0	1066203	684	0	correct_rejection	NA	0
39	Triplet	138	624	1272	7	0	0	1066920	683	0	correct_rejection	NA	0
39	Triplet	139	625	1273	8	0	0	1067637	683	0	correct_rejection	NA	0
39	Triplet	140	626	1274	9	0	0	1068353	684	0	correct_rejection	NA	0
39	Triplet	141	627	1275	9	0	0	1069070	683	0	correct_rejection	NA	0
39	Triplet	142	628	1276	8	0	0	1069787	683	0	correct_rejection	NA	0
39	Triplet	143	629	1277	7	0	0	1070503	684	0	correct_rejection	NA	0
39	Triplet	144	630	1278	0	1	2	1071220	683	0	miss	NA	0
39	Triplet	145	631	1279	9	0	0	1071937	683	1	false_alarm	0	0
39	Triplet	146	632	1280	8	0	0	1072653	684	0	correct_rejection	NA	0
39	Triplet	147	633	1281	7	0	0	1073370	683	0	correct_rejection	NA	0
39	Triplet	148	634	1282	4	0	0	1074087	683	0	correct_rejection	NA	0
39	Triplet	149	635	1283	5	0	0	1074803	684	0	correct_rejection	NA	0
39	Triplet	150	636	1284	6	0	0	1075520	683	0	correct_rejection	NA	0
39	Triplet	151	637	1285	4	0	0	1076237	683	0	correct_rejection	NA	0
39	Triplet	152	638	1286	5	0	0	1076953	684	0	correct_rejection	NA	0
39	Triplet	153	639	1287	6	0	0	1077670	683	0	correct_rejection	NA	0
39	Triplet	154	640	1288	9	0	0	1078386	684	0	correct_rejection	NA	0
39	Triplet	155	641	1289	8	0	0	1079103	684	0	correct_rejection	NA	0
39	Triplet	156	642	1290	7	0	0	1079820	683	0	correct_rejection	NA	0
39	Triplet	157	643	1291	7	0	0	1080536	684	0	correct_rejection	NA	0
39	Triplet	158	644	1292	8	0	0	1081253	683	0	correct_rejection	NA	0
39	Triplet	159	645	1293	9	0	0	1081970	683	0	correct_rejection	NA	0
39	Triplet	160	646	1294	6	0	0	1082686	684	0	correct_rejection	NA	0
39	Triplet	161	647	1295	5	0	0	1083403	683	0	correct_rejection	NA	0
39	Triplet	162	648	1296	4	0	0	1084120	683	0	correct_rejection	NA	0
39	Nonet	1	163	1297	4	0	0	1094186	684	0	correct_rejection	NA	7667
39	Nonet	2	164	1298	5	0	0	1094903	683	0	correct_rejection	NA	0
39	Nonet	3	165	1299	6	0	0	1095620	683	0	correct_rejection	NA	0
39	Nonet	4	166	1300	4	0	0	1096336	684	0	correct_rejection	NA	0
39	Nonet	5	167	1301	5	0	0	1097053	683	0	correct_rejection	NA	0
39	Nonet	6	168	1302	6	0	0	1097770	683	0	correct_rejection	NA	0
39	Nonet	7	169	1303	4	0	0	1098486	684	0	correct_rejection	NA	0
39	Nonet	8	170	1304	5	0	0	1099203	683	0	correct_rejection	NA	0
39	Nonet	9	171	1305	0	1	1	1099920	683	0	miss	NA	0
39	Nonet	10	172	1306	6	0	0	1100636	684	0	correct_rejection	NA	0
39	Nonet	11	173	1307	4	0	0	1101353	683	0	correct_rejection	NA	0
39	Nonet	12	174	1308	5	0	0	1102070	683	0	correct_rejection	NA	0
39	Nonet	13	175	1309	6	0	0	1102786	684	0	correct_rejection	NA	0
39	Nonet	14	176	1310	4	0	0	1103503	683	0	correct_rejection	NA	0
39	Nonet	15	177	1311	5	0	0	1104220	683	0	correct_rejection	NA	0
39	Nonet	16	178	1312	6	0	0	1104936	684	0	correct_rejection	NA	0
39	Nonet	17	179	1313	4	0	0	1105653	683	0	correct_rejection	NA	0
39	Nonet	18	180	1314	5	0	0	1106369	684	0	correct_rejection	NA	0
39	Nonet	19	181	1315	6	0	0	1107086	683	0	correct_rejection	NA	0
39	Nonet	20	182	1316	7	0	0	1107803	683	0	correct_rejection	NA	0
39	Nonet	21	183	1317	8	0	0	1108519	684	0	correct_rejection	NA	0
39	Nonet	22	184	1318	9	0	0	1109236	683	0	correct_rejection	NA	0
39	Nonet	23	185	1319	7	0	0	1109953	683	0	correct_rejection	NA	0
39	Nonet	24	186	1320	8	0	0	1110669	684	1	false_alarm	509	0
39	Nonet	25	187	1321	9	0	0	1111386	683	0	correct_rejection	NA	0
39	Nonet	26	188	1322	7	0	0	1112103	683	0	correct_rejection	NA	0
39	Nonet	27	189	1323	0	1	1	1112819	684	1	hit	447	0
39	Nonet	28	190	1324	8	0	0	1113536	683	0	correct_rejection	NA	0
39	Nonet	29	191	1325	9	0	0	1114253	683	0	correct_rejection	NA	0
39	Nonet	30	192	1326	0	1	3	1114969	684	1	hit	477	0
39	Nonet	31	193	1327	7	0	0	1115686	683	0	correct_rejection	NA	0
39	Nonet	32	194	1328	8	0	0	1116403	683	0	correct_rejection	NA	0
39	Nonet	33	195	1329	9	0	0	1117119	684	0	correct_rejection	NA	0
39	Nonet	34	196	1330	7	0	0	1117836	683	0	correct_rejection	NA	0
39	Nonet	35	197	1331	0	1	1	1118553	683	1	hit	614	0
39	Nonet	36	198	1332	8	0	0	1119269	684	0	correct_rejection	NA	0
39	Nonet	37	199	1333	9	0	0	1119986	683	0	correct_rejection	NA	0
39	Nonet	38	200	1334	7	0	0	1120703	683	0	correct_rejection	NA	0
39	Nonet	39	201	1335	8	0	0	1121419	684	0	correct_rejection	NA	0
39	Nonet	40	202	1336	9	0	0	1122136	683	0	correct_rejection	NA	0
39	Nonet	41	203	1337	6	0	0	1122853	683	0	correct_rejection	NA	0
39	Nonet	42	204	1338	5	0	0	1123569	684	0	correct_rejection	NA	0
39	Nonet	43	205	1339	4	0	0	1124286	683	0	correct_rejection	NA	0
39	Nonet	44	206	1340	6	0	0	1125003	683	0	correct_rejection	NA	0
39	Nonet	45	207	1341	5	0	0	1125719	684	0	correct_rejection	NA	0
39	Nonet	46	208	1342	4	0	0	1126436	683	0	correct_rejection	NA	0
39	Nonet	47	209	1343	6	0	0	1127153	683	0	correct_rejection	NA	0
39	Nonet	48	210	1344	5	0	0	1127869	684	0	correct_rejection	NA	0
39	Nonet	49	211	1345	0	1	1	1128586	683	0	miss	NA	0
39	Nonet	50	212	1346	4	0	0	1129303	683	0	correct_rejection	NA	0
39	Nonet	51	213	1347	6	0	0	1130019	684	0	correct_rejection	NA	0
39	Nonet	52	214	1348	5	0	0	1130736	683	0	correct_rejection	NA	0
39	Nonet	53	215	1349	4	0	0	1131453	683	0	correct_rejection	NA	0
39	Nonet	54	216	1350	6	0	0	1132169	684	0	correct_rejection	NA	0
39	Nonet	55	217	1351	0	1	1	1132886	683	1	hit	446	0
39	Nonet	56	218	1352	5	0	0	1133602	684	0	correct_rejection	NA	0
39	Nonet	57	219	1353	4	0	0	1134319	683	0	correct_rejection	NA	0
39	Nonet	58	220	1354	6	0	0	1135036	683	0	correct_rejection	NA	0
39	Nonet	59	221	1355	5	0	0	1135752	684	0	correct_rejection	NA	0
39	Nonet	60	222	1356	4	0	0	1136469	683	0	correct_rejection	NA	0
39	Nonet	61	223	1357	4	0	0	1137186	683	0	correct_rejection	NA	0
39	Nonet	62	224	1358	0	1	1	1137902	684	0	miss	NA	0
39	Nonet	63	225	1359	5	0	0	1138619	683	0	correct_rejection	NA	0
39	Nonet	64	226	1360	6	0	0	1139336	683	0	correct_rejection	NA	0
39	Nonet	65	227	1361	4	0	0	1140052	684	0	correct_rejection	NA	0
39	Nonet	66	228	1362	5	0	0	1140769	683	0	correct_rejection	NA	0
39	Nonet	67	229	1363	6	0	0	1141486	683	0	correct_rejection	NA	0
39	Nonet	68	230	1364	4	0	0	1142202	684	0	correct_rejection	NA	0
39	Nonet	69	231	1365	5	0	0	1142919	683	0	correct_rejection	NA	0
39	Nonet	70	232	1366	6	0	0	1143636	683	0	correct_rejection	NA	0
39	Nonet	71	233	1367	6	0	0	1144352	684	0	correct_rejection	NA	0
39	Nonet	72	234	1368	5	0	0	1145069	683	0	correct_rejection	NA	0
39	Nonet	73	235	1369	4	0	0	1145786	683	0	correct_rejection	NA	0
39	Nonet	74	236	1370	6	0	0	1146502	684	0	correct_rejection	NA	0
39	Nonet	75	237	1371	0	1	1	1147219	683	0	miss	NA	0
39	Nonet	76	238	1372	5	0	0	1147936	683	0	correct_rejection	NA	0
39	Nonet	77	239	1373	4	0	0	1148652	684	0	correct_rejection	NA	0
39	Nonet	78	240	1374	0	1	2	1149369	683	1	hit	506	0
39	Nonet	79	241	1375	6	0	0	1150086	683	0	correct_rejection	NA	0
39	Nonet	80	242	1376	5	0	0	1150802	684	0	correct_rejection	NA	0
39	Nonet	81	243	1377	4	0	0	1151519	683	0	correct_rejection	NA	0
39	Nonet	82	244	1378	9	0	0	1152236	683	0	correct_rejection	NA	0
39	Nonet	83	245	1379	0	1	1	1152952	684	0	miss	NA	0
39	Nonet	84	246	1380	8	0	0	1153669	683	0	correct_rejection	NA	0
39	Nonet	85	247	1381	7	0	0	1154386	683	0	correct_rejection	NA	0
39	Nonet	86	248	1382	9	0	0	1155102	684	0	correct_rejection	NA	0
39	Nonet	87	249	1383	8	0	0	1155819	683	0	correct_rejection	NA	0
39	Nonet	88	250	1384	7	0	0	1156536	683	0	correct_rejection	NA	0
39	Nonet	89	251	1385	9	0	0	1157252	684	0	correct_rejection	NA	0
39	Nonet	90	252	1386	8	0	0	1157969	683	0	correct_rejection	NA	0
39	Nonet	91	253	1387	7	0	0	1158686	683	0	correct_rejection	NA	0
39	Nonet	92	254	1388	4	0	0	1159402	684	0	correct_rejection	NA	0
39	Nonet	93	255	1389	5	0	0	1160119	683	0	correct_rejection	NA	0
39	Nonet	94	256	1390	6	0	0	1160835	684	0	correct_rejection	NA	0
39	Nonet	95	257	1391	0	1	2	1161552	684	0	miss	NA	0
39	Nonet	96	258	1392	4	0	0	1162269	683	0	correct_rejection	NA	0
39	Nonet	97	259	1393	5	0	0	1162985	684	0	correct_rejection	NA	0
39	Nonet	98	260	1394	6	0	0	1163702	683	0	correct_rejection	NA	0
39	Nonet	99	261	1395	4	0	0	1164419	683	0	correct_rejection	NA	0
39	Nonet	100	262	1396	0	1	1	1165135	684	0	miss	NA	0
39	Nonet	101	263	1397	5	0	0	1165852	683	0	correct_rejection	NA	0
39	Nonet	102	264	1398	6	0	0	1166569	683	0	correct_rejection	NA	0
39	Nonet	103	265	1399	9	0	0	1167285	684	0	correct_rejection	NA	0
39	Nonet	104	266	1400	0	1	1	1168002	683	0	miss	NA	0
39	Nonet	105	267	1401	8	0	0	1168719	683	0	correct_rejection	NA	0
39	Nonet	106	268	1402	7	0	0	1169435	684	0	correct_rejection	NA	0
39	Nonet	107	269	1403	9	0	0	1170152	683	0	correct_rejection	NA	0
39	Nonet	108	270	1404	0	1	1	1170869	683	0	miss	NA	0
39	Nonet	109	271	1405	8	0	0	1171585	684	1	false_alarm	223	0
39	Nonet	110	272	1406	7	0	0	1172302	683	0	correct_rejection	NA	0
39	Nonet	111	273	1407	9	0	0	1173019	683	0	correct_rejection	NA	0
39	Nonet	112	274	1408	8	0	0	1173735	684	0	correct_rejection	NA	0
39	Nonet	113	275	1409	7	0	0	1174452	683	0	correct_rejection	NA	0
39	Nonet	114	276	1410	0	1	3	1175169	683	0	miss	NA	0
39	Nonet	115	277	1411	7	0	0	1175885	684	0	correct_rejection	NA	0
39	Nonet	116	278	1412	8	0	0	1176602	683	0	correct_rejection	NA	0
39	Nonet	117	279	1413	9	0	0	1177319	683	0	correct_rejection	NA	0
39	Nonet	118	280	1414	7	0	0	1178035	684	0	correct_rejection	NA	0
39	Nonet	119	281	1415	8	0	0	1178752	683	0	correct_rejection	NA	0
39	Nonet	120	282	1416	9	0	0	1179469	683	0	correct_rejection	NA	0
39	Nonet	121	283	1417	7	0	0	1180185	684	0	correct_rejection	NA	0
39	Nonet	122	284	1418	8	0	0	1180902	683	0	correct_rejection	NA	0
39	Nonet	123	285	1419	9	0	0	1181619	683	0	correct_rejection	NA	0
39	Nonet	124	286	1420	9	0	0	1182335	684	0	correct_rejection	NA	0
39	Nonet	125	287	1421	8	0	0	1183052	683	0	correct_rejection	NA	0
39	Nonet	126	288	1422	7	0	0	1183769	683	0	correct_rejection	NA	0
39	Nonet	127	289	1423	9	0	0	1184485	684	0	correct_rejection	NA	0
39	Nonet	128	290	1424	8	0	0	1185202	683	0	correct_rejection	NA	0
39	Nonet	129	291	1425	7	0	0	1185919	683	0	correct_rejection	NA	0
39	Nonet	130	292	1426	9	0	0	1186635	684	0	correct_rejection	NA	0
39	Nonet	131	293	1427	8	0	0	1187352	683	0	correct_rejection	NA	0
39	Nonet	132	294	1428	7	0	0	1188069	683	0	correct_rejection	NA	0
39	Nonet	133	295	1429	0	1	3	1188785	683	0	miss	NA	0
39	Nonet	134	296	1430	9	0	0	1189502	683	0	correct_rejection	NA	0
39	Nonet	135	297	1431	8	0	0	1190218	684	0	correct_rejection	NA	0
39	Nonet	136	298	1432	7	0	0	1190935	683	0	correct_rejection	NA	0
39	Nonet	137	299	1433	9	0	0	1191652	683	0	correct_rejection	NA	0
39	Nonet	138	300	1434	8	0	0	1192368	684	0	correct_rejection	NA	0
39	Nonet	139	301	1435	7	0	0	1193085	683	0	correct_rejection	NA	0
39	Nonet	140	302	1436	9	0	0	1193802	683	0	correct_rejection	NA	0
39	Nonet	141	303	1437	8	0	0	1194518	684	0	correct_rejection	NA	0
39	Nonet	142	304	1438	7	0	0	1195235	683	0	correct_rejection	NA	0
39	Nonet	143	305	1439	6	0	0	1195952	683	0	correct_rejection	NA	0
39	Nonet	144	306	1440	5	0	0	1196668	684	0	correct_rejection	NA	0
39	Nonet	145	307	1441	4	0	0	1197385	683	0	correct_rejection	NA	0
39	Nonet	146	308	1442	0	1	2	1198102	683	0	miss	NA	0
39	Nonet	147	309	1443	6	0	0	1198818	684	0	correct_rejection	NA	0
39	Nonet	148	310	1444	5	0	0	1199535	683	0	correct_rejection	NA	0
39	Nonet	149	311	1445	4	0	0	1200252	683	0	correct_rejection	NA	0
39	Nonet	150	312	1446	6	0	0	1200968	684	0	correct_rejection	NA	0
39	Nonet	151	313	1447	5	0	0	1201685	683	0	correct_rejection	NA	0
39	Nonet	152	314	1448	4	0	0	1202402	683	0	correct_rejection	NA	0
39	Nonet	153	315	1449	7	0	0	1203118	684	0	correct_rejection	NA	0
39	Nonet	154	316	1450	8	0	0	1203835	683	0	correct_rejection	NA	0
39	Nonet	155	317	1451	0	1	1	1204552	683	0	miss	NA	0
39	Nonet	156	318	1452	9	0	0	1205268	684	0	correct_rejection	NA	0
39	Nonet	157	319	1453	7	0	0	1205985	683	0	correct_rejection	NA	0
39	Nonet	158	320	1454	8	0	0	1206702	683	0	correct_rejection	NA	0
39	Nonet	159	321	1455	9	0	0	1207418	684	0	correct_rejection	NA	0
39	Nonet	160	322	1456	7	0	0	1208135	683	0	correct_rejection	NA	0
39	Nonet	161	323	1457	8	0	0	1208852	683	0	correct_rejection	NA	0
39	Nonet	162	324	1458	9	0	0	1209568	684	0	correct_rejection	NA	0
39	Triplet	1	649	1459	4	0	0	1219218	683	0	correct_rejection	NA	7727
39	Triplet	2	650	1460	5	0	0	1219935	683	0	correct_rejection	NA	0
39	Triplet	3	651	1461	6	0	0	1220651	684	0	correct_rejection	NA	0
39	Triplet	4	652	1462	6	0	0	1221368	683	0	correct_rejection	NA	0
39	Triplet	5	653	1463	5	0	0	1222085	683	0	correct_rejection	NA	0
39	Triplet	6	654	1464	4	0	0	1222801	684	0	correct_rejection	NA	0
39	Triplet	7	655	1465	4	0	0	1223518	683	0	correct_rejection	NA	0
39	Triplet	8	656	1466	5	0	0	1224235	683	0	correct_rejection	NA	0
39	Triplet	9	657	1467	6	0	0	1224951	684	0	correct_rejection	NA	0
39	Triplet	10	658	1468	9	0	0	1225668	683	0	correct_rejection	NA	0
39	Triplet	11	659	1469	0	1	1	1226385	683	1	hit	563	0
39	Triplet	12	660	1470	8	0	0	1227101	684	0	correct_rejection	NA	0
39	Triplet	13	661	1471	7	0	0	1227818	683	0	correct_rejection	NA	0
39	Triplet	14	662	1472	6	0	0	1228535	683	0	correct_rejection	NA	0
39	Triplet	15	663	1473	0	1	1	1229251	684	1	hit	449	0
39	Triplet	16	664	1474	5	0	0	1229968	683	0	correct_rejection	NA	0
39	Triplet	17	665	1475	4	0	0	1230685	683	0	correct_rejection	NA	0
39	Triplet	18	666	1476	6	0	0	1231401	684	0	correct_rejection	NA	0
39	Triplet	19	667	1477	5	0	0	1232118	683	0	correct_rejection	NA	0
39	Triplet	20	668	1478	4	0	0	1232835	683	0	correct_rejection	NA	0
39	Triplet	21	669	1479	7	0	0	1233551	684	0	correct_rejection	NA	0
39	Triplet	22	670	1480	8	0	0	1234268	683	0	correct_rejection	NA	0
39	Triplet	23	671	1481	9	0	0	1234985	683	0	correct_rejection	NA	0
39	Triplet	24	672	1482	6	0	0	1235701	684	0	correct_rejection	NA	0
39	Triplet	25	673	1483	0	1	1	1236418	683	1	hit	478	0
39	Triplet	26	674	1484	5	0	0	1237135	683	0	correct_rejection	NA	0
39	Triplet	27	675	1485	4	0	0	1237851	684	0	correct_rejection	NA	0
39	Triplet	28	676	1486	9	0	0	1238568	683	0	correct_rejection	NA	0
39	Triplet	29	677	1487	8	0	0	1239285	683	0	correct_rejection	NA	0
39	Triplet	30	678	1488	7	0	0	1240001	684	0	correct_rejection	NA	0
39	Triplet	31	679	1489	7	0	0	1240718	683	0	correct_rejection	NA	0
39	Triplet	32	680	1490	8	0	0	1241435	683	0	correct_rejection	NA	0
39	Triplet	33	681	1491	9	0	0	1242151	684	0	correct_rejection	NA	0
39	Triplet	34	682	1492	4	0	0	1242868	683	0	correct_rejection	NA	0
39	Triplet	35	683	1493	5	0	0	1243584	684	0	correct_rejection	NA	0
39	Triplet	36	684	1494	6	0	0	1244301	684	0	correct_rejection	NA	0
39	Triplet	37	685	1495	4	0	0	1245018	683	0	correct_rejection	NA	0
39	Triplet	38	686	1496	5	0	0	1245734	684	0	correct_rejection	NA	0
39	Triplet	39	687	1497	0	1	1	1246451	683	0	miss	NA	0
39	Triplet	40	688	1498	6	0	0	1247168	683	0	correct_rejection	NA	0
39	Triplet	41	689	1499	7	0	0	1247884	684	0	correct_rejection	NA	0
39	Triplet	42	690	1500	8	0	0	1248601	683	0	correct_rejection	NA	0
39	Triplet	43	691	1501	9	0	0	1249318	683	0	correct_rejection	NA	0
39	Triplet	44	692	1502	7	0	0	1250034	684	0	correct_rejection	NA	0
39	Triplet	45	693	1503	8	0	0	1250751	683	0	correct_rejection	NA	0
39	Triplet	46	694	1504	9	0	0	1251468	683	0	correct_rejection	NA	0
39	Triplet	47	695	1505	9	0	0	1252184	684	0	correct_rejection	NA	0
39	Triplet	48	696	1506	8	0	0	1252901	683	0	correct_rejection	NA	0
39	Triplet	49	697	1507	0	1	1	1253618	683	0	miss	NA	0
39	Triplet	50	698	1508	7	0	0	1254334	684	1	false_alarm	30	0
39	Triplet	51	699	1509	9	0	0	1255051	683	0	correct_rejection	NA	0
39	Triplet	52	700	1510	8	0	0	1255768	683	0	correct_rejection	NA	0
39	Triplet	53	701	1511	7	0	0	1256484	684	0	correct_rejection	NA	0
39	Triplet	54	702	1512	7	0	0	1257201	683	0	correct_rejection	NA	0
39	Triplet	55	703	1513	0	1	1	1257918	683	1	hit	573	0
39	Triplet	56	704	1514	8	0	0	1258634	684	0	correct_rejection	NA	0
39	Triplet	57	705	1515	9	0	0	1259351	683	0	correct_rejection	NA	0
39	Triplet	58	706	1516	7	0	0	1260068	683	0	correct_rejection	NA	0
39	Triplet	59	707	1517	8	0	0	1260784	684	0	correct_rejection	NA	0
39	Triplet	60	708	1518	0	1	1	1261501	683	0	miss	NA	0
39	Triplet	61	709	1519	9	0	0	1262218	683	0	correct_rejection	NA	0
39	Triplet	62	710	1520	6	0	0	1262934	684	0	correct_rejection	NA	0
39	Triplet	63	711	1521	5	0	0	1263651	683	0	correct_rejection	NA	0
39	Triplet	64	712	1522	4	0	0	1264368	683	0	correct_rejection	NA	0
39	Triplet	65	713	1523	6	0	0	1265084	684	0	correct_rejection	NA	0
39	Triplet	66	714	1524	5	0	0	1265801	683	0	correct_rejection	NA	0
39	Triplet	67	715	1525	4	0	0	1266518	683	0	correct_rejection	NA	0
39	Triplet	68	716	1526	0	1	2	1267234	684	0	miss	NA	0
39	Triplet	69	717	1527	4	0	0	1267951	683	0	correct_rejection	NA	0
39	Triplet	70	718	1528	5	0	0	1268668	683	0	correct_rejection	NA	0
39	Triplet	71	719	1529	6	0	0	1269384	684	0	correct_rejection	NA	0
39	Triplet	72	720	1530	4	0	0	1270101	683	0	correct_rejection	NA	0
39	Triplet	73	721	1531	5	0	0	1270817	684	0	correct_rejection	NA	0
39	Triplet	74	722	1532	6	0	0	1271534	684	0	correct_rejection	NA	0
39	Triplet	75	723	1533	6	0	0	1272251	683	0	correct_rejection	NA	0
39	Triplet	76	724	1534	5	0	0	1272967	684	0	correct_rejection	NA	0
39	Triplet	77	725	1535	0	1	1	1273684	683	1	hit	493	0
39	Triplet	78	726	1536	4	0	0	1274401	683	0	correct_rejection	NA	0
39	Triplet	79	727	1537	7	0	0	1275117	684	0	correct_rejection	NA	0
39	Triplet	80	728	1538	8	0	0	1275834	683	0	correct_rejection	NA	0
39	Triplet	81	729	1539	9	0	0	1276551	683	0	correct_rejection	NA	0
39	Triplet	82	730	1540	4	0	0	1277267	684	0	correct_rejection	NA	0
39	Triplet	83	731	1541	5	0	0	1277984	683	0	correct_rejection	NA	0
39	Triplet	84	732	1542	6	0	0	1278701	683	0	correct_rejection	NA	0
39	Triplet	85	733	1543	9	0	0	1279417	684	0	correct_rejection	NA	0
39	Triplet	86	734	1544	8	0	0	1280134	683	0	correct_rejection	NA	0
39	Triplet	87	735	1545	7	0	0	1280851	683	0	correct_rejection	NA	0
39	Triplet	88	736	1546	9	0	0	1281567	684	0	correct_rejection	NA	0
39	Triplet	89	737	1547	8	0	0	1282284	683	0	correct_rejection	NA	0
39	Triplet	90	738	1548	7	0	0	1283001	683	0	correct_rejection	NA	0
39	Triplet	91	739	1549	7	0	0	1283717	684	0	correct_rejection	NA	0
39	Triplet	92	740	1550	8	0	0	1284434	683	0	correct_rejection	NA	0
39	Triplet	93	741	1551	9	0	0	1285151	683	0	correct_rejection	NA	0
39	Triplet	94	742	1552	9	0	0	1285867	684	0	correct_rejection	NA	0
39	Triplet	95	743	1553	8	0	0	1286584	683	0	correct_rejection	NA	0
39	Triplet	96	744	1554	7	0	0	1287301	683	0	correct_rejection	NA	0
39	Triplet	97	745	1555	6	0	0	1288017	684	0	correct_rejection	NA	0
39	Triplet	98	746	1556	5	0	0	1288734	683	0	correct_rejection	NA	0
39	Triplet	99	747	1557	4	0	0	1289451	683	0	correct_rejection	NA	0
39	Triplet	100	748	1558	9	0	0	1290167	684	0	correct_rejection	NA	0
39	Triplet	101	749	1559	8	0	0	1290884	683	0	correct_rejection	NA	0
39	Triplet	102	750	1560	0	1	1	1291601	683	0	miss	NA	0
39	Triplet	103	751	1561	7	0	0	1292317	684	0	correct_rejection	NA	0
39	Triplet	104	752	1562	4	0	0	1293034	683	0	correct_rejection	NA	0
39	Triplet	105	753	1563	5	0	0	1293751	683	0	correct_rejection	NA	0
39	Triplet	106	754	1564	6	0	0	1294467	684	0	correct_rejection	NA	0
39	Triplet	107	755	1565	7	0	0	1295184	683	0	correct_rejection	NA	0
39	Triplet	108	756	1566	8	0	0	1295901	683	0	correct_rejection	NA	0
39	Triplet	109	757	1567	9	0	0	1296617	684	0	correct_rejection	NA	0
39	Triplet	110	758	1568	0	1	2	1297334	683	0	miss	NA	0
39	Triplet	111	759	1569	9	0	0	1298051	683	1	false_alarm	433	0
39	Triplet	112	760	1570	8	0	0	1298767	684	0	correct_rejection	NA	0
39	Triplet	113	761	1571	7	0	0	1299484	683	0	correct_rejection	NA	0
39	Triplet	114	762	1572	4	0	0	1300200	684	0	correct_rejection	NA	0
39	Triplet	115	763	1573	5	0	0	1300917	683	0	correct_rejection	NA	0
39	Triplet	116	764	1574	6	0	0	1301634	683	0	correct_rejection	NA	0
39	Triplet	117	765	1575	0	1	2	1302350	684	0	miss	NA	0
39	Triplet	118	766	1576	4	0	0	1303067	683	0	correct_rejection	NA	0
39	Triplet	119	767	1577	5	0	0	1303784	683	0	correct_rejection	NA	0
39	Triplet	120	768	1578	6	0	0	1304500	684	0	correct_rejection	NA	0
39	Triplet	121	769	1579	9	0	0	1305217	683	0	correct_rejection	NA	0
39	Triplet	122	770	1580	8	0	0	1305934	683	0	correct_rejection	NA	0
39	Triplet	123	771	1581	0	1	1	1306650	684	0	miss	NA	0
39	Triplet	124	772	1582	7	0	0	1307367	683	0	correct_rejection	NA	0
39	Triplet	125	773	1583	7	0	0	1308084	683	0	correct_rejection	NA	0
39	Triplet	126	774	1584	8	0	0	1308800	684	0	correct_rejection	NA	0
39	Triplet	127	775	1585	9	0	0	1309517	683	0	correct_rejection	NA	0
39	Triplet	128	776	1586	0	1	2	1310234	683	0	miss	NA	0
39	Triplet	129	777	1587	6	0	0	1310950	684	0	correct_rejection	NA	0
39	Triplet	130	778	1588	5	0	0	1311667	683	0	correct_rejection	NA	0
39	Triplet	131	779	1589	4	0	0	1312384	683	0	correct_rejection	NA	0
39	Triplet	132	780	1590	7	0	0	1313100	684	0	correct_rejection	NA	0
39	Triplet	133	781	1591	8	0	0	1313817	683	0	correct_rejection	NA	0
39	Triplet	134	782	1592	9	0	0	1314534	683	0	correct_rejection	NA	0
39	Triplet	135	783	1593	7	0	0	1315250	684	0	correct_rejection	NA	0
39	Triplet	136	784	1594	8	0	0	1315967	683	0	correct_rejection	NA	0
39	Triplet	137	785	1595	9	0	0	1316684	683	0	correct_rejection	NA	0
