ID	block	trial_block	trial_cat	trial_total	number	violation	level_violation	onset	duration	Response	Hit_Miss	RT	pre_trial_fixcross_ISI
first_trigger_at: 11236
trigger nr 5 at 15236
40	Correct	1	487	1	4	0	0	22990	692	0	correct_rejection	NA	7708
40	Correct	2	488	2	5	0	0	23699	692	0	correct_rejection	NA	0
40	Correct	3	489	3	6	0	0	24408	691	0	correct_rejection	NA	0
40	Correct	4	490	4	4	0	0	25116	692	0	correct_rejection	NA	0
40	Correct	5	491	5	0	1	1	25825	691	1	hit	550	0
40	Correct	6	492	6	5	0	0	26533	692	0	correct_rejection	NA	0
40	Correct	7	493	7	6	0	0	27242	692	0	correct_rejection	NA	0
40	Correct	8	494	8	0	1	2	27950	692	1	hit	428	0
40	Correct	9	495	9	4	0	0	28659	692	0	correct_rejection	NA	0
40	Correct	10	496	10	5	0	0	29367	692	0	correct_rejection	NA	0
40	Correct	11	497	11	6	0	0	30076	692	0	correct_rejection	NA	0
40	Correct	12	498	12	6	0	0	30785	691	0	correct_rejection	NA	0
40	Correct	13	499	13	5	0	0	31493	692	0	correct_rejection	NA	0
40	Correct	14	500	14	4	0	0	32202	691	0	correct_rejection	NA	0
40	Correct	15	501	15	0	1	2	32910	692	1	hit	363	0
40	Correct	16	502	16	6	0	0	33619	692	0	correct_rejection	NA	0
40	Correct	17	503	17	5	0	0	34327	692	0	correct_rejection	NA	0
40	Correct	18	504	18	4	0	0	35036	692	0	correct_rejection	NA	0
40	Correct	19	505	19	6	0	0	35745	691	0	correct_rejection	NA	0
40	Correct	20	506	20	0	1	1	36453	692	1	hit	330	0
40	Correct	21	507	21	5	0	0	37162	691	0	correct_rejection	NA	0
40	Correct	22	508	22	4	0	0	37870	692	0	correct_rejection	NA	0
40	Correct	23	509	23	9	0	0	38579	692	0	correct_rejection	NA	0
40	Correct	24	510	24	8	0	0	39287	692	0	correct_rejection	NA	0
40	Correct	25	511	25	7	0	0	39996	692	0	correct_rejection	NA	0
40	Correct	26	512	26	9	0	0	40705	691	0	correct_rejection	NA	0
40	Correct	27	513	27	0	1	1	41413	692	1	hit	301	0
40	Correct	28	514	28	8	0	0	42122	691	0	correct_rejection	NA	0
40	Correct	29	515	29	7	0	0	42830	692	0	correct_rejection	NA	0
40	Correct	30	516	30	9	0	0	43539	691	0	correct_rejection	NA	0
40	Correct	31	517	31	8	0	0	44247	692	0	correct_rejection	NA	0
40	Correct	32	518	32	0	1	1	44956	692	1	hit	349	0
40	Correct	33	519	33	7	0	0	45664	692	0	correct_rejection	NA	0
40	Correct	34	520	34	7	0	0	46373	692	0	correct_rejection	NA	0
40	Correct	35	521	35	8	0	0	47082	691	0	correct_rejection	NA	0
40	Correct	36	522	36	9	0	0	47790	692	0	correct_rejection	NA	0
40	Correct	37	523	37	7	0	0	48499	691	0	correct_rejection	NA	0
40	Correct	38	524	38	8	0	0	49207	692	0	correct_rejection	NA	0
40	Correct	39	525	39	9	0	0	49916	692	0	correct_rejection	NA	0
40	Correct	40	526	40	7	0	0	50624	692	0	correct_rejection	NA	0
40	Correct	41	527	41	8	0	0	51333	692	0	correct_rejection	NA	0
40	Correct	42	528	42	9	0	0	52042	691	0	correct_rejection	NA	0
40	Correct	43	529	43	4	0	0	52750	692	0	correct_rejection	NA	0
40	Correct	44	530	44	5	0	0	53459	691	0	correct_rejection	NA	0
40	Correct	45	531	45	6	0	0	54167	692	0	correct_rejection	NA	0
40	Correct	46	532	46	4	0	0	54876	692	0	correct_rejection	NA	0
40	Correct	47	533	47	5	0	0	55584	692	0	correct_rejection	NA	0
40	Correct	48	534	48	6	0	0	56293	692	0	correct_rejection	NA	0
40	Correct	49	535	49	4	0	0	57002	691	0	correct_rejection	NA	0
40	Correct	50	536	50	5	0	0	57710	692	0	correct_rejection	NA	0
40	Correct	51	537	51	0	1	1	58419	691	1	hit	322	0
40	Correct	52	538	52	6	0	0	59127	692	0	correct_rejection	NA	0
40	Correct	53	539	53	6	0	0	59836	692	0	correct_rejection	NA	0
40	Correct	54	540	54	5	0	0	60544	692	0	correct_rejection	NA	0
40	Correct	55	541	55	4	0	0	61253	692	0	correct_rejection	NA	0
40	Correct	56	542	56	6	0	0	61962	691	0	correct_rejection	NA	0
40	Correct	57	543	57	5	0	0	62670	692	0	correct_rejection	NA	0
40	Correct	58	544	58	4	0	0	63379	691	0	correct_rejection	NA	0
40	Correct	59	545	59	0	1	2	64087	692	1	hit	434	0
40	Correct	60	546	60	6	0	0	64796	691	0	correct_rejection	NA	0
40	Correct	61	547	61	5	0	0	65504	692	0	correct_rejection	NA	0
40	Correct	62	548	62	0	1	1	66213	692	1	hit	331	0
40	Correct	63	549	63	4	0	0	66921	692	0	correct_rejection	NA	0
40	Correct	64	550	64	9	0	0	67630	692	0	correct_rejection	NA	0
40	Correct	65	551	65	0	1	1	68339	691	1	hit	422	0
40	Correct	66	552	66	8	0	0	69047	692	0	correct_rejection	NA	0
40	Correct	67	553	67	7	0	0	69756	691	0	correct_rejection	NA	0
40	Correct	68	554	68	9	0	0	70464	692	0	correct_rejection	NA	0
40	Correct	69	555	69	8	0	0	71173	692	0	correct_rejection	NA	0
40	Correct	70	556	70	0	1	1	71881	692	1	hit	245	0
40	Correct	71	557	71	7	0	0	72590	692	0	correct_rejection	NA	0
40	Correct	72	558	72	9	0	0	73299	691	0	correct_rejection	NA	0
40	Correct	73	559	73	8	0	0	74007	692	0	correct_rejection	NA	0
40	Correct	74	560	74	7	0	0	74716	691	0	correct_rejection	NA	0
40	Correct	75	561	75	7	0	0	75424	692	0	correct_rejection	NA	0
40	Correct	76	562	76	8	0	0	76133	692	0	correct_rejection	NA	0
40	Correct	77	563	77	9	0	0	76841	692	0	correct_rejection	NA	0
40	Correct	78	564	78	7	0	0	77550	692	0	correct_rejection	NA	0
40	Correct	79	565	79	8	0	0	78259	691	0	correct_rejection	NA	0
40	Correct	80	566	80	9	0	0	78967	692	0	correct_rejection	NA	0
40	Correct	81	567	81	7	0	0	79676	691	0	correct_rejection	NA	0
40	Correct	82	568	82	8	0	0	80384	692	0	correct_rejection	NA	0
40	Correct	83	569	83	9	0	0	81093	692	0	correct_rejection	NA	0
40	Correct	84	570	84	4	0	0	81801	692	0	correct_rejection	NA	0
40	Correct	85	571	85	5	0	0	82510	692	0	correct_rejection	NA	0
40	Correct	86	572	86	6	0	0	83219	691	0	correct_rejection	NA	0
40	Correct	87	573	87	4	0	0	83927	692	0	correct_rejection	NA	0
40	Correct	88	574	88	5	0	0	84636	691	0	correct_rejection	NA	0
40	Correct	89	575	89	0	1	1	85344	692	1	hit	486	0
40	Correct	90	576	90	6	0	0	86053	691	0	correct_rejection	NA	0
40	Correct	91	577	91	4	0	0	86761	692	0	correct_rejection	NA	0
40	Correct	92	578	92	5	0	0	87470	692	0	correct_rejection	NA	0
40	Correct	93	579	93	6	0	0	88178	692	0	correct_rejection	NA	0
40	Correct	94	580	94	6	0	0	88887	692	0	correct_rejection	NA	0
40	Correct	95	581	95	0	1	1	89596	691	1	hit	439	0
40	Correct	96	582	96	5	0	0	90304	692	0	correct_rejection	NA	0
40	Correct	97	583	97	4	0	0	91013	691	0	correct_rejection	NA	0
40	Correct	98	584	98	6	0	0	91721	692	0	correct_rejection	NA	0
40	Correct	99	585	99	5	0	0	92430	692	0	correct_rejection	NA	0
40	Correct	100	586	100	4	0	0	93138	692	0	correct_rejection	NA	0
40	Correct	101	587	101	6	0	0	93847	692	0	correct_rejection	NA	0
40	Correct	102	588	102	5	0	0	94556	691	0	correct_rejection	NA	0
40	Correct	103	589	103	4	0	0	95264	692	0	correct_rejection	NA	0
40	Correct	104	590	104	9	0	0	95973	691	0	correct_rejection	NA	0
40	Correct	105	591	105	8	0	0	96681	692	0	correct_rejection	NA	0
40	Correct	106	592	106	7	0	0	97390	692	0	correct_rejection	NA	0
40	Correct	107	593	107	9	0	0	98098	692	0	correct_rejection	NA	0
40	Correct	108	594	108	8	0	0	98807	692	0	correct_rejection	NA	0
40	Correct	109	595	109	7	0	0	99516	691	0	correct_rejection	NA	0
40	Correct	110	596	110	9	0	0	100224	692	0	correct_rejection	NA	0
40	Correct	111	597	111	8	0	0	100933	691	0	correct_rejection	NA	0
40	Correct	112	598	112	7	0	0	101641	692	0	correct_rejection	NA	0
40	Correct	113	599	113	7	0	0	102350	691	0	correct_rejection	NA	0
40	Correct	114	600	114	8	0	0	103058	692	0	correct_rejection	NA	0
40	Correct	115	601	115	0	1	1	103767	692	1	hit	370	0
40	Correct	116	602	116	9	0	0	104475	692	0	correct_rejection	NA	0
40	Correct	117	603	117	7	0	0	105184	692	0	correct_rejection	NA	0
40	Correct	118	604	118	8	0	0	105893	691	0	correct_rejection	NA	0
40	Correct	119	605	119	9	0	0	106601	692	0	correct_rejection	NA	0
40	Correct	120	606	120	7	0	0	107310	691	0	correct_rejection	NA	0
40	Correct	121	607	121	8	0	0	108018	692	0	correct_rejection	NA	0
40	Correct	122	608	122	9	0	0	108727	692	0	correct_rejection	NA	0
40	Correct	123	609	123	0	1	4	109435	692	1	hit	373	0
40	Correct	124	610	124	4	0	0	110144	692	0	correct_rejection	NA	0
40	Correct	125	611	125	5	0	0	110853	691	0	correct_rejection	NA	0
40	Correct	126	612	126	6	0	0	111561	692	0	correct_rejection	NA	0
40	Correct	127	613	127	4	0	0	112270	691	0	correct_rejection	NA	0
40	Correct	128	614	128	5	0	0	112978	692	0	correct_rejection	NA	0
40	Correct	129	615	129	6	0	0	113687	692	0	correct_rejection	NA	0
40	Correct	130	616	130	0	1	2	114395	692	1	hit	400	0
40	Correct	131	617	131	4	0	0	115104	692	0	correct_rejection	NA	0
40	Correct	132	618	132	5	0	0	115813	691	0	correct_rejection	NA	0
40	Correct	133	619	133	6	0	0	116521	692	0	correct_rejection	NA	0
40	Correct	134	620	134	6	0	0	117230	691	0	correct_rejection	NA	0
40	Correct	135	621	135	5	0	0	117938	692	0	correct_rejection	NA	0
40	Correct	136	622	136	4	0	0	118647	692	0	correct_rejection	NA	0
40	Correct	137	623	137	6	0	0	119355	692	0	correct_rejection	NA	0
40	Correct	138	624	138	5	0	0	120064	692	0	correct_rejection	NA	0
40	Correct	139	625	139	0	1	1	120773	691	1	hit	308	0
40	Correct	140	626	140	4	0	0	121481	692	0	correct_rejection	NA	0
40	Correct	141	627	141	6	0	0	122190	691	0	correct_rejection	NA	0
40	Correct	142	628	142	5	0	0	122898	692	0	correct_rejection	NA	0
40	Correct	143	629	143	4	0	0	123607	691	0	correct_rejection	NA	0
40	Correct	144	630	144	0	1	3	124315	692	1	hit	326	0
40	Correct	145	631	145	9	0	0	125024	692	0	correct_rejection	NA	0
40	Correct	146	632	146	8	0	0	125732	692	0	correct_rejection	NA	0
40	Correct	147	633	147	7	0	0	126441	692	0	correct_rejection	NA	0
40	Correct	148	634	148	9	0	0	127150	691	0	correct_rejection	NA	0
40	Correct	149	635	149	8	0	0	127858	692	0	correct_rejection	NA	0
40	Correct	150	636	150	7	0	0	128567	691	0	correct_rejection	NA	0
40	Correct	151	637	151	9	0	0	129275	692	0	correct_rejection	NA	0
40	Correct	152	638	152	8	0	0	129984	692	0	correct_rejection	NA	0
40	Correct	153	639	153	7	0	0	130692	692	0	correct_rejection	NA	0
40	Correct	154	640	154	7	0	0	131401	692	0	correct_rejection	NA	0
40	Correct	155	641	155	8	0	0	132110	691	0	correct_rejection	NA	0
40	Correct	156	642	156	9	0	0	132818	692	0	correct_rejection	NA	0
40	Correct	157	643	157	7	0	0	133527	691	0	correct_rejection	NA	0
40	Correct	158	644	158	8	0	0	134235	692	0	correct_rejection	NA	0
40	Correct	159	645	159	9	0	0	134944	692	0	correct_rejection	NA	0
40	Correct	160	646	160	7	0	0	135652	692	0	correct_rejection	NA	0
40	Correct	161	647	161	8	0	0	136361	692	0	correct_rejection	NA	0
40	Correct	162	648	162	9	0	0	137070	691	0	correct_rejection	NA	0
40	Triplet	1	163	163	6	0	0	147165	691	0	correct_rejection	NA	7899
40	Triplet	2	164	164	5	0	0	147873	692	0	correct_rejection	NA	0
40	Triplet	3	165	165	4	0	0	148582	691	0	correct_rejection	NA	0
40	Triplet	4	166	166	0	1	2	149290	692	1	hit	350	0
40	Triplet	5	167	167	6	0	0	149999	691	0	correct_rejection	NA	0
40	Triplet	6	168	168	5	0	0	150707	692	0	correct_rejection	NA	0
40	Triplet	7	169	169	0	1	1	151416	692	1	hit	510	0
40	Triplet	8	170	170	4	0	0	152124	692	0	correct_rejection	NA	0
40	Triplet	9	171	171	4	0	0	152833	692	0	correct_rejection	NA	0
40	Triplet	10	172	172	5	0	0	153542	691	0	correct_rejection	NA	0
40	Triplet	11	173	173	0	1	1	154250	692	1	hit	290	0
40	Triplet	12	174	174	6	0	0	154959	691	0	correct_rejection	NA	0
40	Triplet	13	175	175	9	0	0	155667	692	0	correct_rejection	NA	0
40	Triplet	14	176	176	8	0	0	156376	692	0	correct_rejection	NA	0
40	Triplet	15	177	177	7	0	0	157084	692	0	correct_rejection	NA	0
40	Triplet	16	178	178	6	0	0	157793	692	0	correct_rejection	NA	0
40	Triplet	17	179	179	0	1	1	158502	691	1	hit	292	0
40	Triplet	18	180	180	5	0	0	159210	692	0	correct_rejection	NA	0
40	Triplet	19	181	181	4	0	0	159919	691	0	correct_rejection	NA	0
40	Triplet	20	182	182	9	0	0	160627	692	0	correct_rejection	NA	0
40	Triplet	21	183	183	8	0	0	161336	692	0	correct_rejection	NA	0
40	Triplet	22	184	184	7	0	0	162044	692	0	correct_rejection	NA	0
40	Triplet	23	185	185	0	1	2	162753	692	1	hit	319	0
40	Triplet	24	186	186	7	0	0	163462	691	0	correct_rejection	NA	0
40	Triplet	25	187	187	8	0	0	164170	692	0	correct_rejection	NA	0
40	Triplet	26	188	188	9	0	0	164879	691	0	correct_rejection	NA	0
40	Triplet	27	189	189	6	0	0	165587	692	0	correct_rejection	NA	0
40	Triplet	28	190	190	5	0	0	166296	692	0	correct_rejection	NA	0
40	Triplet	29	191	191	0	1	1	167004	692	1	hit	342	0
40	Triplet	30	192	192	4	0	0	167713	692	0	correct_rejection	NA	0
40	Triplet	31	193	193	7	0	0	168422	691	0	correct_rejection	NA	0
40	Triplet	32	194	194	8	0	0	169130	692	0	correct_rejection	NA	0
40	Triplet	33	195	195	9	0	0	169839	691	0	correct_rejection	NA	0
40	Triplet	34	196	196	7	0	0	170547	692	0	correct_rejection	NA	0
40	Triplet	35	197	197	8	0	0	171256	691	0	correct_rejection	NA	0
40	Triplet	36	198	198	9	0	0	171964	692	0	correct_rejection	NA	0
40	Triplet	37	199	199	9	0	0	172673	692	0	correct_rejection	NA	0
40	Triplet	38	200	200	8	0	0	173381	692	0	correct_rejection	NA	0
40	Triplet	39	201	201	7	0	0	174090	692	0	correct_rejection	NA	0
40	Triplet	40	202	202	9	0	0	174799	691	0	correct_rejection	NA	0
40	Triplet	41	203	203	8	0	0	175507	692	0	correct_rejection	NA	0
40	Triplet	42	204	204	0	1	1	176216	691	1	hit	317	0
40	Triplet	43	205	205	7	0	0	176924	692	0	correct_rejection	NA	0
40	Triplet	44	206	206	4	0	0	177633	692	0	correct_rejection	NA	0
40	Triplet	45	207	207	5	0	0	178341	692	0	correct_rejection	NA	0
40	Triplet	46	208	208	6	0	0	179050	692	0	correct_rejection	NA	0
40	Triplet	47	209	209	4	0	0	179759	691	0	correct_rejection	NA	0
40	Triplet	48	210	210	5	0	0	180467	692	0	correct_rejection	NA	0
40	Triplet	49	211	211	6	0	0	181176	691	0	correct_rejection	NA	0
40	Triplet	50	212	212	7	0	0	181884	692	0	correct_rejection	NA	0
40	Triplet	51	213	213	8	0	0	182593	692	0	correct_rejection	NA	0
40	Triplet	52	214	214	9	0	0	183301	692	0	correct_rejection	NA	0
40	Triplet	53	215	215	4	0	0	184010	692	0	correct_rejection	NA	0
40	Triplet	54	216	216	5	0	0	184719	691	0	correct_rejection	NA	0
40	Triplet	55	217	217	6	0	0	185427	692	0	correct_rejection	NA	0
40	Triplet	56	218	218	7	0	0	186136	691	0	correct_rejection	NA	0
40	Triplet	57	219	219	0	1	1	186844	692	1	hit	399	0
40	Triplet	58	220	220	8	0	0	187553	691	0	correct_rejection	NA	0
40	Triplet	59	221	221	9	0	0	188261	692	0	correct_rejection	NA	0
40	Triplet	60	222	222	0	1	2	188970	692	1	hit	332	0
40	Triplet	61	223	223	6	0	0	189678	692	0	correct_rejection	NA	0
40	Triplet	62	224	224	5	0	0	190387	692	0	correct_rejection	NA	0
40	Triplet	63	225	225	4	0	0	191096	691	0	correct_rejection	NA	0
40	Triplet	64	226	226	6	0	0	191804	692	0	correct_rejection	NA	0
40	Triplet	65	227	227	5	0	0	192513	691	0	correct_rejection	NA	0
40	Triplet	66	228	228	4	0	0	193221	692	0	correct_rejection	NA	0
40	Triplet	67	229	229	9	0	0	193930	692	0	correct_rejection	NA	0
40	Triplet	68	230	230	8	0	0	194638	692	0	correct_rejection	NA	0
40	Triplet	69	231	231	7	0	0	195347	692	0	correct_rejection	NA	0
40	Triplet	70	232	232	4	0	0	196056	691	0	correct_rejection	NA	0
40	Triplet	71	233	233	0	1	1	196764	692	1	hit	341	0
40	Triplet	72	234	234	5	0	0	197473	691	0	correct_rejection	NA	0
40	Triplet	73	235	235	6	0	0	198181	692	0	correct_rejection	NA	0
40	Triplet	74	236	236	7	0	0	198890	692	0	correct_rejection	NA	0
40	Triplet	75	237	237	8	0	0	199598	692	0	correct_rejection	NA	0
40	Triplet	76	238	238	9	0	0	200307	692	0	correct_rejection	NA	0
40	Triplet	77	239	239	7	0	0	201016	691	0	correct_rejection	NA	0
40	Triplet	78	240	240	8	0	0	201724	692	0	correct_rejection	NA	0
40	Triplet	79	241	241	9	0	0	202433	691	0	correct_rejection	NA	0
40	Triplet	80	242	242	4	0	0	203141	692	0	correct_rejection	NA	0
40	Triplet	81	243	243	5	0	0	203850	692	0	correct_rejection	NA	0
40	Triplet	82	244	244	6	0	0	204558	692	0	correct_rejection	NA	0
40	Triplet	83	245	245	6	0	0	205267	692	0	correct_rejection	NA	0
40	Triplet	84	246	246	5	0	0	205976	691	0	correct_rejection	NA	0
40	Triplet	85	247	247	4	0	0	206684	692	0	correct_rejection	NA	0
40	Triplet	86	248	248	7	0	0	207393	691	0	correct_rejection	NA	0
40	Triplet	87	249	249	8	0	0	208101	692	0	correct_rejection	NA	0
40	Triplet	88	250	250	9	0	0	208810	691	0	correct_rejection	NA	0
40	Triplet	89	251	251	9	0	0	209518	692	0	correct_rejection	NA	0
40	Triplet	90	252	252	8	0	0	210227	692	0	correct_rejection	NA	0
40	Triplet	91	253	253	7	0	0	210935	692	0	correct_rejection	NA	0
40	Triplet	92	254	254	6	0	0	211644	692	0	correct_rejection	NA	0
40	Triplet	93	255	255	5	0	0	212353	691	0	correct_rejection	NA	0
40	Triplet	94	256	256	4	0	0	213061	692	0	correct_rejection	NA	0
40	Triplet	95	257	257	4	0	0	213770	691	0	correct_rejection	NA	0
40	Triplet	96	258	258	5	0	0	214478	692	0	correct_rejection	NA	0
40	Triplet	97	259	259	6	0	0	215187	692	0	correct_rejection	NA	0
40	Triplet	98	260	260	4	0	0	215895	692	0	correct_rejection	NA	0
40	Triplet	99	261	261	5	0	0	216604	692	0	correct_rejection	NA	0
40	Triplet	100	262	262	6	0	0	217313	691	0	correct_rejection	NA	0
40	Triplet	101	263	263	9	0	0	218021	692	0	correct_rejection	NA	0
40	Triplet	102	264	264	8	0	0	218730	691	0	correct_rejection	NA	0
40	Triplet	103	265	265	7	0	0	219438	692	0	correct_rejection	NA	0
40	Triplet	104	266	266	0	1	2	220147	692	1	hit	356	0
40	Triplet	105	267	267	9	0	0	220855	692	0	correct_rejection	NA	0
40	Triplet	106	268	268	8	0	0	221564	692	0	correct_rejection	NA	0
40	Triplet	107	269	269	7	0	0	222273	691	0	correct_rejection	NA	0
40	Triplet	108	270	270	4	0	0	222981	692	0	correct_rejection	NA	0
40	Triplet	109	271	271	5	0	0	223690	691	0	correct_rejection	NA	0
40	Triplet	110	272	272	6	0	0	224398	692	0	correct_rejection	NA	0
40	Triplet	111	273	273	4	0	0	225107	692	0	correct_rejection	NA	0
40	Triplet	112	274	274	5	0	0	225815	692	0	correct_rejection	NA	0
40	Triplet	113	275	275	6	0	0	226524	692	0	correct_rejection	NA	0
40	Triplet	114	276	276	6	0	0	227233	691	0	correct_rejection	NA	0
40	Triplet	115	277	277	0	1	1	227941	692	1	hit	521	0
40	Triplet	116	278	278	5	0	0	228650	691	0	correct_rejection	NA	0
40	Triplet	117	279	279	4	0	0	229358	692	0	correct_rejection	NA	0
40	Triplet	118	280	280	9	0	0	230067	691	0	correct_rejection	NA	0
40	Triplet	119	281	281	8	0	0	230775	692	0	correct_rejection	NA	0
40	Triplet	120	282	282	0	1	1	231484	692	1	hit	362	0
40	Triplet	121	283	283	7	0	0	232192	692	0	correct_rejection	NA	0
40	Triplet	122	284	284	9	0	0	232901	692	0	correct_rejection	NA	0
40	Triplet	123	285	285	0	1	1	233610	691	1	hit	392	0
40	Triplet	124	286	286	8	0	0	234318	692	0	correct_rejection	NA	0
40	Triplet	125	287	287	7	0	0	235027	691	0	correct_rejection	NA	0
40	Triplet	126	288	288	6	0	0	235735	692	0	correct_rejection	NA	0
40	Triplet	127	289	289	5	0	0	236444	692	0	correct_rejection	NA	0
40	Triplet	128	290	290	4	0	0	237152	692	0	correct_rejection	NA	0
40	Triplet	129	291	291	6	0	0	237861	692	0	correct_rejection	NA	0
40	Triplet	130	292	292	5	0	0	238570	691	0	correct_rejection	NA	0
40	Triplet	131	293	293	4	0	0	239278	692	0	correct_rejection	NA	0
40	Triplet	132	294	294	7	0	0	239987	691	0	correct_rejection	NA	0
40	Triplet	133	295	295	0	1	1	240695	692	1	hit	349	0
40	Triplet	134	296	296	8	0	0	241404	692	0	correct_rejection	NA	0
40	Triplet	135	297	297	9	0	0	242112	692	0	correct_rejection	NA	0
40	Triplet	136	298	298	4	0	0	242821	692	0	correct_rejection	NA	0
40	Triplet	137	299	299	5	0	0	243530	691	0	correct_rejection	NA	0
40	Triplet	138	300	300	6	0	0	244238	692	0	correct_rejection	NA	0
40	Triplet	139	301	301	7	0	0	244947	691	0	correct_rejection	NA	0
40	Triplet	140	302	302	8	0	0	245655	692	0	correct_rejection	NA	0
40	Triplet	141	303	303	0	1	1	246364	691	1	hit	454	0
40	Triplet	142	304	304	9	0	0	247072	692	0	correct_rejection	NA	0
40	Triplet	143	305	305	9	0	0	247781	692	0	correct_rejection	NA	0
40	Triplet	144	306	306	8	0	0	248490	691	0	correct_rejection	NA	0
40	Triplet	145	307	307	7	0	0	249198	692	0	correct_rejection	NA	0
40	Triplet	146	308	308	4	0	0	249907	691	0	correct_rejection	NA	0
40	Triplet	147	309	309	5	0	0	250615	692	0	correct_rejection	NA	0
40	Triplet	148	310	310	6	0	0	251324	691	0	correct_rejection	NA	0
40	Triplet	149	311	311	9	0	0	252032	692	0	correct_rejection	NA	0
40	Triplet	150	312	312	0	1	1	252741	692	1	hit	330	0
40	Triplet	151	313	313	8	0	0	253449	692	0	correct_rejection	NA	0
40	Triplet	152	314	314	7	0	0	254158	692	0	correct_rejection	NA	0
40	Triplet	153	315	315	7	0	0	254867	691	0	correct_rejection	NA	0
40	Triplet	154	316	316	8	0	0	255575	692	0	correct_rejection	NA	0
40	Triplet	155	317	317	9	0	0	256284	691	0	correct_rejection	NA	0
40	Triplet	156	318	318	7	0	0	256992	692	0	correct_rejection	NA	0
40	Triplet	157	319	319	0	1	1	257701	692	1	hit	415	0
40	Triplet	158	320	320	8	0	0	258409	692	0	correct_rejection	NA	0
40	Triplet	159	321	321	9	0	0	259118	692	0	correct_rejection	NA	0
40	Triplet	160	322	322	6	0	0	259827	691	0	correct_rejection	NA	0
40	Triplet	161	323	323	5	0	0	260535	692	0	correct_rejection	NA	0
40	Triplet	162	324	324	4	0	0	261244	691	0	correct_rejection	NA	0
40	Correct	1	1	325	4	0	0	270363	692	0	correct_rejection	NA	7098
40	Correct	2	2	326	5	0	0	271072	692	0	correct_rejection	NA	0
40	Correct	3	3	327	6	0	0	271780	692	0	correct_rejection	NA	0
40	Correct	4	4	328	0	1	2	272489	692	1	hit	285	0
40	Correct	5	5	329	4	0	0	273198	691	0	correct_rejection	NA	0
40	Correct	6	6	330	5	0	0	273906	692	0	correct_rejection	NA	0
40	Correct	7	7	331	6	0	0	274615	691	0	correct_rejection	NA	0
40	Correct	8	8	332	4	0	0	275323	692	0	correct_rejection	NA	0
40	Correct	9	9	333	5	0	0	276032	692	0	correct_rejection	NA	0
40	Correct	10	10	334	6	0	0	276740	692	0	correct_rejection	NA	0
40	Correct	11	11	335	0	1	3	277449	692	1	hit	280	0
40	Correct	12	12	336	6	0	0	278158	691	0	correct_rejection	NA	0
40	Correct	13	13	337	5	0	0	278866	692	0	correct_rejection	NA	0
40	Correct	14	14	338	4	0	0	279575	691	0	correct_rejection	NA	0
40	Correct	15	15	339	6	0	0	280283	692	0	correct_rejection	NA	0
40	Correct	16	16	340	0	1	1	280992	692	1	hit	368	0
40	Correct	17	17	341	5	0	0	281700	692	0	correct_rejection	NA	0
40	Correct	18	18	342	4	0	0	282409	692	0	correct_rejection	NA	0
40	Correct	19	19	343	6	0	0	283118	691	0	correct_rejection	NA	0
40	Correct	20	20	344	5	0	0	283826	692	0	correct_rejection	NA	0
40	Correct	21	21	345	4	0	0	284535	691	0	correct_rejection	NA	0
40	Correct	22	22	346	9	0	0	285243	692	0	correct_rejection	NA	0
40	Correct	23	23	347	8	0	0	285952	692	0	correct_rejection	NA	0
40	Correct	24	24	348	7	0	0	286660	692	0	correct_rejection	NA	0
40	Correct	25	25	349	9	0	0	287369	692	0	correct_rejection	NA	0
40	Correct	26	26	350	8	0	0	288078	691	0	correct_rejection	NA	0
40	Correct	27	27	351	7	0	0	288786	692	0	correct_rejection	NA	0
40	Correct	28	28	352	0	1	2	289495	691	1	hit	288	0
40	Correct	29	29	353	9	0	0	290203	692	0	correct_rejection	NA	0
40	Correct	30	30	354	8	0	0	290912	691	0	correct_rejection	NA	0
40	Correct	31	31	355	7	0	0	291620	692	0	correct_rejection	NA	0
40	Correct	32	32	356	7	0	0	292329	692	0	correct_rejection	NA	0
40	Correct	33	33	357	8	0	0	293037	692	0	correct_rejection	NA	0
40	Correct	34	34	358	9	0	0	293746	692	0	correct_rejection	NA	0
40	Correct	35	35	359	7	0	0	294455	691	0	correct_rejection	NA	0
40	Correct	36	36	360	8	0	0	295163	692	0	correct_rejection	NA	0
40	Correct	37	37	361	9	0	0	295872	691	0	correct_rejection	NA	0
40	Correct	38	38	362	7	0	0	296580	692	0	correct_rejection	NA	0
40	Correct	39	39	363	8	0	0	297289	692	0	correct_rejection	NA	0
40	Correct	40	40	364	9	0	0	297997	692	0	correct_rejection	NA	0
40	Correct	41	41	365	0	1	4	298706	692	1	hit	313	0
40	Correct	42	42	366	4	0	0	299415	691	0	correct_rejection	NA	0
40	Correct	43	43	367	5	0	0	300123	692	0	correct_rejection	NA	0
40	Correct	44	44	368	0	1	1	300832	691	1	hit	352	0
40	Correct	45	45	369	6	0	0	301540	692	0	correct_rejection	NA	0
40	Correct	46	46	370	4	0	0	302249	692	0	correct_rejection	NA	0
40	Correct	47	47	371	5	0	0	302957	692	0	correct_rejection	NA	0
40	Correct	48	48	372	6	0	0	303666	692	0	correct_rejection	NA	0
40	Correct	49	49	373	4	0	0	304375	691	0	correct_rejection	NA	0
40	Correct	50	50	374	5	0	0	305083	692	0	correct_rejection	NA	0
40	Correct	51	51	375	6	0	0	305792	691	0	correct_rejection	NA	0
40	Correct	52	52	376	6	0	0	306500	692	0	correct_rejection	NA	0
40	Correct	53	53	377	5	0	0	307209	692	0	correct_rejection	NA	0
40	Correct	54	54	378	4	0	0	307917	692	0	correct_rejection	NA	0
40	Correct	55	55	379	6	0	0	308626	692	0	correct_rejection	NA	0
40	Correct	56	56	380	5	0	0	309335	691	0	correct_rejection	NA	0
40	Correct	57	57	381	4	0	0	310043	692	0	correct_rejection	NA	0
40	Correct	58	58	382	6	0	0	310752	691	0	correct_rejection	NA	0
40	Correct	59	59	383	5	0	0	311460	692	0	correct_rejection	NA	0
40	Correct	60	60	384	4	0	0	312169	691	0	correct_rejection	NA	0
40	Correct	61	61	385	9	0	0	312877	692	0	correct_rejection	NA	0
40	Correct	62	62	386	8	0	0	313586	692	0	correct_rejection	NA	0
40	Correct	63	63	387	7	0	0	314294	692	0	correct_rejection	NA	0
40	Correct	64	64	388	9	0	0	315003	692	0	correct_rejection	NA	0
40	Correct	65	65	389	8	0	0	315712	691	0	correct_rejection	NA	0
40	Correct	66	66	390	7	0	0	316420	692	0	correct_rejection	NA	0
40	Correct	67	67	391	9	0	0	317129	691	0	correct_rejection	NA	0
40	Correct	68	68	392	8	0	0	317837	692	0	correct_rejection	NA	0
40	Correct	69	69	393	7	0	0	318546	692	0	correct_rejection	NA	0
40	Correct	70	70	394	7	0	0	319254	692	0	correct_rejection	NA	0
40	Correct	71	71	395	8	0	0	319963	692	0	correct_rejection	NA	0
40	Correct	72	72	396	9	0	0	320672	691	0	correct_rejection	NA	0
40	Correct	73	73	397	7	0	0	321380	692	0	correct_rejection	NA	0
40	Correct	74	74	398	8	0	0	322089	691	0	correct_rejection	NA	0
40	Correct	75	75	399	9	0	0	322797	692	0	correct_rejection	NA	0
40	Correct	76	76	400	7	0	0	323506	692	0	correct_rejection	NA	0
40	Correct	77	77	401	8	0	0	324214	692	0	correct_rejection	NA	0
40	Correct	78	78	402	9	0	0	324923	692	0	correct_rejection	NA	0
40	Correct	79	79	403	4	0	0	325632	691	0	correct_rejection	NA	0
40	Correct	80	80	404	0	1	1	326340	692	1	hit	417	0
40	Correct	81	81	405	5	0	0	327049	691	0	correct_rejection	NA	0
40	Correct	82	82	406	6	0	0	327757	692	0	correct_rejection	NA	0
40	Correct	83	83	407	4	0	0	328466	691	0	correct_rejection	NA	0
40	Correct	84	84	408	5	0	0	329174	692	0	correct_rejection	NA	0
40	Correct	85	85	409	6	0	0	329883	692	0	correct_rejection	NA	0
40	Correct	86	86	410	4	0	0	330591	692	0	correct_rejection	NA	0
40	Correct	87	87	411	0	1	1	331300	692	1	hit	561	0
40	Correct	88	88	412	5	0	0	332009	691	0	correct_rejection	NA	0
40	Correct	89	89	413	6	0	0	332717	692	0	correct_rejection	NA	0
40	Correct	90	90	414	6	0	0	333426	691	0	correct_rejection	NA	0
40	Correct	91	91	415	5	0	0	334134	692	0	correct_rejection	NA	0
40	Correct	92	92	416	0	1	1	334843	692	1	hit	365	0
40	Correct	93	93	417	4	0	0	335551	692	0	correct_rejection	NA	0
40	Correct	94	94	418	6	0	0	336260	692	0	correct_rejection	NA	0
40	Correct	95	95	419	5	0	0	336969	691	0	correct_rejection	NA	0
40	Correct	96	96	420	0	1	1	337677	692	1	hit	333	0
40	Correct	97	97	421	4	0	0	338386	691	0	correct_rejection	NA	0
40	Correct	98	98	422	6	0	0	339094	692	0	correct_rejection	NA	0
40	Correct	99	99	423	5	0	0	339803	692	0	correct_rejection	NA	0
40	Correct	100	100	424	4	0	0	340511	692	0	correct_rejection	NA	0
40	Correct	101	101	425	9	0	0	341220	692	0	correct_rejection	NA	0
40	Correct	102	102	426	0	1	1	341929	691	1	hit	324	0
40	Correct	103	103	427	8	0	0	342637	692	0	correct_rejection	NA	0
40	Correct	104	104	428	7	0	0	343346	691	0	correct_rejection	NA	0
40	Correct	105	105	429	9	0	0	344054	692	0	correct_rejection	NA	0
40	Correct	106	106	430	8	0	0	344763	692	0	correct_rejection	NA	0
40	Correct	107	107	431	7	0	0	345471	692	0	correct_rejection	NA	0
40	Correct	108	108	432	9	0	0	346180	692	0	correct_rejection	NA	0
40	Correct	109	109	433	8	0	0	346889	691	0	correct_rejection	NA	0
40	Correct	110	110	434	0	1	1	347597	692	1	hit	335	0
40	Correct	111	111	435	7	0	0	348306	691	0	correct_rejection	NA	0
40	Correct	112	112	436	7	0	0	349014	692	0	correct_rejection	NA	0
40	Correct	113	113	437	8	0	0	349723	691	0	correct_rejection	NA	0
40	Correct	114	114	438	9	0	0	350431	692	0	correct_rejection	NA	0
40	Correct	115	115	439	7	0	0	351140	692	0	correct_rejection	NA	0
40	Correct	116	116	440	8	0	0	351848	692	0	correct_rejection	NA	0
40	Correct	117	117	441	9	0	0	352557	692	0	correct_rejection	NA	0
40	Correct	118	118	442	7	0	0	353266	691	0	correct_rejection	NA	0
40	Correct	119	119	443	8	0	0	353974	692	0	correct_rejection	NA	0
40	Correct	120	120	444	0	1	1	354683	691	1	hit	331	0
40	Correct	121	121	445	9	0	0	355391	692	0	correct_rejection	NA	0
40	Correct	122	122	446	4	0	0	356100	692	0	correct_rejection	NA	0
40	Correct	123	123	447	5	0	0	356808	692	0	correct_rejection	NA	0
40	Correct	124	124	448	6	0	0	357517	692	0	correct_rejection	NA	0
40	Correct	125	125	449	4	0	0	358226	691	0	correct_rejection	NA	0
40	Correct	126	126	450	5	0	0	358934	692	0	correct_rejection	NA	0
40	Correct	127	127	451	6	0	0	359643	691	0	correct_rejection	NA	0
40	Correct	128	128	452	4	0	0	360351	692	0	correct_rejection	NA	0
40	Correct	129	129	453	5	0	0	361060	692	0	correct_rejection	NA	0
40	Correct	130	130	454	0	1	1	361768	692	1	hit	370	0
40	Correct	131	131	455	6	0	0	362477	692	0	correct_rejection	NA	0
40	Correct	132	132	456	6	0	0	363186	691	0	correct_rejection	NA	0
40	Correct	133	133	457	0	1	1	363894	692	1	hit	332	0
40	Correct	134	134	458	5	0	0	364603	691	0	correct_rejection	NA	0
40	Correct	135	135	459	4	0	0	365311	692	0	correct_rejection	NA	0
40	Correct	136	136	460	6	0	0	366020	691	0	correct_rejection	NA	0
40	Correct	137	137	461	5	0	0	366728	692	0	correct_rejection	NA	0
40	Correct	138	138	462	4	0	0	367437	692	0	correct_rejection	NA	0
40	Correct	139	139	463	0	1	2	368145	692	1	hit	320	0
40	Correct	140	140	464	6	0	0	368854	692	0	correct_rejection	NA	0
40	Correct	141	141	465	5	0	0	369563	691	0	correct_rejection	NA	0
40	Correct	142	142	466	4	0	0	370271	692	0	correct_rejection	NA	0
40	Correct	143	143	467	9	0	0	370980	691	0	correct_rejection	NA	0
40	Correct	144	144	468	8	0	0	371688	692	0	correct_rejection	NA	0
40	Correct	145	145	469	7	0	0	372397	692	0	correct_rejection	NA	0
40	Correct	146	146	470	9	0	0	373105	692	0	correct_rejection	NA	0
40	Correct	147	147	471	8	0	0	373814	692	0	correct_rejection	NA	0
40	Correct	148	148	472	7	0	0	374523	691	0	correct_rejection	NA	0
40	Correct	149	149	473	9	0	0	375231	692	0	correct_rejection	NA	0
40	Correct	150	150	474	0	1	1	375940	691	1	hit	317	0
40	Correct	151	151	475	8	0	0	376648	692	0	correct_rejection	NA	0
40	Correct	152	152	476	7	0	0	377357	692	0	correct_rejection	NA	0
40	Correct	153	153	477	7	0	0	378065	692	0	correct_rejection	NA	0
40	Correct	154	154	478	8	0	0	378774	692	0	correct_rejection	NA	0
40	Correct	155	155	479	9	0	0	379483	691	0	correct_rejection	NA	0
40	Correct	156	156	480	0	1	2	380191	692	1	hit	384	0
40	Correct	157	157	481	7	0	0	380900	691	0	correct_rejection	NA	0
40	Correct	158	158	482	8	0	0	381608	692	0	correct_rejection	NA	0
40	Correct	159	159	483	9	0	0	382317	692	0	correct_rejection	NA	0
40	Correct	160	160	484	7	0	0	383025	692	0	correct_rejection	NA	0
40	Correct	161	161	485	8	0	0	383734	692	0	correct_rejection	NA	0
40	Correct	162	162	486	9	0	0	384443	691	0	correct_rejection	NA	0
40	Nonet	1	487	487	7	0	0	393887	692	0	correct_rejection	NA	7618
40	Nonet	2	488	488	8	0	0	394596	692	0	correct_rejection	NA	0
40	Nonet	3	489	489	9	0	0	395304	692	0	correct_rejection	NA	0
40	Nonet	4	490	490	0	1	2	396013	692	1	hit	424	0
40	Nonet	5	491	491	7	0	0	396722	691	0	correct_rejection	NA	0
40	Nonet	6	492	492	8	0	0	397430	692	0	correct_rejection	NA	0
40	Nonet	7	493	493	9	0	0	398139	691	0	correct_rejection	NA	0
40	Nonet	8	494	494	7	0	0	398847	692	0	correct_rejection	NA	0
40	Nonet	9	495	495	8	0	0	399556	692	0	correct_rejection	NA	0
40	Nonet	10	496	496	9	0	0	400264	692	0	correct_rejection	NA	0
40	Nonet	11	497	497	7	0	0	400973	692	0	correct_rejection	NA	0
40	Nonet	12	498	498	8	0	0	401682	691	0	correct_rejection	NA	0
40	Nonet	13	499	499	0	1	1	402390	692	1	hit	309	0
40	Nonet	14	500	500	9	0	0	403099	691	0	correct_rejection	NA	0
40	Nonet	15	501	501	7	0	0	403807	692	0	correct_rejection	NA	0
40	Nonet	16	502	502	0	1	1	404516	691	1	hit	395	0
40	Nonet	17	503	503	8	0	0	405224	692	0	correct_rejection	NA	0
40	Nonet	18	504	504	9	0	0	405933	692	0	correct_rejection	NA	0
40	Nonet	19	505	505	7	0	0	406641	692	0	correct_rejection	NA	0
40	Nonet	20	506	506	8	0	0	407350	692	0	correct_rejection	NA	0
40	Nonet	21	507	507	9	0	0	408059	691	0	correct_rejection	NA	0
40	Nonet	22	508	508	9	0	0	408767	692	0	correct_rejection	NA	0
40	Nonet	23	509	509	8	0	0	409476	691	0	correct_rejection	NA	0
40	Nonet	24	510	510	7	0	0	410184	692	0	correct_rejection	NA	0
40	Nonet	25	511	511	9	0	0	410893	692	0	correct_rejection	NA	0
40	Nonet	26	512	512	8	0	0	411601	692	0	correct_rejection	NA	0
40	Nonet	27	513	513	7	0	0	412310	692	0	correct_rejection	NA	0
40	Nonet	28	514	514	9	0	0	413019	691	0	correct_rejection	NA	0
40	Nonet	29	515	515	0	1	1	413727	692	1	hit	336	0
40	Nonet	30	516	516	8	0	0	414436	691	0	correct_rejection	NA	0
40	Nonet	31	517	517	7	0	0	415144	692	0	correct_rejection	NA	0
40	Nonet	32	518	518	9	0	0	415853	692	0	correct_rejection	NA	0
40	Nonet	33	519	519	8	0	0	416561	692	0	correct_rejection	NA	0
40	Nonet	34	520	520	7	0	0	417270	692	0	correct_rejection	NA	0
40	Nonet	35	521	521	9	0	0	417979	691	0	correct_rejection	NA	0
40	Nonet	36	522	522	0	1	1	418687	692	1	hit	394	0
40	Nonet	37	523	523	8	0	0	419396	691	0	correct_rejection	NA	0
40	Nonet	38	524	524	7	0	0	420104	692	0	correct_rejection	NA	0
40	Nonet	39	525	525	9	0	0	420813	692	0	correct_rejection	NA	0
40	Nonet	40	526	526	8	0	0	421521	692	0	correct_rejection	NA	0
40	Nonet	41	527	527	7	0	0	422230	692	0	correct_rejection	NA	0
40	Nonet	42	528	528	4	0	0	422939	691	0	correct_rejection	NA	0
40	Nonet	43	529	529	5	0	0	423647	692	0	correct_rejection	NA	0
40	Nonet	44	530	530	6	0	0	424356	691	0	correct_rejection	NA	0
40	Nonet	45	531	531	4	0	0	425064	692	0	correct_rejection	NA	0
40	Nonet	46	532	532	5	0	0	425773	691	0	correct_rejection	NA	0
40	Nonet	47	533	533	0	1	1	426481	692	1	hit	348	0
40	Nonet	48	534	534	6	0	0	427190	692	0	correct_rejection	NA	0
40	Nonet	49	535	535	4	0	0	427898	692	0	correct_rejection	NA	0
40	Nonet	50	536	536	5	0	0	428607	692	0	correct_rejection	NA	0
40	Nonet	51	537	537	6	0	0	429316	691	0	correct_rejection	NA	0
40	Nonet	52	538	538	6	0	0	430024	692	0	correct_rejection	NA	0
40	Nonet	53	539	539	5	0	0	430733	691	0	correct_rejection	NA	0
40	Nonet	54	540	540	4	0	0	431441	692	0	correct_rejection	NA	0
40	Nonet	55	541	541	6	0	0	432150	692	0	correct_rejection	NA	0
40	Nonet	56	542	542	5	0	0	432858	692	0	correct_rejection	NA	0
40	Nonet	57	543	543	4	0	0	433567	692	0	correct_rejection	NA	0
40	Nonet	58	544	544	6	0	0	434276	691	0	correct_rejection	NA	0
40	Nonet	59	545	545	5	0	0	434984	692	0	correct_rejection	NA	0
40	Nonet	60	546	546	4	0	0	435693	691	0	correct_rejection	NA	0
40	Nonet	61	547	547	4	0	0	436401	692	0	correct_rejection	NA	0
40	Nonet	62	548	548	5	0	0	437110	692	0	correct_rejection	NA	0
40	Nonet	63	549	549	6	0	0	437818	692	0	correct_rejection	NA	0
40	Nonet	64	550	550	4	0	0	438527	692	0	correct_rejection	NA	0
40	Nonet	65	551	551	5	0	0	439236	691	0	correct_rejection	NA	0
40	Nonet	66	552	552	6	0	0	439944	692	0	correct_rejection	NA	0
40	Nonet	67	553	553	0	1	2	440653	691	1	hit	357	0
40	Nonet	68	554	554	4	0	0	441361	692	0	correct_rejection	NA	0
40	Nonet	69	555	555	5	0	0	442070	691	0	correct_rejection	NA	0
40	Nonet	70	556	556	6	0	0	442778	692	0	correct_rejection	NA	0
40	Nonet	71	557	557	7	0	0	443487	692	0	correct_rejection	NA	0
40	Nonet	72	558	558	8	0	0	444196	691	0	correct_rejection	NA	0
40	Nonet	73	559	559	9	0	0	444904	692	0	correct_rejection	NA	0
40	Nonet	74	560	560	7	0	0	445613	691	0	correct_rejection	NA	0
40	Nonet	75	561	561	8	0	0	446321	692	0	correct_rejection	NA	0
40	Nonet	76	562	562	9	0	0	447030	691	0	correct_rejection	NA	0
40	Nonet	77	563	563	7	0	0	447738	692	0	correct_rejection	NA	0
40	Nonet	78	564	564	8	0	0	448447	692	0	correct_rejection	NA	0
40	Nonet	79	565	565	9	0	0	449155	692	0	correct_rejection	NA	0
40	Nonet	80	566	566	6	0	0	449864	692	0	correct_rejection	NA	0
40	Nonet	81	567	567	5	0	0	450573	691	0	correct_rejection	NA	0
40	Nonet	82	568	568	0	1	1	451281	692	1	hit	317	0
40	Nonet	83	569	569	4	0	0	451990	691	0	correct_rejection	NA	0
40	Nonet	84	570	570	6	0	0	452698	692	0	correct_rejection	NA	0
40	Nonet	85	571	571	5	0	0	453407	692	0	correct_rejection	NA	0
40	Nonet	86	572	572	4	0	0	454115	692	0	correct_rejection	NA	0
40	Nonet	87	573	573	0	1	2	454824	692	1	hit	462	0
40	Nonet	88	574	574	6	0	0	455533	691	0	correct_rejection	NA	0
40	Nonet	89	575	575	5	0	0	456241	692	0	correct_rejection	NA	0
40	Nonet	90	576	576	4	0	0	456950	691	0	correct_rejection	NA	0
40	Nonet	91	577	577	9	0	0	457658	692	0	correct_rejection	NA	0
40	Nonet	92	578	578	8	0	0	458367	692	0	correct_rejection	NA	0
40	Nonet	93	579	579	7	0	0	459075	692	0	correct_rejection	NA	0
40	Nonet	94	580	580	9	0	0	459784	692	0	correct_rejection	NA	0
40	Nonet	95	581	581	8	0	0	460493	691	0	correct_rejection	NA	0
40	Nonet	96	582	582	7	0	0	461201	692	0	correct_rejection	NA	0
40	Nonet	97	583	583	0	1	2	461910	691	1	hit	339	0
40	Nonet	98	584	584	9	0	0	462618	692	0	correct_rejection	NA	0
40	Nonet	99	585	585	8	0	0	463327	691	0	correct_rejection	NA	0
40	Nonet	100	586	586	7	0	0	464035	692	0	correct_rejection	NA	0
40	Nonet	101	587	587	6	0	0	464744	692	0	correct_rejection	NA	0
40	Nonet	102	588	588	5	0	0	465452	692	0	correct_rejection	NA	0
40	Nonet	103	589	589	0	1	1	466161	692	1	hit	687	0
40	Nonet	104	590	590	4	0	0	466870	691	0	correct_rejection	NA	0
40	Nonet	105	591	591	6	0	0	467578	692	0	correct_rejection	NA	0
40	Nonet	106	592	592	5	0	0	468287	691	0	correct_rejection	NA	0
40	Nonet	107	593	593	4	0	0	468995	692	0	correct_rejection	NA	0
40	Nonet	108	594	594	6	0	0	469704	692	0	correct_rejection	NA	0
40	Nonet	109	595	595	5	0	0	470412	692	0	correct_rejection	NA	0
40	Nonet	110	596	596	4	0	0	471121	692	0	correct_rejection	NA	0
40	Nonet	111	597	597	6	0	0	471830	691	0	correct_rejection	NA	0
40	Nonet	112	598	598	5	0	0	472538	692	0	correct_rejection	NA	0
40	Nonet	113	599	599	4	0	0	473247	691	0	correct_rejection	NA	0
40	Nonet	114	600	600	6	0	0	473955	692	0	correct_rejection	NA	0
40	Nonet	115	601	601	5	0	0	474664	692	0	correct_rejection	NA	0
40	Nonet	116	602	602	4	0	0	475372	692	0	correct_rejection	NA	0
40	Nonet	117	603	603	6	0	0	476081	692	0	correct_rejection	NA	0
40	Nonet	118	604	604	0	1	1	476790	691	1	hit	313	0
40	Nonet	119	605	605	5	0	0	477498	692	0	correct_rejection	NA	0
40	Nonet	120	606	606	4	0	0	478207	691	0	correct_rejection	NA	0
40	Nonet	121	607	607	7	0	0	478915	692	0	correct_rejection	NA	0
40	Nonet	122	608	608	8	0	0	479624	692	0	correct_rejection	NA	0
40	Nonet	123	609	609	0	1	1	480332	692	1	hit	521	0
40	Nonet	124	610	610	9	0	0	481041	692	0	correct_rejection	NA	0
40	Nonet	125	611	611	7	0	0	481750	691	0	correct_rejection	NA	0
40	Nonet	126	612	612	0	1	1	482458	692	1	hit	407	0
40	Nonet	127	613	613	8	0	0	483167	691	0	correct_rejection	NA	0
40	Nonet	128	614	614	9	0	0	483875	692	0	correct_rejection	NA	0
40	Nonet	129	615	615	0	1	2	484584	691	1	hit	378	0
40	Nonet	130	616	616	7	0	0	485292	692	0	correct_rejection	NA	0
40	Nonet	131	617	617	8	0	0	486001	692	0	correct_rejection	NA	0
40	Nonet	132	618	618	9	0	0	486709	692	0	correct_rejection	NA	0
40	Nonet	133	619	619	4	0	0	487418	692	0	correct_rejection	NA	0
40	Nonet	134	620	620	5	0	0	488127	691	0	correct_rejection	NA	0
40	Nonet	135	621	621	6	0	0	488835	692	0	correct_rejection	NA	0
40	Nonet	136	622	622	4	0	0	489544	691	0	correct_rejection	NA	0
40	Nonet	137	623	623	5	0	0	490252	692	0	correct_rejection	NA	0
40	Nonet	138	624	624	6	0	0	490961	692	0	correct_rejection	NA	0
40	Nonet	139	625	625	4	0	0	491669	692	0	correct_rejection	NA	0
40	Nonet	140	626	626	5	0	0	492378	692	0	correct_rejection	NA	0
40	Nonet	141	627	627	6	0	0	493087	691	0	correct_rejection	NA	0
40	Nonet	142	628	628	4	0	0	493795	692	0	correct_rejection	NA	0
40	Nonet	143	629	629	5	0	0	494504	691	0	correct_rejection	NA	0
40	Nonet	144	630	630	6	0	0	495212	692	0	correct_rejection	NA	0
40	Nonet	145	631	631	4	0	0	495921	692	0	correct_rejection	NA	0
40	Nonet	146	632	632	0	1	1	496629	692	1	hit	362	0
40	Nonet	147	633	633	5	0	0	497338	692	0	correct_rejection	NA	0
40	Nonet	148	634	634	6	0	0	498047	691	0	correct_rejection	NA	0
40	Nonet	149	635	635	0	1	2	498755	692	1	hit	392	0
40	Nonet	150	636	636	4	0	0	499464	691	0	correct_rejection	NA	0
40	Nonet	151	637	637	5	0	0	500172	692	0	correct_rejection	NA	0
40	Nonet	152	638	638	6	0	0	500881	691	0	correct_rejection	NA	0
40	Nonet	153	639	639	9	0	0	501589	692	0	correct_rejection	NA	0
40	Nonet	154	640	640	8	0	0	502298	692	0	correct_rejection	NA	0
40	Nonet	155	641	641	7	0	0	503006	692	0	correct_rejection	NA	0
40	Nonet	156	642	642	9	0	0	503715	692	0	correct_rejection	NA	0
40	Nonet	157	643	643	8	0	0	504424	691	0	correct_rejection	NA	0
40	Nonet	158	644	644	7	0	0	505132	692	0	correct_rejection	NA	0
40	Nonet	159	645	645	9	0	0	505841	691	0	correct_rejection	NA	0
40	Nonet	160	646	646	8	0	0	506549	692	0	correct_rejection	NA	0
40	Nonet	161	647	647	0	1	1	507258	692	1	hit	445	0
40	Nonet	162	648	648	7	0	0	507966	692	0	correct_rejection	NA	0
40	Single	1	325	649	9	0	0	517878	692	0	correct_rejection	NA	7609
40	Single	2	326	650	5	0	0	518587	691	0	correct_rejection	NA	0
40	Single	3	327	651	7	0	0	519295	692	0	correct_rejection	NA	0
40	Single	4	328	652	6	0	0	520004	691	0	correct_rejection	NA	0
40	Single	5	329	653	0	1	1	520712	692	1	hit	307	0
40	Single	6	330	654	9	0	0	521421	692	0	correct_rejection	NA	0
40	Single	7	331	655	4	0	0	522129	692	0	correct_rejection	NA	0
40	Single	8	332	656	4	0	0	522838	692	0	correct_rejection	NA	0
40	Single	9	333	657	7	0	0	523547	691	0	correct_rejection	NA	0
40	Single	10	334	658	8	0	0	524255	692	0	correct_rejection	NA	0
40	Single	11	335	659	5	0	0	524964	691	0	correct_rejection	NA	0
40	Single	12	336	660	9	0	0	525672	692	0	correct_rejection	NA	0
40	Single	13	337	661	0	1	1	526381	692	1	hit	331	0
40	Single	14	338	662	8	0	0	527089	692	0	correct_rejection	NA	0
40	Single	15	339	663	6	0	0	527798	692	0	correct_rejection	NA	0
40	Single	16	340	664	7	0	0	528507	691	0	correct_rejection	NA	0
40	Single	17	341	665	4	0	0	529215	692	0	correct_rejection	NA	0
40	Single	18	342	666	0	1	1	529924	691	1	hit	450	0
40	Single	19	343	667	5	0	0	530632	692	0	correct_rejection	NA	0
40	Single	20	344	668	8	0	0	531341	692	0	correct_rejection	NA	0
40	Single	21	345	669	8	0	0	532049	692	0	correct_rejection	NA	0
40	Single	22	346	670	9	0	0	532758	692	0	correct_rejection	NA	0
40	Single	23	347	671	7	0	0	533467	691	0	correct_rejection	NA	0
40	Single	24	348	672	5	0	0	534175	692	0	correct_rejection	NA	0
40	Single	25	349	673	5	0	0	534884	691	0	correct_rejection	NA	0
40	Single	26	350	674	4	0	0	535592	692	0	correct_rejection	NA	0
40	Single	27	351	675	9	0	0	536301	691	0	correct_rejection	NA	0
40	Single	28	352	676	9	0	0	537009	692	0	correct_rejection	NA	0
40	Single	29	353	677	6	0	0	537718	692	0	correct_rejection	NA	0
40	Single	30	354	678	8	0	0	538426	692	0	correct_rejection	NA	0
40	Single	31	355	679	4	0	0	539135	692	0	correct_rejection	NA	0
40	Single	32	356	680	6	0	0	539844	691	0	correct_rejection	NA	0
40	Single	33	357	681	0	1	1	540552	692	1	hit	367	0
40	Single	34	358	682	6	0	0	541261	691	0	correct_rejection	NA	0
40	Single	35	359	683	5	0	0	541969	692	0	correct_rejection	NA	0
40	Single	36	360	684	6	0	0	542678	692	0	correct_rejection	NA	0
40	Single	37	361	685	4	0	0	543386	692	0	correct_rejection	NA	0
40	Single	38	362	686	8	0	0	544095	692	0	correct_rejection	NA	0
40	Single	39	363	687	7	0	0	544804	691	0	correct_rejection	NA	0
40	Single	40	364	688	7	0	0	545512	692	0	correct_rejection	NA	0
40	Single	41	365	689	5	0	0	546221	691	0	correct_rejection	NA	0
40	Single	42	366	690	8	0	0	546929	692	0	correct_rejection	NA	0
40	Single	43	367	691	4	0	0	547638	692	0	correct_rejection	NA	0
40	Single	44	368	692	5	0	0	548346	692	0	correct_rejection	NA	0
40	Single	45	369	693	6	0	0	549055	692	0	correct_rejection	NA	0
40	Single	46	370	694	8	0	0	549764	691	0	correct_rejection	NA	0
40	Single	47	371	695	6	0	0	550472	692	0	correct_rejection	NA	0
40	Single	48	372	696	6	0	0	551181	691	0	correct_rejection	NA	0
40	Single	49	373	697	0	1	1	551889	692	1	hit	509	0
40	Single	50	374	698	4	0	0	552598	691	0	correct_rejection	NA	0
40	Single	51	375	699	7	0	0	553306	692	0	correct_rejection	NA	0
40	Single	52	376	700	9	0	0	554015	692	0	correct_rejection	NA	0
40	Single	53	377	701	0	1	1	554723	692	1	hit	406	0
40	Single	54	378	702	7	0	0	555432	692	0	correct_rejection	NA	0
40	Single	55	379	703	7	0	0	556141	691	0	correct_rejection	NA	0
40	Single	56	380	704	8	0	0	556849	692	0	correct_rejection	NA	0
40	Single	57	381	705	0	1	1	557558	691	1	hit	362	0
40	Single	58	382	706	7	0	0	558266	692	0	correct_rejection	NA	0
40	Single	59	383	707	4	0	0	558975	692	0	correct_rejection	NA	0
40	Single	60	384	708	0	1	1	559683	692	1	hit	328	0
40	Single	61	385	709	9	0	0	560392	692	0	correct_rejection	NA	0
40	Single	62	386	710	8	0	0	561101	691	0	correct_rejection	NA	0
40	Single	63	387	711	9	0	0	561809	692	0	correct_rejection	NA	0
40	Single	64	388	712	5	0	0	562518	691	0	correct_rejection	NA	0
40	Single	65	389	713	5	0	0	563226	692	0	correct_rejection	NA	0
40	Single	66	390	714	7	0	0	563935	692	0	correct_rejection	NA	0
40	Single	67	391	715	5	0	0	564643	692	0	correct_rejection	NA	0
40	Single	68	392	716	9	0	0	565352	692	0	correct_rejection	NA	0
40	Single	69	393	717	6	0	0	566061	691	0	correct_rejection	NA	0
40	Single	70	394	718	9	0	0	566769	692	0	correct_rejection	NA	0
40	Single	71	395	719	9	0	0	567478	691	0	correct_rejection	NA	0
40	Single	72	396	720	4	0	0	568186	692	0	correct_rejection	NA	0
40	Single	73	397	721	6	0	0	568895	692	0	correct_rejection	NA	0
40	Single	74	398	722	7	0	0	569603	692	0	correct_rejection	NA	0
40	Single	75	399	723	6	0	0	570312	692	0	correct_rejection	NA	0
40	Single	76	400	724	5	0	0	571021	691	0	correct_rejection	NA	0
40	Single	77	401	725	0	1	1	571729	692	1	hit	636	0
40	Single	78	402	726	4	0	0	572438	691	0	correct_rejection	NA	0
40	Single	79	403	727	4	0	0	573146	692	0	correct_rejection	NA	0
40	Single	80	404	728	8	0	0	573855	691	0	correct_rejection	NA	0
40	Single	81	405	729	8	0	0	574563	692	0	correct_rejection	NA	0
40	Single	82	406	730	0	1	1	575272	692	1	hit	361	0
40	Single	83	407	731	8	0	0	575980	692	0	correct_rejection	NA	0
40	Single	84	408	732	4	0	0	576689	692	0	correct_rejection	NA	0
40	Single	85	409	733	9	0	0	577398	691	0	correct_rejection	NA	0
40	Single	86	410	734	7	0	0	578106	692	0	correct_rejection	NA	0
40	Single	87	411	735	4	0	0	578815	691	0	correct_rejection	NA	0
40	Single	88	412	736	8	0	0	579523	692	0	correct_rejection	NA	0
40	Single	89	413	737	9	0	0	580232	692	0	correct_rejection	NA	0
40	Single	90	414	738	4	0	0	580940	692	0	correct_rejection	NA	0
40	Single	91	415	739	7	0	0	581649	692	0	correct_rejection	NA	0
40	Single	92	416	740	6	0	0	582358	691	0	correct_rejection	NA	0
40	Single	93	417	741	6	0	0	583066	692	0	correct_rejection	NA	0
40	Single	94	418	742	0	1	1	583775	691	1	hit	378	0
40	Single	95	419	743	8	0	0	584483	692	0	correct_rejection	NA	0
40	Single	96	420	744	8	0	0	585192	692	0	correct_rejection	NA	0
40	Single	97	421	745	5	0	0	585900	692	0	correct_rejection	NA	0
40	Single	98	422	746	5	0	0	586609	692	0	correct_rejection	NA	0
40	Single	99	423	747	6	0	0	587318	691	0	correct_rejection	NA	0
40	Single	100	424	748	0	1	1	588026	692	1	hit	402	0
40	Single	101	425	749	7	0	0	588735	691	0	correct_rejection	NA	0
40	Single	102	426	750	9	0	0	589443	692	0	correct_rejection	NA	0
40	Single	103	427	751	6	0	0	590152	691	0	correct_rejection	NA	0
40	Single	104	428	752	4	0	0	590860	692	0	correct_rejection	NA	0
40	Single	105	429	753	4	0	0	591569	692	0	correct_rejection	NA	0
40	Single	106	430	754	6	0	0	592278	691	0	correct_rejection	NA	0
40	Single	107	431	755	9	0	0	592986	692	0	correct_rejection	NA	0
40	Single	108	432	756	5	0	0	593695	691	0	correct_rejection	NA	0
40	Single	109	433	757	4	0	0	594403	692	0	correct_rejection	NA	0
40	Single	110	434	758	5	0	0	595112	691	0	correct_rejection	NA	0
40	Single	111	435	759	9	0	0	595820	692	0	correct_rejection	NA	0
40	Single	112	436	760	9	0	0	596529	692	0	correct_rejection	NA	0
40	Single	113	437	761	8	0	0	597237	692	0	correct_rejection	NA	0
40	Single	114	438	762	7	0	0	597946	692	0	correct_rejection	NA	0
40	Single	115	439	763	8	0	0	598655	691	0	correct_rejection	NA	0
40	Single	116	440	764	6	0	0	599363	692	0	correct_rejection	NA	0
40	Single	117	441	765	5	0	0	600072	691	0	correct_rejection	NA	0
40	Single	118	442	766	7	0	0	600780	692	0	correct_rejection	NA	0
40	Single	119	443	767	7	0	0	601489	692	0	correct_rejection	NA	0
40	Single	120	444	768	5	0	0	602197	692	0	correct_rejection	NA	0
40	Single	121	445	769	8	0	0	602906	692	0	correct_rejection	NA	0
40	Single	122	446	770	7	0	0	603615	691	0	correct_rejection	NA	0
40	Single	123	447	771	9	0	0	604323	692	0	correct_rejection	NA	0
40	Single	124	448	772	0	1	1	605032	691	1	hit	539	0
40	Single	125	449	773	9	0	0	605740	692	0	correct_rejection	NA	0
40	Single	126	450	774	6	0	0	606449	692	0	correct_rejection	NA	0
40	Single	127	451	775	0	1	1	607157	692	1	hit	434	0
40	Single	128	452	776	5	0	0	607866	692	0	correct_rejection	NA	0
40	Single	129	453	777	5	0	0	608575	691	0	correct_rejection	NA	0
40	Single	130	454	778	9	0	0	609283	692	0	correct_rejection	NA	0
40	Single	131	455	779	4	0	0	609992	691	0	correct_rejection	NA	0
40	Single	132	456	780	9	0	0	610700	692	0	correct_rejection	NA	0
40	Single	133	457	781	5	0	0	611409	691	0	correct_rejection	NA	0
40	Single	134	458	782	7	0	0	612117	692	0	correct_rejection	NA	0
40	Single	135	459	783	4	0	0	612826	692	0	correct_rejection	NA	0
40	Single	136	460	784	4	0	0	613534	692	0	correct_rejection	NA	0
40	Single	137	461	785	5	0	0	614243	692	0	correct_rejection	NA	0
40	Single	138	462	786	8	0	0	614952	691	0	correct_rejection	NA	0
40	Single	139	463	787	8	0	0	615660	692	0	correct_rejection	NA	0
40	Single	140	464	788	0	1	1	616369	691	1	hit	423	0
40	Single	141	465	789	9	0	0	617077	692	0	correct_rejection	NA	0
40	Single	142	466	790	7	0	0	617786	692	0	correct_rejection	NA	0
40	Single	143	467	791	8	0	0	618494	692	0	correct_rejection	NA	0
40	Single	144	468	792	4	0	0	619203	692	0	correct_rejection	NA	0
40	Single	145	469	793	8	0	0	619912	691	0	correct_rejection	NA	0
40	Single	146	470	794	6	0	0	620620	692	0	correct_rejection	NA	0
40	Single	147	471	795	9	0	0	621329	691	0	correct_rejection	NA	0
40	Single	148	472	796	8	0	0	622037	692	0	correct_rejection	NA	0
40	Single	149	473	797	0	1	1	622746	692	1	hit	365	0
40	Single	150	474	798	5	0	0	623454	692	0	correct_rejection	NA	0
40	Single	151	475	799	4	0	0	624163	692	0	correct_rejection	NA	0
40	Single	152	476	800	0	1	1	624872	691	1	hit	589	0
40	Single	153	477	801	7	0	0	625580	692	0	correct_rejection	NA	0
40	Single	154	478	802	5	0	0	626289	691	0	correct_rejection	NA	0
40	Single	155	479	803	0	1	1	626997	692	1	hit	418	0
40	Single	156	480	804	6	0	0	627706	692	0	correct_rejection	NA	0
40	Single	157	481	805	6	0	0	628414	692	0	correct_rejection	NA	0
40	Single	158	482	806	7	0	0	629123	692	0	correct_rejection	NA	0
40	Single	159	483	807	7	0	0	629832	691	0	correct_rejection	NA	0
40	Single	160	484	808	6	0	0	630540	692	0	correct_rejection	NA	0
40	Single	161	485	809	4	0	0	631249	691	0	correct_rejection	NA	0
40	Single	162	486	810	6	0	0	631957	692	0	correct_rejection	NA	0
trigger nr 624 at 634220
trigger nr 628 at 707771
40	Nonet	1	325	811	4	0	0	715343	692	0	correct_rejection	NA	7529
40	Nonet	2	326	812	5	0	0	716052	691	0	correct_rejection	NA	0
40	Nonet	3	327	813	6	0	0	716760	692	0	correct_rejection	NA	0
40	Nonet	4	328	814	4	0	0	717469	691	0	correct_rejection	NA	0
40	Nonet	5	329	815	5	0	0	718177	692	0	correct_rejection	NA	0
40	Nonet	6	330	816	6	0	0	718886	691	0	correct_rejection	NA	0
40	Nonet	7	331	817	0	1	2	719594	692	1	hit	407	0
40	Nonet	8	332	818	4	0	0	720303	692	0	correct_rejection	NA	0
40	Nonet	9	333	819	5	0	0	721011	692	0	correct_rejection	NA	0
40	Nonet	10	334	820	6	0	0	721720	692	0	correct_rejection	NA	0
40	Nonet	11	335	821	6	0	0	722429	691	0	correct_rejection	NA	0
40	Nonet	12	336	822	0	1	1	723137	692	1	hit	364	0
40	Nonet	13	337	823	5	0	0	723846	691	0	correct_rejection	NA	0
40	Nonet	14	338	824	4	0	0	724554	692	0	correct_rejection	NA	0
40	Nonet	15	339	825	6	0	0	725263	692	0	correct_rejection	NA	0
40	Nonet	16	340	826	5	0	0	725971	692	0	correct_rejection	NA	0
40	Nonet	17	341	827	4	0	0	726680	692	0	correct_rejection	NA	0
40	Nonet	18	342	828	6	0	0	727389	691	0	correct_rejection	NA	0
40	Nonet	19	343	829	5	0	0	728097	692	0	correct_rejection	NA	0
40	Nonet	20	344	830	4	0	0	728806	691	0	correct_rejection	NA	0
40	Nonet	21	345	831	4	0	0	729514	692	0	correct_rejection	NA	0
40	Nonet	22	346	832	5	0	0	730223	692	0	correct_rejection	NA	0
40	Nonet	23	347	833	6	0	0	730931	692	0	correct_rejection	NA	0
40	Nonet	24	348	834	4	0	0	731640	692	0	correct_rejection	NA	0
40	Nonet	25	349	835	0	1	1	732349	691	1	hit	309	0
40	Nonet	26	350	836	5	0	0	733057	692	0	correct_rejection	NA	0
40	Nonet	27	351	837	6	0	0	733766	691	0	correct_rejection	NA	0
40	Nonet	28	352	838	4	0	0	734474	692	0	correct_rejection	NA	0
40	Nonet	29	353	839	5	0	0	735183	692	0	correct_rejection	NA	0
40	Nonet	30	354	840	6	0	0	735891	692	0	correct_rejection	NA	0
40	Nonet	31	355	841	9	0	0	736600	692	0	correct_rejection	NA	0
40	Nonet	32	356	842	8	0	0	737309	691	0	correct_rejection	NA	0
40	Nonet	33	357	843	7	0	0	738017	692	0	correct_rejection	NA	0
40	Nonet	34	358	844	9	0	0	738726	691	0	correct_rejection	NA	0
40	Nonet	35	359	845	8	0	0	739434	692	0	correct_rejection	NA	0
40	Nonet	36	360	846	7	0	0	740143	691	0	correct_rejection	NA	0
40	Nonet	37	361	847	9	0	0	740851	692	0	correct_rejection	NA	0
40	Nonet	38	362	848	8	0	0	741560	692	0	correct_rejection	NA	0
40	Nonet	39	363	849	7	0	0	742268	692	0	correct_rejection	NA	0
40	Nonet	40	364	850	4	0	0	742977	692	0	correct_rejection	NA	0
40	Nonet	41	365	851	5	0	0	743686	691	0	correct_rejection	NA	0
40	Nonet	42	366	852	6	0	0	744394	692	0	correct_rejection	NA	0
40	Nonet	43	367	853	4	0	0	745103	691	0	correct_rejection	NA	0
40	Nonet	44	368	854	5	0	0	745811	692	0	correct_rejection	NA	0
40	Nonet	45	369	855	0	1	1	746520	692	1	hit	310	0
40	Nonet	46	370	856	6	0	0	747228	692	0	correct_rejection	NA	0
40	Nonet	47	371	857	4	0	0	747937	692	0	correct_rejection	NA	0
40	Nonet	48	372	858	5	0	0	748646	691	0	correct_rejection	NA	0
40	Nonet	49	373	859	6	0	0	749354	692	0	correct_rejection	NA	0
40	Nonet	50	374	860	7	0	0	750063	691	0	correct_rejection	NA	0
40	Nonet	51	375	861	0	1	1	750771	692	1	hit	406	0
40	Nonet	52	376	862	8	0	0	751480	692	0	correct_rejection	NA	0
40	Nonet	53	377	863	9	0	0	752188	692	0	correct_rejection	NA	0
40	Nonet	54	378	864	7	0	0	752897	692	0	correct_rejection	NA	0
40	Nonet	55	379	865	8	0	0	753606	691	0	correct_rejection	NA	0
40	Nonet	56	380	866	9	0	0	754314	692	0	correct_rejection	NA	0
40	Nonet	57	381	867	7	0	0	755023	691	0	correct_rejection	NA	0
40	Nonet	58	382	868	8	0	0	755731	692	0	correct_rejection	NA	0
40	Nonet	59	383	869	9	0	0	756440	691	0	correct_rejection	NA	0
40	Nonet	60	384	870	9	0	0	757148	692	0	correct_rejection	NA	0
40	Nonet	61	385	871	8	0	0	757857	692	0	correct_rejection	NA	0
40	Nonet	62	386	872	7	0	0	758566	691	0	correct_rejection	NA	0
40	Nonet	63	387	873	9	0	0	759274	692	0	correct_rejection	NA	0
40	Nonet	64	388	874	8	0	0	759983	691	0	correct_rejection	NA	0
40	Nonet	65	389	875	0	1	1	760691	692	1	hit	314	0
40	Nonet	66	390	876	7	0	0	761400	691	0	correct_rejection	NA	0
40	Nonet	67	391	877	9	0	0	762108	692	0	correct_rejection	NA	0
40	Nonet	68	392	878	8	0	0	762817	692	0	correct_rejection	NA	0
40	Nonet	69	393	879	7	0	0	763525	692	0	correct_rejection	NA	0
40	Nonet	70	394	880	0	1	3	764234	692	1	hit	518	0
40	Nonet	71	395	881	9	0	0	764943	691	0	correct_rejection	NA	0
40	Nonet	72	396	882	8	0	0	765651	692	0	correct_rejection	NA	0
40	Nonet	73	397	883	7	0	0	766360	691	0	correct_rejection	NA	0
40	Nonet	74	398	884	9	0	0	767068	692	0	correct_rejection	NA	0
40	Nonet	75	399	885	8	0	0	767777	692	0	correct_rejection	NA	0
40	Nonet	76	400	886	7	0	0	768485	692	0	correct_rejection	NA	0
40	Nonet	77	401	887	9	0	0	769194	692	0	correct_rejection	NA	0
40	Nonet	78	402	888	0	1	1	769903	691	1	hit	489	0
40	Nonet	79	403	889	8	0	0	770611	692	0	correct_rejection	NA	0
40	Nonet	80	404	890	7	0	0	771320	691	0	correct_rejection	NA	0
40	Nonet	81	405	891	6	0	0	772028	692	0	correct_rejection	NA	0
40	Nonet	82	406	892	5	0	0	772737	692	0	correct_rejection	NA	0
40	Nonet	83	407	893	4	0	0	773445	692	0	correct_rejection	NA	0
40	Nonet	84	408	894	0	1	2	774154	692	1	hit	364	0
40	Nonet	85	409	895	6	0	0	774863	691	0	correct_rejection	NA	0
40	Nonet	86	410	896	5	0	0	775571	692	0	correct_rejection	NA	0
40	Nonet	87	411	897	4	0	0	776280	691	0	correct_rejection	NA	0
40	Nonet	88	412	898	6	0	0	776988	692	0	correct_rejection	NA	0
40	Nonet	89	413	899	5	0	0	777697	691	0	correct_rejection	NA	0
40	Nonet	90	414	900	4	0	0	778405	692	0	correct_rejection	NA	0
40	Nonet	91	415	901	7	0	0	779114	692	0	correct_rejection	NA	0
40	Nonet	92	416	902	8	0	0	779822	692	0	correct_rejection	NA	0
40	Nonet	93	417	903	9	0	0	780531	692	0	correct_rejection	NA	0
40	Nonet	94	418	904	7	0	0	781240	691	0	correct_rejection	NA	0
40	Nonet	95	419	905	8	0	0	781948	692	0	correct_rejection	NA	0
40	Nonet	96	420	906	9	0	0	782657	691	0	correct_rejection	NA	0
40	Nonet	97	421	907	7	0	0	783365	692	0	correct_rejection	NA	0
40	Nonet	98	422	908	8	0	0	784074	692	0	correct_rejection	NA	0
40	Nonet	99	423	909	9	0	0	784782	692	0	correct_rejection	NA	0
40	Nonet	100	424	910	6	0	0	785491	692	0	correct_rejection	NA	0
40	Nonet	101	425	911	0	1	1	786200	691	1	hit	400	0
40	Nonet	102	426	912	5	0	0	786908	692	0	correct_rejection	NA	0
40	Nonet	103	427	913	4	0	0	787617	691	0	correct_rejection	NA	0
40	Nonet	104	428	914	6	0	0	788325	692	0	correct_rejection	NA	0
40	Nonet	105	429	915	5	0	0	789034	692	0	correct_rejection	NA	0
40	Nonet	106	430	916	4	0	0	789742	692	0	correct_rejection	NA	0
40	Nonet	107	431	917	6	0	0	790451	692	0	correct_rejection	NA	0
40	Nonet	108	432	918	5	0	0	791160	691	0	correct_rejection	NA	0
40	Nonet	109	433	919	4	0	0	791868	692	0	correct_rejection	NA	0
40	Nonet	110	434	920	0	1	3	792577	691	1	hit	384	0
40	Nonet	111	435	921	6	0	0	793285	692	0	correct_rejection	NA	0
40	Nonet	112	436	922	5	0	0	793994	692	0	correct_rejection	NA	0
40	Nonet	113	437	923	0	1	1	794702	692	1	hit	423	0
40	Nonet	114	438	924	4	0	0	795411	692	0	correct_rejection	NA	0
40	Nonet	115	439	925	6	0	0	796120	691	0	correct_rejection	NA	0
40	Nonet	116	440	926	5	0	0	796828	692	0	correct_rejection	NA	0
40	Nonet	117	441	927	4	0	0	797537	691	0	correct_rejection	NA	0
40	Nonet	118	442	928	6	0	0	798245	692	0	correct_rejection	NA	0
40	Nonet	119	443	929	5	0	0	798954	691	0	correct_rejection	NA	0
40	Nonet	120	444	930	4	0	0	799662	692	0	correct_rejection	NA	0
40	Nonet	121	445	931	9	0	0	800371	692	0	correct_rejection	NA	0
40	Nonet	122	446	932	8	0	0	801079	692	0	correct_rejection	NA	0
40	Nonet	123	447	933	0	1	1	801788	692	1	hit	542	0
40	Nonet	124	448	934	7	0	0	802497	691	0	correct_rejection	NA	0
40	Nonet	125	449	935	9	0	0	803205	692	0	correct_rejection	NA	0
40	Nonet	126	450	936	8	0	0	803914	691	0	correct_rejection	NA	0
40	Nonet	127	451	937	7	0	0	804622	692	0	correct_rejection	NA	0
40	Nonet	128	452	938	9	0	0	805331	692	0	correct_rejection	NA	0
40	Nonet	129	453	939	8	0	0	806039	692	0	correct_rejection	NA	0
40	Nonet	130	454	940	7	0	0	806748	692	0	correct_rejection	NA	0
40	Nonet	131	455	941	0	1	3	807457	691	1	hit	368	0
40	Nonet	132	456	942	7	0	0	808165	692	0	correct_rejection	NA	0
40	Nonet	133	457	943	8	0	0	808874	691	0	correct_rejection	NA	0
40	Nonet	134	458	944	9	0	0	809582	692	0	correct_rejection	NA	0
40	Nonet	135	459	945	7	0	0	810291	692	0	correct_rejection	NA	0
40	Nonet	136	460	946	8	0	0	810999	692	0	correct_rejection	NA	0
40	Nonet	137	461	947	0	1	1	811708	692	1	hit	473	0
40	Nonet	138	462	948	9	0	0	812417	691	0	correct_rejection	NA	0
40	Nonet	139	463	949	7	0	0	813125	692	0	correct_rejection	NA	0
40	Nonet	140	464	950	8	0	0	813834	691	0	correct_rejection	NA	0
40	Nonet	141	465	951	9	0	0	814542	692	0	correct_rejection	NA	0
40	Nonet	142	466	952	0	1	3	815251	692	1	hit	453	0
40	Nonet	143	467	953	7	0	0	815959	692	0	correct_rejection	NA	0
40	Nonet	144	468	954	8	0	0	816668	692	0	correct_rejection	NA	0
40	Nonet	145	469	955	9	0	0	817377	691	0	correct_rejection	NA	0
40	Nonet	146	470	956	7	0	0	818085	692	0	correct_rejection	NA	0
40	Nonet	147	471	957	8	0	0	818794	691	0	correct_rejection	NA	0
40	Nonet	148	472	958	9	0	0	819502	692	0	correct_rejection	NA	0
40	Nonet	149	473	959	7	0	0	820211	691	0	correct_rejection	NA	0
40	Nonet	150	474	960	8	0	0	820919	692	0	correct_rejection	NA	0
40	Nonet	151	475	961	9	0	0	821628	692	0	correct_rejection	NA	0
40	Nonet	152	476	962	4	0	0	822336	692	0	correct_rejection	NA	0
40	Nonet	153	477	963	5	0	0	823045	692	0	correct_rejection	NA	0
40	Nonet	154	478	964	0	1	1	823754	691	1	hit	369	0
40	Nonet	155	479	965	6	0	0	824462	692	0	correct_rejection	NA	0
40	Nonet	156	480	966	4	0	0	825171	691	0	correct_rejection	NA	0
40	Nonet	157	481	967	0	1	1	825879	692	1	hit	409	0
40	Nonet	158	482	968	5	0	0	826588	692	0	correct_rejection	NA	0
40	Nonet	159	483	969	6	0	0	827296	692	0	correct_rejection	NA	0
40	Nonet	160	484	970	4	0	0	828005	692	0	correct_rejection	NA	0
40	Nonet	161	485	971	5	0	0	828714	691	0	correct_rejection	NA	0
40	Nonet	162	486	972	6	0	0	829422	692	0	correct_rejection	NA	0
40	Triplet	1	487	973	6	0	0	839025	692	0	correct_rejection	NA	7218
40	Triplet	2	488	974	5	0	0	839734	692	0	correct_rejection	NA	0
40	Triplet	3	489	975	4	0	0	840442	692	0	correct_rejection	NA	0
40	Triplet	4	490	976	4	0	0	841151	692	0	correct_rejection	NA	0
40	Triplet	5	491	977	5	0	0	841860	691	0	correct_rejection	NA	0
40	Triplet	6	492	978	6	0	0	842568	692	0	correct_rejection	NA	0
40	Triplet	7	493	979	9	0	0	843277	691	0	correct_rejection	NA	0
40	Triplet	8	494	980	8	0	0	843985	692	0	correct_rejection	NA	0
40	Triplet	9	495	981	7	0	0	844694	692	0	correct_rejection	NA	0
40	Triplet	10	496	982	0	1	2	845402	692	1	hit	332	0
40	Triplet	11	497	983	4	0	0	846111	692	0	correct_rejection	NA	0
40	Triplet	12	498	984	5	0	0	846820	691	0	correct_rejection	NA	0
40	Triplet	13	499	985	0	1	1	847528	692	0	miss	NA	0
40	Triplet	14	500	986	6	0	0	848237	691	0	correct_rejection	NA	0
40	Triplet	15	501	987	6	0	0	848945	692	0	correct_rejection	NA	0
40	Triplet	16	502	988	5	0	0	849654	691	0	correct_rejection	NA	0
40	Triplet	17	503	989	0	1	1	850362	692	1	hit	338	0
40	Triplet	18	504	990	4	0	0	851071	692	0	correct_rejection	NA	0
40	Triplet	19	505	991	6	0	0	851779	692	0	correct_rejection	NA	0
40	Triplet	20	506	992	5	0	0	852488	692	0	correct_rejection	NA	0
40	Triplet	21	507	993	4	0	0	853197	691	0	correct_rejection	NA	0
40	Triplet	22	508	994	7	0	0	853905	692	0	correct_rejection	NA	0
40	Triplet	23	509	995	0	1	1	854614	691	1	hit	404	0
40	Triplet	24	510	996	8	0	0	855322	692	0	correct_rejection	NA	0
40	Triplet	25	511	997	9	0	0	856031	692	0	correct_rejection	NA	0
40	Triplet	26	512	998	6	0	0	856739	692	0	correct_rejection	NA	0
40	Triplet	27	513	999	0	1	1	857448	692	1	hit	287	0
40	Triplet	28	514	1000	5	0	0	858157	691	0	correct_rejection	NA	0
40	Triplet	29	515	1001	4	0	0	858865	692	0	correct_rejection	NA	0
40	Triplet	30	516	1002	9	0	0	859574	691	0	correct_rejection	NA	0
40	Triplet	31	517	1003	0	1	1	860282	692	1	hit	270	0
40	Triplet	32	518	1004	8	0	0	860991	692	0	correct_rejection	NA	0
40	Triplet	33	519	1005	7	0	0	861699	692	0	correct_rejection	NA	0
40	Triplet	34	520	1006	9	0	0	862408	692	0	correct_rejection	NA	0
40	Triplet	35	521	1007	8	0	0	863117	691	0	correct_rejection	NA	0
40	Triplet	36	522	1008	0	1	1	863825	692	1	hit	321	0
40	Triplet	37	523	1009	7	0	0	864534	691	0	correct_rejection	NA	0
40	Triplet	38	524	1010	7	0	0	865242	692	0	correct_rejection	NA	0
40	Triplet	39	525	1011	8	0	0	865951	691	0	correct_rejection	NA	0
40	Triplet	40	526	1012	9	0	0	866659	692	0	correct_rejection	NA	0
40	Triplet	41	527	1013	0	1	2	867368	692	1	hit	287	0
40	Triplet	42	528	1014	4	0	0	868077	691	0	correct_rejection	NA	0
40	Triplet	43	529	1015	5	0	0	868785	692	0	correct_rejection	NA	0
40	Triplet	44	530	1016	6	0	0	869494	691	0	correct_rejection	NA	0
40	Triplet	45	531	1017	4	0	0	870202	692	0	correct_rejection	NA	0
40	Triplet	46	532	1018	5	0	0	870911	691	0	correct_rejection	NA	0
40	Triplet	47	533	1019	6	0	0	871619	692	0	correct_rejection	NA	0
40	Triplet	48	534	1020	7	0	0	872328	692	0	correct_rejection	NA	0
40	Triplet	49	535	1021	8	0	0	873036	692	0	correct_rejection	NA	0
40	Triplet	50	536	1022	9	0	0	873745	692	0	correct_rejection	NA	0
40	Triplet	51	537	1023	7	0	0	874454	691	0	correct_rejection	NA	0
40	Triplet	52	538	1024	8	0	0	875162	692	0	correct_rejection	NA	0
40	Triplet	53	539	1025	0	1	1	875871	691	1	hit	396	0
40	Triplet	54	540	1026	9	0	0	876579	692	0	correct_rejection	NA	0
40	Triplet	55	541	1027	9	0	0	877288	692	0	correct_rejection	NA	0
40	Triplet	56	542	1028	8	0	0	877996	692	0	correct_rejection	NA	0
40	Triplet	57	543	1029	7	0	0	878705	692	0	correct_rejection	NA	0
40	Triplet	58	544	1030	4	0	0	879414	691	0	correct_rejection	NA	0
40	Triplet	59	545	1031	5	0	0	880122	692	0	correct_rejection	NA	0
40	Triplet	60	546	1032	0	1	1	880831	691	1	hit	389	0
40	Triplet	61	547	1033	6	0	0	881539	692	0	correct_rejection	NA	0
40	Triplet	62	548	1034	7	0	0	882248	692	0	correct_rejection	NA	0
40	Triplet	63	549	1035	8	0	0	882956	692	0	correct_rejection	NA	0
40	Triplet	64	550	1036	9	0	0	883665	692	0	correct_rejection	NA	0
40	Triplet	65	551	1037	6	0	0	884374	691	0	correct_rejection	NA	0
40	Triplet	66	552	1038	0	1	1	885082	692	1	hit	323	0
40	Triplet	67	553	1039	5	0	0	885791	691	0	correct_rejection	NA	0
40	Triplet	68	554	1040	4	0	0	886499	692	0	correct_rejection	NA	0
40	Triplet	69	555	1041	6	0	0	887208	691	0	correct_rejection	NA	0
40	Triplet	70	556	1042	5	0	0	887916	692	0	correct_rejection	NA	0
40	Triplet	71	557	1043	4	0	0	888625	692	0	correct_rejection	NA	0
40	Triplet	72	558	1044	4	0	0	889333	692	0	correct_rejection	NA	0
40	Triplet	73	559	1045	5	0	0	890042	692	0	correct_rejection	NA	0
40	Triplet	74	560	1046	6	0	0	890751	691	0	correct_rejection	NA	0
40	Triplet	75	561	1047	4	0	0	891459	692	0	correct_rejection	NA	0
40	Triplet	76	562	1048	5	0	0	892168	691	0	correct_rejection	NA	0
40	Triplet	77	563	1049	6	0	0	892876	692	0	correct_rejection	NA	0
40	Triplet	78	564	1050	0	1	2	893585	692	1	hit	356	0
40	Triplet	79	565	1051	6	0	0	894293	692	0	correct_rejection	NA	0
40	Triplet	80	566	1052	5	0	0	895002	692	0	correct_rejection	NA	0
40	Triplet	81	567	1053	4	0	0	895711	691	0	correct_rejection	NA	0
40	Triplet	82	568	1054	7	0	0	896419	692	0	correct_rejection	NA	0
40	Triplet	83	569	1055	0	1	1	897128	691	1	hit	379	0
40	Triplet	84	570	1056	8	0	0	897836	692	0	correct_rejection	NA	0
40	Triplet	85	571	1057	9	0	0	898545	692	0	correct_rejection	NA	0
40	Triplet	86	572	1058	0	1	2	899253	692	1	hit	582	0
40	Triplet	87	573	1059	9	0	0	899962	692	0	correct_rejection	NA	0
40	Triplet	88	574	1060	8	0	0	900671	691	0	correct_rejection	NA	0
40	Triplet	89	575	1061	0	1	1	901379	692	1	hit	379	0
40	Triplet	90	576	1062	7	0	0	902088	691	0	correct_rejection	NA	0
40	Triplet	91	577	1063	4	0	0	902796	692	0	correct_rejection	NA	0
40	Triplet	92	578	1064	5	0	0	903505	692	0	correct_rejection	NA	0
40	Triplet	93	579	1065	6	0	0	904213	692	0	correct_rejection	NA	0
40	Triplet	94	580	1066	9	0	0	904922	692	1	false_alarm	265	0
40	Triplet	95	581	1067	8	0	0	905631	691	0	correct_rejection	NA	0
40	Triplet	96	582	1068	7	0	0	906339	692	0	correct_rejection	NA	0
40	Triplet	97	583	1069	9	0	0	907048	691	0	correct_rejection	NA	0
40	Triplet	98	584	1070	8	0	0	907756	692	0	correct_rejection	NA	0
40	Triplet	99	585	1071	0	1	1	908465	691	1	hit	386	0
40	Triplet	100	586	1072	7	0	0	909173	692	0	correct_rejection	NA	0
40	Triplet	101	587	1073	6	0	0	909882	692	0	correct_rejection	NA	0
40	Triplet	102	588	1074	5	0	0	910590	692	0	correct_rejection	NA	0
40	Triplet	103	589	1075	4	0	0	911299	692	0	correct_rejection	NA	0
40	Triplet	104	590	1076	9	0	0	912008	691	0	correct_rejection	NA	0
40	Triplet	105	591	1077	8	0	0	912716	692	0	correct_rejection	NA	0
40	Triplet	106	592	1078	7	0	0	913425	691	0	correct_rejection	NA	0
40	Triplet	107	593	1079	7	0	0	914133	692	0	correct_rejection	NA	0
40	Triplet	108	594	1080	8	0	0	914842	692	0	correct_rejection	NA	0
40	Triplet	109	595	1081	9	0	0	915550	692	0	correct_rejection	NA	0
40	Triplet	110	596	1082	7	0	0	916259	692	0	correct_rejection	NA	0
40	Triplet	111	597	1083	8	0	0	916968	691	0	correct_rejection	NA	0
40	Triplet	112	598	1084	9	0	0	917676	692	0	correct_rejection	NA	0
40	Triplet	113	599	1085	6	0	0	918385	691	0	correct_rejection	NA	0
40	Triplet	114	600	1086	5	0	0	919093	692	0	correct_rejection	NA	0
40	Triplet	115	601	1087	4	0	0	919802	692	0	correct_rejection	NA	0
40	Triplet	116	602	1088	0	1	2	920510	692	1	hit	500	0
40	Triplet	117	603	1089	9	0	0	921219	692	0	correct_rejection	NA	0
40	Triplet	118	604	1090	8	0	0	921928	691	0	correct_rejection	NA	0
40	Triplet	119	605	1091	7	0	0	922636	692	0	correct_rejection	NA	0
40	Triplet	120	606	1092	6	0	0	923345	691	0	correct_rejection	NA	0
40	Triplet	121	607	1093	5	0	0	924053	692	0	correct_rejection	NA	0
40	Triplet	122	608	1094	4	0	0	924762	692	0	correct_rejection	NA	0
40	Triplet	123	609	1095	7	0	0	925470	692	0	correct_rejection	NA	0
40	Triplet	124	610	1096	8	0	0	926179	692	0	correct_rejection	NA	0
40	Triplet	125	611	1097	9	0	0	926888	691	0	correct_rejection	NA	0
40	Triplet	126	612	1098	7	0	0	927596	692	0	correct_rejection	NA	0
40	Triplet	127	613	1099	8	0	0	928305	691	0	correct_rejection	NA	0
40	Triplet	128	614	1100	9	0	0	929013	692	0	correct_rejection	NA	0
40	Triplet	129	615	1101	4	0	0	929722	691	0	correct_rejection	NA	0
40	Triplet	130	616	1102	5	0	0	930430	692	0	correct_rejection	NA	0
40	Triplet	131	617	1103	6	0	0	931139	692	0	correct_rejection	NA	0
40	Triplet	132	618	1104	6	0	0	931847	692	0	correct_rejection	NA	0
40	Triplet	133	619	1105	5	0	0	932556	692	0	correct_rejection	NA	0
40	Triplet	134	620	1106	4	0	0	933265	691	0	correct_rejection	NA	0
40	Triplet	135	621	1107	4	0	0	933973	692	0	correct_rejection	NA	0
40	Triplet	136	622	1108	5	0	0	934682	691	0	correct_rejection	NA	0
40	Triplet	137	623	1109	6	0	0	935390	692	0	correct_rejection	NA	0
40	Triplet	138	624	1110	7	0	0	936099	692	0	correct_rejection	NA	0
40	Triplet	139	625	1111	8	0	0	936807	692	0	correct_rejection	NA	0
40	Triplet	140	626	1112	9	0	0	937516	692	0	correct_rejection	NA	0
40	Triplet	141	627	1113	9	0	0	938225	691	0	correct_rejection	NA	0
40	Triplet	142	628	1114	8	0	0	938933	692	0	correct_rejection	NA	0
40	Triplet	143	629	1115	7	0	0	939642	691	0	correct_rejection	NA	0
40	Triplet	144	630	1116	0	1	2	940350	692	1	hit	391	0
40	Triplet	145	631	1117	9	0	0	941059	692	0	correct_rejection	NA	0
40	Triplet	146	632	1118	8	0	0	941767	692	0	correct_rejection	NA	0
40	Triplet	147	633	1119	7	0	0	942476	692	0	correct_rejection	NA	0
40	Triplet	148	634	1120	4	0	0	943185	691	0	correct_rejection	NA	0
40	Triplet	149	635	1121	5	0	0	943893	692	0	correct_rejection	NA	0
40	Triplet	150	636	1122	6	0	0	944602	691	0	correct_rejection	NA	0
40	Triplet	151	637	1123	4	0	0	945310	692	0	correct_rejection	NA	0
40	Triplet	152	638	1124	5	0	0	946019	691	0	correct_rejection	NA	0
40	Triplet	153	639	1125	6	0	0	946727	692	0	correct_rejection	NA	0
40	Triplet	154	640	1126	9	0	0	947436	692	0	correct_rejection	NA	0
40	Triplet	155	641	1127	8	0	0	948144	692	0	correct_rejection	NA	0
40	Triplet	156	642	1128	7	0	0	948853	692	0	correct_rejection	NA	0
40	Triplet	157	643	1129	7	0	0	949562	691	0	correct_rejection	NA	0
40	Triplet	158	644	1130	8	0	0	950270	692	0	correct_rejection	NA	0
40	Triplet	159	645	1131	9	0	0	950979	691	0	correct_rejection	NA	0
40	Triplet	160	646	1132	6	0	0	951687	692	0	correct_rejection	NA	0
40	Triplet	161	647	1133	5	0	0	952396	692	0	correct_rejection	NA	0
40	Triplet	162	648	1134	4	0	0	953104	692	0	correct_rejection	NA	0
40	Single	1	163	1135	8	0	0	962799	692	0	correct_rejection	NA	6998
40	Single	2	164	1136	6	0	0	963508	692	0	correct_rejection	NA	0
40	Single	3	165	1137	7	0	0	964216	692	0	correct_rejection	NA	0
40	Single	4	166	1138	5	0	0	964925	692	0	correct_rejection	NA	0
40	Single	5	167	1139	0	1	1	965634	691	1	hit	457	0
40	Single	6	168	1140	5	0	0	966342	692	0	correct_rejection	NA	0
40	Single	7	169	1141	7	0	0	967051	691	0	correct_rejection	NA	0
40	Single	8	170	1142	6	0	0	967759	692	0	correct_rejection	NA	0
40	Single	9	171	1143	0	1	1	968468	692	1	hit	387	0
40	Single	10	172	1144	8	0	0	969176	692	0	correct_rejection	NA	0
40	Single	11	173	1145	7	0	0	969885	692	0	correct_rejection	NA	0
40	Single	12	174	1146	7	0	0	970594	691	0	correct_rejection	NA	0
40	Single	13	175	1147	8	0	0	971302	692	0	correct_rejection	NA	0
40	Single	14	176	1148	8	0	0	972011	691	0	correct_rejection	NA	0
40	Single	15	177	1149	4	0	0	972719	692	0	correct_rejection	NA	0
40	Single	16	178	1150	7	0	0	973428	691	0	correct_rejection	NA	0
40	Single	17	179	1151	0	1	1	974136	692	1	hit	356	0
40	Single	18	180	1152	9	0	0	974845	692	0	correct_rejection	NA	0
40	Single	19	181	1153	6	0	0	975553	692	0	correct_rejection	NA	0
40	Single	20	182	1154	5	0	0	976262	692	0	correct_rejection	NA	0
40	Single	21	183	1155	9	0	0	976971	691	0	correct_rejection	NA	0
40	Single	22	184	1156	7	0	0	977679	692	0	correct_rejection	NA	0
40	Single	23	185	1157	4	0	0	978388	691	0	correct_rejection	NA	0
40	Single	24	186	1158	4	0	0	979096	692	0	correct_rejection	NA	0
40	Single	25	187	1159	0	1	1	979805	692	1	hit	548	0
40	Single	26	188	1160	6	0	0	980513	692	0	correct_rejection	NA	0
40	Single	27	189	1161	9	0	0	981222	692	0	correct_rejection	NA	0
40	Single	28	190	1162	9	0	0	981931	691	0	correct_rejection	NA	0
40	Single	29	191	1163	5	0	0	982639	692	0	correct_rejection	NA	0
40	Single	30	192	1164	6	0	0	983348	691	0	correct_rejection	NA	0
40	Single	31	193	1165	6	0	0	984056	692	0	correct_rejection	NA	0
40	Single	32	194	1166	0	1	1	984765	692	1	hit	348	0
40	Single	33	195	1167	4	0	0	985473	692	0	correct_rejection	NA	0
40	Single	34	196	1168	8	0	0	986182	692	0	correct_rejection	NA	0
40	Single	35	197	1169	5	0	0	986891	691	0	correct_rejection	NA	0
40	Single	36	198	1170	4	0	0	987599	692	0	correct_rejection	NA	0
40	Single	37	199	1171	9	0	0	988308	691	0	correct_rejection	NA	0
40	Single	38	200	1172	4	0	0	989016	692	0	correct_rejection	NA	0
40	Single	39	201	1173	5	0	0	989725	692	0	correct_rejection	NA	0
40	Single	40	202	1174	8	0	0	990433	692	0	correct_rejection	NA	0
40	Single	41	203	1175	9	0	0	991142	692	0	correct_rejection	NA	0
40	Single	42	204	1176	9	0	0	991851	691	0	correct_rejection	NA	0
40	Single	43	205	1177	7	0	0	992559	692	0	correct_rejection	NA	0
40	Single	44	206	1178	6	0	0	993268	691	0	correct_rejection	NA	0
40	Single	45	207	1179	9	0	0	993976	692	0	correct_rejection	NA	0
40	Single	46	208	1180	6	0	0	994685	691	0	correct_rejection	NA	0
40	Single	47	209	1181	8	0	0	995393	692	0	correct_rejection	NA	0
40	Single	48	210	1182	0	1	1	996102	692	1	hit	444	0
40	Single	49	211	1183	4	0	0	996810	692	0	correct_rejection	NA	0
40	Single	50	212	1184	8	0	0	997519	692	0	correct_rejection	NA	0
40	Single	51	213	1185	8	0	0	998228	691	0	correct_rejection	NA	0
40	Single	52	214	1186	0	1	1	998936	692	1	hit	443	0
40	Single	53	215	1187	5	0	0	999645	691	0	correct_rejection	NA	0
40	Single	54	216	1188	7	0	0	1000353	692	0	correct_rejection	NA	0
40	Single	55	217	1189	7	0	0	1001062	692	0	correct_rejection	NA	0
40	Single	56	218	1190	5	0	0	1001770	692	0	correct_rejection	NA	0
40	Single	57	219	1191	6	0	0	1002479	692	0	correct_rejection	NA	0
40	Single	58	220	1192	4	0	0	1003188	691	0	correct_rejection	NA	0
40	Single	59	221	1193	7	0	0	1003896	692	0	correct_rejection	NA	0
40	Single	60	222	1194	0	1	1	1004605	691	0	miss	NA	0
40	Single	61	223	1195	4	0	0	1005313	692	0	correct_rejection	NA	0
40	Single	62	224	1196	6	0	0	1006022	692	0	correct_rejection	NA	0
40	Single	63	225	1197	5	0	0	1006730	692	0	correct_rejection	NA	0
40	Single	64	226	1198	5	0	0	1007439	692	0	correct_rejection	NA	0
40	Single	65	227	1199	8	0	0	1008148	691	0	correct_rejection	NA	0
40	Single	66	228	1200	0	1	1	1008856	692	1	hit	360	0
40	Single	67	229	1201	7	0	0	1009565	691	0	correct_rejection	NA	0
40	Single	68	230	1202	8	0	0	1010273	692	0	correct_rejection	NA	0
40	Single	69	231	1203	9	0	0	1010982	692	0	correct_rejection	NA	0
40	Single	70	232	1204	0	1	1	1011690	692	1	hit	601	0
40	Single	71	233	1205	4	0	0	1012399	692	0	correct_rejection	NA	0
40	Single	72	234	1206	9	0	0	1013108	691	0	correct_rejection	NA	0
40	Single	73	235	1207	5	0	0	1013816	692	0	correct_rejection	NA	0
40	Single	74	236	1208	4	0	0	1014525	691	0	correct_rejection	NA	0
40	Single	75	237	1209	4	0	0	1015233	692	0	correct_rejection	NA	0
40	Single	76	238	1210	5	0	0	1015942	691	0	correct_rejection	NA	0
40	Single	77	239	1211	0	1	1	1016650	692	1	hit	417	0
40	Single	78	240	1212	9	0	0	1017359	692	0	correct_rejection	NA	0
40	Single	79	241	1213	9	0	0	1018067	692	0	correct_rejection	NA	0
40	Single	80	242	1214	8	0	0	1018776	692	0	correct_rejection	NA	0
40	Single	81	243	1215	6	0	0	1019485	691	0	correct_rejection	NA	0
40	Single	82	244	1216	6	0	0	1020193	692	0	correct_rejection	NA	0
40	Single	83	245	1217	7	0	0	1020902	691	0	correct_rejection	NA	0
40	Single	84	246	1218	7	0	0	1021610	692	0	correct_rejection	NA	0
40	Single	85	247	1219	5	0	0	1022319	692	0	correct_rejection	NA	0
40	Single	86	248	1220	7	0	0	1023027	692	0	correct_rejection	NA	0
40	Single	87	249	1221	9	0	0	1023736	692	0	correct_rejection	NA	0
40	Single	88	250	1222	9	0	0	1024445	691	0	correct_rejection	NA	0
40	Single	89	251	1223	7	0	0	1025153	692	0	correct_rejection	NA	0
40	Single	90	252	1224	7	0	0	1025862	691	0	correct_rejection	NA	0
40	Single	91	253	1225	4	0	0	1026570	692	0	correct_rejection	NA	0
40	Single	92	254	1226	8	0	0	1027279	692	0	correct_rejection	NA	0
40	Single	93	255	1227	7	0	0	1027987	692	0	correct_rejection	NA	0
40	Single	94	256	1228	6	0	0	1028696	692	0	correct_rejection	NA	0
40	Single	95	257	1229	5	0	0	1029405	691	0	correct_rejection	NA	0
40	Single	96	258	1230	6	0	0	1030113	692	0	correct_rejection	NA	0
40	Single	97	259	1231	7	0	0	1030822	691	0	correct_rejection	NA	0
40	Single	98	260	1232	8	0	0	1031530	692	0	correct_rejection	NA	0
40	Single	99	261	1233	5	0	0	1032239	691	0	correct_rejection	NA	0
40	Single	100	262	1234	9	0	0	1032947	692	0	correct_rejection	NA	0
40	Single	101	263	1235	4	0	0	1033656	692	0	correct_rejection	NA	0
40	Single	102	264	1236	4	0	0	1034364	692	0	correct_rejection	NA	0
40	Single	103	265	1237	9	0	0	1035073	692	0	correct_rejection	NA	0
40	Single	104	266	1238	0	1	1	1035782	691	1	hit	370	0
40	Single	105	267	1239	8	0	0	1036490	692	0	correct_rejection	NA	0
40	Single	106	268	1240	9	0	0	1037199	691	0	correct_rejection	NA	0
40	Single	107	269	1241	6	0	0	1037907	692	0	correct_rejection	NA	0
40	Single	108	270	1242	9	0	0	1038616	692	0	correct_rejection	NA	0
40	Single	109	271	1243	0	1	1	1039324	692	1	hit	425	0
40	Single	110	272	1244	5	0	0	1040033	692	0	correct_rejection	NA	0
40	Single	111	273	1245	8	0	0	1040742	691	0	correct_rejection	NA	0
40	Single	112	274	1246	4	0	0	1041450	692	0	correct_rejection	NA	0
40	Single	113	275	1247	5	0	0	1042159	691	0	correct_rejection	NA	0
40	Single	114	276	1248	5	0	0	1042867	692	0	correct_rejection	NA	0
40	Single	115	277	1249	4	0	0	1043576	692	0	correct_rejection	NA	0
40	Single	116	278	1250	6	0	0	1044284	692	0	correct_rejection	NA	0
40	Single	117	279	1251	6	0	0	1044993	692	0	correct_rejection	NA	0
40	Single	118	280	1252	8	0	0	1045702	691	0	correct_rejection	NA	0
40	Single	119	281	1253	8	0	0	1046410	692	0	correct_rejection	NA	0
40	Single	120	282	1254	6	0	0	1047119	691	0	correct_rejection	NA	0
40	Single	121	283	1255	4	0	0	1047827	692	0	correct_rejection	NA	0
40	Single	122	284	1256	8	0	0	1048536	692	0	correct_rejection	NA	0
40	Single	123	285	1257	4	0	0	1049244	692	0	correct_rejection	NA	0
40	Single	124	286	1258	6	0	0	1049953	692	0	correct_rejection	NA	0
40	Single	125	287	1259	0	1	1	1050662	691	1	hit	439	0
40	Single	126	288	1260	9	0	0	1051370	692	0	correct_rejection	NA	0
40	Single	127	289	1261	8	0	0	1052079	691	0	correct_rejection	NA	0
40	Single	128	290	1262	8	0	0	1052787	692	0	correct_rejection	NA	0
40	Single	129	291	1263	0	1	1	1053496	691	1	hit	626	0
40	Single	130	292	1264	9	0	0	1054204	692	0	correct_rejection	NA	0
40	Single	131	293	1265	5	0	0	1054913	692	0	correct_rejection	NA	0
40	Single	132	294	1266	9	0	0	1055621	692	0	correct_rejection	NA	0
40	Single	133	295	1267	7	0	0	1056330	692	0	correct_rejection	NA	0
40	Single	134	296	1268	5	0	0	1057039	691	0	correct_rejection	NA	0
40	Single	135	297	1269	8	0	0	1057747	692	0	correct_rejection	NA	0
40	Single	136	298	1270	5	0	0	1058456	691	0	correct_rejection	NA	0
40	Single	137	299	1271	5	0	0	1059164	692	0	correct_rejection	NA	0
40	Single	138	300	1272	6	0	0	1059873	692	0	correct_rejection	NA	0
40	Single	139	301	1273	8	0	0	1060581	692	0	correct_rejection	NA	0
40	Single	140	302	1274	0	1	1	1061290	692	0	miss	NA	0
40	Single	141	303	1275	6	0	0	1061999	691	0	correct_rejection	NA	0
40	Single	142	304	1276	7	0	0	1062707	692	0	correct_rejection	NA	0
40	Single	143	305	1277	9	0	0	1063416	691	0	correct_rejection	NA	0
40	Single	144	306	1278	6	0	0	1064124	692	0	correct_rejection	NA	0
40	Single	145	307	1279	0	1	1	1064833	692	1	hit	470	0
40	Single	146	308	1280	5	0	0	1065541	692	0	correct_rejection	NA	0
40	Single	147	309	1281	4	0	0	1066250	692	0	correct_rejection	NA	0
40	Single	148	310	1282	0	1	1	1066959	691	1	hit	445	0
40	Single	149	311	1283	5	0	0	1067667	692	0	correct_rejection	NA	0
40	Single	150	312	1284	7	0	0	1068376	691	0	correct_rejection	NA	0
40	Single	151	313	1285	8	0	0	1069084	692	0	correct_rejection	NA	0
40	Single	152	314	1286	7	0	0	1069793	692	0	correct_rejection	NA	0
40	Single	153	315	1287	4	0	0	1070501	692	0	correct_rejection	NA	0
40	Single	154	316	1288	4	0	0	1071210	692	0	correct_rejection	NA	0
40	Single	155	317	1289	7	0	0	1071919	691	0	correct_rejection	NA	0
40	Single	156	318	1290	7	0	0	1072627	692	0	correct_rejection	NA	0
40	Single	157	319	1291	6	0	0	1073336	691	0	correct_rejection	NA	0
40	Single	158	320	1292	6	0	0	1074044	692	0	correct_rejection	NA	0
40	Single	159	321	1293	4	0	0	1074753	691	0	correct_rejection	NA	0
40	Single	160	322	1294	9	0	0	1075461	692	0	correct_rejection	NA	0
40	Single	161	323	1295	9	0	0	1076170	692	0	correct_rejection	NA	0
40	Single	162	324	1296	4	0	0	1076878	692	0	correct_rejection	NA	0
40	Correct	1	163	1297	4	0	0	1085290	691	0	correct_rejection	NA	6489
40	Correct	2	164	1298	5	0	0	1085998	692	0	correct_rejection	NA	0
40	Correct	3	165	1299	6	0	0	1086707	691	0	correct_rejection	NA	0
40	Correct	4	166	1300	4	0	0	1087415	692	0	correct_rejection	NA	0
40	Correct	5	167	1301	5	0	0	1088124	692	0	correct_rejection	NA	0
40	Correct	6	168	1302	6	0	0	1088832	692	0	correct_rejection	NA	0
40	Correct	7	169	1303	4	0	0	1089541	692	0	correct_rejection	NA	0
40	Correct	8	170	1304	0	1	1	1090250	691	1	hit	323	0
40	Correct	9	171	1305	5	0	0	1090958	692	0	correct_rejection	NA	0
40	Correct	10	172	1306	6	0	0	1091667	691	0	correct_rejection	NA	0
40	Correct	11	173	1307	6	0	0	1092375	692	0	correct_rejection	NA	0
40	Correct	12	174	1308	5	0	0	1093084	691	0	correct_rejection	NA	0
40	Correct	13	175	1309	4	0	0	1093792	692	0	correct_rejection	NA	0
40	Correct	14	176	1310	0	1	2	1094501	692	1	hit	471	0
40	Correct	15	177	1311	6	0	0	1095209	692	0	correct_rejection	NA	0
40	Correct	16	178	1312	5	0	0	1095918	692	0	correct_rejection	NA	0
40	Correct	17	179	1313	4	0	0	1096627	691	0	correct_rejection	NA	0
40	Correct	18	180	1314	6	0	0	1097335	692	0	correct_rejection	NA	0
40	Correct	19	181	1315	5	0	0	1098044	691	0	correct_rejection	NA	0
40	Correct	20	182	1316	4	0	0	1098752	692	0	correct_rejection	NA	0
40	Correct	21	183	1317	0	1	3	1099461	692	1	hit	353	0
40	Correct	22	184	1318	9	0	0	1100169	692	0	correct_rejection	NA	0
40	Correct	23	185	1319	8	0	0	1100878	692	0	correct_rejection	NA	0
40	Correct	24	186	1320	7	0	0	1101587	691	0	correct_rejection	NA	0
40	Correct	25	187	1321	0	1	2	1102295	692	1	hit	559	0
40	Correct	26	188	1322	9	0	0	1103004	691	0	correct_rejection	NA	0
40	Correct	27	189	1323	8	0	0	1103712	692	0	correct_rejection	NA	0
40	Correct	28	190	1324	0	1	1	1104421	692	1	hit	389	0
40	Correct	29	191	1325	7	0	0	1105129	692	0	correct_rejection	NA	0
40	Correct	30	192	1326	9	0	0	1105838	692	0	correct_rejection	NA	0
40	Correct	31	193	1327	8	0	0	1106547	691	0	correct_rejection	NA	0
40	Correct	32	194	1328	7	0	0	1107255	692	0	correct_rejection	NA	0
40	Correct	33	195	1329	0	1	3	1107964	691	1	hit	357	0
40	Correct	34	196	1330	7	0	0	1108672	692	0	correct_rejection	NA	0
40	Correct	35	197	1331	8	0	0	1109381	692	0	correct_rejection	NA	0
40	Correct	36	198	1332	9	0	0	1110089	692	1	false_alarm	435	0
40	Correct	37	199	1333	7	0	0	1110798	692	0	correct_rejection	NA	0
40	Correct	38	200	1334	8	0	0	1111507	691	0	correct_rejection	NA	0
40	Correct	39	201	1335	9	0	0	1112215	692	0	correct_rejection	NA	0
40	Correct	40	202	1336	7	0	0	1112924	691	0	correct_rejection	NA	0
40	Correct	41	203	1337	8	0	0	1113632	692	0	correct_rejection	NA	0
40	Correct	42	204	1338	9	0	0	1114341	691	0	correct_rejection	NA	0
40	Correct	43	205	1339	4	0	0	1115049	692	0	correct_rejection	NA	0
40	Correct	44	206	1340	5	0	0	1115758	692	0	correct_rejection	NA	0
40	Correct	45	207	1341	6	0	0	1116466	692	0	correct_rejection	NA	0
40	Correct	46	208	1342	4	0	0	1117175	692	0	correct_rejection	NA	0
40	Correct	47	209	1343	5	0	0	1117884	691	0	correct_rejection	NA	0
40	Correct	48	210	1344	6	0	0	1118592	692	0	correct_rejection	NA	0
40	Correct	49	211	1345	4	0	0	1119301	691	0	correct_rejection	NA	0
40	Correct	50	212	1346	5	0	0	1120009	692	0	correct_rejection	NA	0
40	Correct	51	213	1347	6	0	0	1120718	692	0	correct_rejection	NA	0
40	Correct	52	214	1348	6	0	0	1121426	692	0	correct_rejection	NA	0
40	Correct	53	215	1349	5	0	0	1122135	692	0	correct_rejection	NA	0
40	Correct	54	216	1350	4	0	0	1122844	691	0	correct_rejection	NA	0
40	Correct	55	217	1351	6	0	0	1123552	692	0	correct_rejection	NA	0
40	Correct	56	218	1352	5	0	0	1124261	691	0	correct_rejection	NA	0
40	Correct	57	219	1353	4	0	0	1124969	692	0	correct_rejection	NA	0
40	Correct	58	220	1354	6	0	0	1125678	692	0	correct_rejection	NA	0
40	Correct	59	221	1355	5	0	0	1126386	692	0	correct_rejection	NA	0
40	Correct	60	222	1356	0	1	1	1127095	692	1	hit	461	0
40	Correct	61	223	1357	4	0	0	1127804	691	0	correct_rejection	NA	0
40	Correct	62	224	1358	9	0	0	1128512	692	0	correct_rejection	NA	0
40	Correct	63	225	1359	0	1	1	1129221	691	1	hit	609	0
40	Correct	64	226	1360	8	0	0	1129929	692	0	correct_rejection	NA	0
40	Correct	65	227	1361	7	0	0	1130638	692	0	correct_rejection	NA	0
40	Correct	66	228	1362	9	0	0	1131346	692	0	correct_rejection	NA	0
40	Correct	67	229	1363	8	0	0	1132055	692	0	correct_rejection	NA	0
40	Correct	68	230	1364	7	0	0	1132764	691	0	correct_rejection	NA	0
40	Correct	69	231	1365	9	0	0	1133472	692	0	correct_rejection	NA	0
40	Correct	70	232	1366	8	0	0	1134181	691	0	correct_rejection	NA	0
40	Correct	71	233	1367	7	0	0	1134889	692	0	correct_rejection	NA	0
40	Correct	72	234	1368	7	0	0	1135598	691	0	correct_rejection	NA	0
40	Correct	73	235	1369	8	0	0	1136306	692	0	correct_rejection	NA	0
40	Correct	74	236	1370	0	1	1	1137015	692	0	miss	NA	0
40	Correct	75	237	1371	9	0	0	1137723	692	0	correct_rejection	NA	0
40	Correct	76	238	1372	7	0	0	1138432	692	0	correct_rejection	NA	0
40	Correct	77	239	1373	0	1	1	1139141	691	1	hit	386	0
40	Correct	78	240	1374	8	0	0	1139849	692	0	correct_rejection	NA	0
40	Correct	79	241	1375	9	0	0	1140558	691	0	correct_rejection	NA	0
40	Correct	80	242	1376	7	0	0	1141266	692	0	correct_rejection	NA	0
40	Correct	81	243	1377	0	1	1	1141975	692	1	hit	565	0
40	Correct	82	244	1378	8	0	0	1142683	692	0	correct_rejection	NA	0
40	Correct	83	245	1379	9	0	0	1143392	692	0	correct_rejection	NA	0
40	Correct	84	246	1380	4	0	0	1144101	691	0	correct_rejection	NA	0
40	Correct	85	247	1381	5	0	0	1144809	692	0	correct_rejection	NA	0
40	Correct	86	248	1382	6	0	0	1145518	691	0	correct_rejection	NA	0
40	Correct	87	249	1383	0	1	2	1146226	692	0	miss	NA	0
40	Correct	88	250	1384	4	0	0	1146935	692	0	correct_rejection	NA	0
40	Correct	89	251	1385	5	0	0	1147643	692	0	correct_rejection	NA	0
40	Correct	90	252	1386	6	0	0	1148352	692	0	correct_rejection	NA	0
40	Correct	91	253	1387	4	0	0	1149061	691	0	correct_rejection	NA	0
40	Correct	92	254	1388	5	0	0	1149769	692	0	correct_rejection	NA	0
40	Correct	93	255	1389	6	0	0	1150478	691	0	correct_rejection	NA	0
40	Correct	94	256	1390	6	0	0	1151186	692	0	correct_rejection	NA	0
40	Correct	95	257	1391	0	1	1	1151895	691	1	hit	463	0
40	Correct	96	258	1392	5	0	0	1152603	692	0	correct_rejection	NA	0
40	Correct	97	259	1393	4	0	0	1153312	692	0	correct_rejection	NA	0
40	Correct	98	260	1394	6	0	0	1154020	692	0	correct_rejection	NA	0
40	Correct	99	261	1395	5	0	0	1154729	692	0	correct_rejection	NA	0
40	Correct	100	262	1396	4	0	0	1155438	691	0	correct_rejection	NA	0
40	Correct	101	263	1397	6	0	0	1156146	692	0	correct_rejection	NA	0
40	Correct	102	264	1398	5	0	0	1156855	691	0	correct_rejection	NA	0
40	Correct	103	265	1399	4	0	0	1157563	692	0	correct_rejection	NA	0
40	Correct	104	266	1400	9	0	0	1158272	692	0	correct_rejection	NA	0
40	Correct	105	267	1401	8	0	0	1158980	692	0	correct_rejection	NA	0
40	Correct	106	268	1402	7	0	0	1159689	692	0	correct_rejection	NA	0
40	Correct	107	269	1403	9	0	0	1160398	691	0	correct_rejection	NA	0
40	Correct	108	270	1404	8	0	0	1161106	692	0	correct_rejection	NA	0
40	Correct	109	271	1405	7	0	0	1161815	691	0	correct_rejection	NA	0
40	Correct	110	272	1406	9	0	0	1162523	692	0	correct_rejection	NA	0
40	Correct	111	273	1407	8	0	0	1163232	692	0	correct_rejection	NA	0
40	Correct	112	274	1408	7	0	0	1163940	692	0	correct_rejection	NA	0
40	Correct	113	275	1409	7	0	0	1164649	692	0	correct_rejection	NA	0
40	Correct	114	276	1410	8	0	0	1165358	691	0	correct_rejection	NA	0
40	Correct	115	277	1411	0	1	1	1166066	692	0	miss	NA	0
40	Correct	116	278	1412	9	0	0	1166775	691	0	correct_rejection	NA	0
40	Correct	117	279	1413	7	0	0	1167483	692	0	correct_rejection	NA	0
40	Correct	118	280	1414	8	0	0	1168192	692	0	correct_rejection	NA	0
40	Correct	119	281	1415	9	0	0	1168900	692	0	correct_rejection	NA	0
40	Correct	120	282	1416	0	1	2	1169609	692	1	hit	364	0
40	Correct	121	283	1417	7	0	0	1170318	691	0	correct_rejection	NA	0
40	Correct	122	284	1418	8	0	0	1171026	692	0	correct_rejection	NA	0
40	Correct	123	285	1419	9	0	0	1171735	691	0	correct_rejection	NA	0
40	Correct	124	286	1420	4	0	0	1172443	692	0	correct_rejection	NA	0
40	Correct	125	287	1421	5	0	0	1173152	691	0	correct_rejection	NA	0
40	Correct	126	288	1422	0	1	1	1173860	692	1	hit	469	0
40	Correct	127	289	1423	6	0	0	1174569	692	0	correct_rejection	NA	0
40	Correct	128	290	1424	4	0	0	1175277	692	0	correct_rejection	NA	0
40	Correct	129	291	1425	5	0	0	1175986	692	0	correct_rejection	NA	0
40	Correct	130	292	1426	6	0	0	1176695	691	0	correct_rejection	NA	0
40	Correct	131	293	1427	4	0	0	1177403	692	0	correct_rejection	NA	0
40	Correct	132	294	1428	5	0	0	1178112	691	0	correct_rejection	NA	0
40	Correct	133	295	1429	6	0	0	1178820	692	0	correct_rejection	NA	0
40	Correct	134	296	1430	6	0	0	1179529	692	0	correct_rejection	NA	0
40	Correct	135	297	1431	5	0	0	1180237	692	0	correct_rejection	NA	0
40	Correct	136	298	1432	4	0	0	1180946	692	0	correct_rejection	NA	0
40	Correct	137	299	1433	6	0	0	1181655	691	0	correct_rejection	NA	0
40	Correct	138	300	1434	5	0	0	1182363	692	0	correct_rejection	NA	0
40	Correct	139	301	1435	4	0	0	1183072	691	0	correct_rejection	NA	0
40	Correct	140	302	1436	6	0	0	1183780	692	0	correct_rejection	NA	0
40	Correct	141	303	1437	5	0	0	1184489	692	0	correct_rejection	NA	0
40	Correct	142	304	1438	4	0	0	1185197	692	0	correct_rejection	NA	0
40	Correct	143	305	1439	9	0	0	1185906	692	0	correct_rejection	NA	0
40	Correct	144	306	1440	8	0	0	1186615	691	0	correct_rejection	NA	0
40	Correct	145	307	1441	7	0	0	1187323	692	0	correct_rejection	NA	0
40	Correct	146	308	1442	9	0	0	1188032	691	0	correct_rejection	NA	0
40	Correct	147	309	1443	8	0	0	1188740	692	0	correct_rejection	NA	0
40	Correct	148	310	1444	0	1	1	1189449	692	1	hit	644	0
40	Correct	149	311	1445	7	0	0	1190157	692	0	correct_rejection	NA	0
40	Correct	150	312	1446	9	0	0	1190866	692	0	correct_rejection	NA	0
40	Correct	151	313	1447	8	0	0	1191575	691	0	correct_rejection	NA	0
40	Correct	152	314	1448	7	0	0	1192283	692	0	correct_rejection	NA	0
40	Correct	153	315	1449	7	0	0	1192992	691	0	correct_rejection	NA	0
40	Correct	154	316	1450	0	1	1	1193700	692	0	miss	NA	0
40	Correct	155	317	1451	8	0	0	1194409	691	0	correct_rejection	NA	0
40	Correct	156	318	1452	9	0	0	1195117	692	0	correct_rejection	NA	0
40	Correct	157	319	1453	7	0	0	1195826	692	0	correct_rejection	NA	0
40	Correct	158	320	1454	8	0	0	1196534	692	0	correct_rejection	NA	0
40	Correct	159	321	1455	9	0	0	1197243	692	0	correct_rejection	NA	0
40	Correct	160	322	1456	7	0	0	1197952	691	0	correct_rejection	NA	0
40	Correct	161	323	1457	8	0	0	1198660	692	0	correct_rejection	NA	0
40	Correct	162	324	1458	9	0	0	1199369	691	0	correct_rejection	NA	0
40	Nonet	1	1	1459	9	0	0	1208222	691	0	correct_rejection	NA	6429
40	Nonet	2	2	1460	8	0	0	1208930	692	0	correct_rejection	NA	0
40	Nonet	3	3	1461	7	0	0	1209639	691	0	correct_rejection	NA	0
40	Nonet	4	4	1462	9	0	0	1210347	692	0	correct_rejection	NA	0
40	Nonet	5	5	1463	8	0	0	1211056	692	0	correct_rejection	NA	0
40	Nonet	6	6	1464	7	0	0	1211764	692	0	correct_rejection	NA	0
40	Nonet	7	7	1465	9	0	0	1212473	692	0	correct_rejection	NA	0
40	Nonet	8	8	1466	8	0	0	1213182	691	0	correct_rejection	NA	0
40	Nonet	9	9	1467	7	0	0	1213890	692	0	correct_rejection	NA	0
40	Nonet	10	10	1468	6	0	0	1214599	691	0	correct_rejection	NA	0
40	Nonet	11	11	1469	5	0	0	1215307	692	0	correct_rejection	NA	0
40	Nonet	12	12	1470	4	0	0	1216016	692	0	correct_rejection	NA	0
40	Nonet	13	13	1471	6	0	0	1216724	692	0	correct_rejection	NA	0
40	Nonet	14	14	1472	5	0	0	1217433	692	0	correct_rejection	NA	0
40	Nonet	15	15	1473	4	0	0	1218142	691	0	correct_rejection	NA	0
40	Nonet	16	16	1474	6	0	0	1218850	692	0	correct_rejection	NA	0
40	Nonet	17	17	1475	0	1	1	1219559	691	0	miss	NA	0
40	Nonet	18	18	1476	5	0	0	1220267	692	0	correct_rejection	NA	0
40	Nonet	19	19	1477	4	0	0	1220976	692	0	correct_rejection	NA	0
40	Nonet	20	20	1478	6	0	0	1221684	692	0	correct_rejection	NA	0
40	Nonet	21	21	1479	5	0	0	1222393	692	0	correct_rejection	NA	0
40	Nonet	22	22	1480	0	1	1	1223102	691	1	hit	543	0
40	Nonet	23	23	1481	4	0	0	1223810	692	0	correct_rejection	NA	0
40	Nonet	24	24	1482	6	0	0	1224519	691	0	correct_rejection	NA	0
40	Nonet	25	25	1483	5	0	0	1225227	692	0	correct_rejection	NA	0
40	Nonet	26	26	1484	4	0	0	1225936	692	0	correct_rejection	NA	0
40	Nonet	27	27	1485	6	0	0	1226644	692	0	correct_rejection	NA	0
40	Nonet	28	28	1486	5	0	0	1227353	692	0	correct_rejection	NA	0
40	Nonet	29	29	1487	4	0	0	1228062	691	0	correct_rejection	NA	0
40	Nonet	30	30	1488	9	0	0	1228770	692	0	correct_rejection	NA	0
40	Nonet	31	31	1489	8	0	0	1229479	691	0	correct_rejection	NA	0
40	Nonet	32	32	1490	0	1	1	1230187	692	0	miss	NA	0
40	Nonet	33	33	1491	7	0	0	1230896	691	0	correct_rejection	NA	0
40	Nonet	34	34	1492	9	0	0	1231604	692	0	correct_rejection	NA	0
40	Nonet	35	35	1493	8	0	0	1232313	692	0	correct_rejection	NA	0
40	Nonet	36	36	1494	7	0	0	1233021	692	0	correct_rejection	NA	0
40	Nonet	37	37	1495	9	0	0	1233730	692	0	correct_rejection	NA	0
40	Nonet	38	38	1496	8	0	0	1234439	691	0	correct_rejection	NA	0
40	Nonet	39	39	1497	7	0	0	1235147	692	0	correct_rejection	NA	0
40	Nonet	40	40	1498	4	0	0	1235856	691	0	correct_rejection	NA	0
40	Nonet	41	41	1499	5	0	0	1236564	692	0	correct_rejection	NA	0
40	Nonet	42	42	1500	6	0	0	1237273	692	0	correct_rejection	NA	0
40	Nonet	43	43	1501	0	1	2	1237981	692	1	hit	331	0
40	Nonet	44	44	1502	4	0	0	1238690	692	0	correct_rejection	NA	0
40	Nonet	45	45	1503	5	0	0	1239399	691	0	correct_rejection	NA	0
40	Nonet	46	46	1504	6	0	0	1240107	692	0	correct_rejection	NA	0
40	Nonet	47	47	1505	0	1	2	1240816	691	1	hit	648	0
40	Nonet	48	48	1506	4	0	0	1241524	692	0	correct_rejection	NA	0
40	Nonet	49	49	1507	5	0	0	1242233	692	0	correct_rejection	NA	0
40	Nonet	50	50	1508	6	0	0	1242941	692	0	correct_rejection	NA	0
40	Nonet	51	51	1509	4	0	0	1243650	692	0	correct_rejection	NA	0
40	Nonet	52	52	1510	5	0	0	1244359	691	0	correct_rejection	NA	0
40	Nonet	53	53	1511	0	1	1	1245067	692	1	hit	364	0
40	Nonet	54	54	1512	6	0	0	1245776	691	0	correct_rejection	NA	0
40	Nonet	55	55	1513	4	0	0	1246484	692	0	correct_rejection	NA	0
40	Nonet	56	56	1514	5	0	0	1247193	691	0	correct_rejection	NA	0
40	Nonet	57	57	1515	6	0	0	1247901	692	0	correct_rejection	NA	0
40	Nonet	58	58	1516	4	0	0	1248610	692	0	correct_rejection	NA	0
40	Nonet	59	59	1517	5	0	0	1249318	692	0	correct_rejection	NA	0
40	Nonet	60	60	1518	6	0	0	1250027	692	0	correct_rejection	NA	0
40	Nonet	61	61	1519	7	0	0	1250736	691	0	correct_rejection	NA	0
40	Nonet	62	62	1520	8	0	0	1251444	692	0	correct_rejection	NA	0
40	Nonet	63	63	1521	9	0	0	1252153	691	0	correct_rejection	NA	0
40	Nonet	64	64	1522	7	0	0	1252861	692	0	correct_rejection	NA	0
40	Nonet	65	65	1523	8	0	0	1253570	692	0	correct_rejection	NA	0
40	Nonet	66	66	1524	0	1	1	1254278	692	1	hit	321	0
40	Nonet	67	67	1525	9	0	0	1254987	692	0	correct_rejection	NA	0
40	Nonet	68	68	1526	7	0	0	1255696	691	0	correct_rejection	NA	0
40	Nonet	69	69	1527	8	0	0	1256404	692	0	correct_rejection	NA	0
40	Nonet	70	70	1528	9	0	0	1257113	691	0	correct_rejection	NA	0
40	Nonet	71	71	1529	4	0	0	1257821	692	0	correct_rejection	NA	0
40	Nonet	72	72	1530	5	0	0	1258530	692	0	correct_rejection	NA	0
40	Nonet	73	73	1531	6	0	0	1259238	692	0	correct_rejection	NA	0
40	Nonet	74	74	1532	4	0	0	1259947	692	0	correct_rejection	NA	0
40	Nonet	75	75	1533	5	0	0	1260656	691	0	correct_rejection	NA	0
40	Nonet	76	76	1534	6	0	0	1261364	692	0	correct_rejection	NA	0
40	Nonet	77	77	1535	4	0	0	1262073	691	0	correct_rejection	NA	0
40	Nonet	78	78	1536	5	0	0	1262781	692	0	correct_rejection	NA	0
40	Nonet	79	79	1537	6	0	0	1263490	692	0	correct_rejection	NA	0
40	Nonet	80	80	1538	9	0	0	1264198	692	0	correct_rejection	NA	0
40	Nonet	81	81	1539	8	0	0	1264907	692	0	correct_rejection	NA	0
40	Nonet	82	82	1540	0	1	1	1265616	691	1	hit	459	0
40	Nonet	83	83	1541	7	0	0	1266324	692	0	correct_rejection	NA	0
40	Nonet	84	84	1542	9	0	0	1267033	691	0	correct_rejection	NA	0
40	Nonet	85	85	1543	8	0	0	1267741	692	0	correct_rejection	NA	0
40	Nonet	86	86	1544	0	1	1	1268450	691	1	hit	459	0
40	Nonet	87	87	1545	7	0	0	1269158	692	0	correct_rejection	NA	0
40	Nonet	88	88	1546	9	0	0	1269867	692	0	correct_rejection	NA	0
40	Nonet	89	89	1547	8	0	0	1270575	692	0	correct_rejection	NA	0
40	Nonet	90	90	1548	7	0	0	1271284	692	0	correct_rejection	NA	0
40	Nonet	91	91	1549	0	1	3	1271993	691	1	hit	468	0
40	Nonet	92	92	1550	9	0	0	1272701	692	0	correct_rejection	NA	0
40	Nonet	93	93	1551	8	0	0	1273410	691	0	correct_rejection	NA	0
40	Nonet	94	94	1552	7	0	0	1274118	692	0	correct_rejection	NA	0
40	Nonet	95	95	1553	9	0	0	1274827	692	0	correct_rejection	NA	0
40	Nonet	96	96	1554	8	0	0	1275535	692	0	correct_rejection	NA	0
40	Nonet	97	97	1555	7	0	0	1276244	692	0	correct_rejection	NA	0
40	Nonet	98	98	1556	9	0	0	1276953	691	0	correct_rejection	NA	0
40	Nonet	99	99	1557	8	0	0	1277661	692	0	correct_rejection	NA	0
40	Nonet	100	100	1558	7	0	0	1278370	691	0	correct_rejection	NA	0
40	Nonet	101	101	1559	7	0	0	1279078	692	0	correct_rejection	NA	0
40	Nonet	102	102	1560	0	1	1	1279787	692	1	hit	551	0
40	Nonet	103	103	1561	8	0	0	1280495	692	0	correct_rejection	NA	0
40	Nonet	104	104	1562	9	0	0	1281204	692	0	correct_rejection	NA	0
40	Nonet	105	105	1563	7	0	0	1281913	691	0	correct_rejection	NA	0
40	Nonet	106	106	1564	8	0	0	1282621	692	0	correct_rejection	NA	0
40	Nonet	107	107	1565	9	0	0	1283330	691	0	correct_rejection	NA	0
40	Nonet	108	108	1566	7	0	0	1284038	692	0	correct_rejection	NA	0
40	Nonet	109	109	1567	8	0	0	1284747	691	0	correct_rejection	NA	0
40	Nonet	110	110	1568	9	0	0	1285455	692	0	correct_rejection	NA	0
40	Nonet	111	111	1569	6	0	0	1286164	692	0	correct_rejection	NA	0
40	Nonet	112	112	1570	5	0	0	1286873	691	0	correct_rejection	NA	0
40	Nonet	113	113	1571	0	1	1	1287581	692	1	hit	373	0
40	Nonet	114	114	1572	4	0	0	1288290	691	0	correct_rejection	NA	0
40	Nonet	115	115	1573	6	0	0	1288998	692	0	correct_rejection	NA	0
40	Nonet	116	116	1574	5	0	0	1289707	691	0	correct_rejection	NA	0
40	Nonet	117	117	1575	4	0	0	1290415	692	0	correct_rejection	NA	0
40	Nonet	118	118	1576	0	1	2	1291124	692	1	hit	392	0
40	Nonet	119	119	1577	6	0	0	1291832	692	0	correct_rejection	NA	0
40	Nonet	120	120	1578	5	0	0	1292541	692	0	correct_rejection	NA	0
40	Nonet	121	121	1579	4	0	0	1293250	691	0	correct_rejection	NA	0
40	Nonet	122	122	1580	4	0	0	1293958	692	0	correct_rejection	NA	0
40	Nonet	123	123	1581	5	0	0	1294667	691	0	correct_rejection	NA	0
40	Nonet	124	124	1582	6	0	0	1295375	692	0	correct_rejection	NA	0
40	Nonet	125	125	1583	4	0	0	1296084	692	0	correct_rejection	NA	0
40	Nonet	126	126	1584	5	0	0	1296792	692	0	correct_rejection	NA	0
40	Nonet	127	127	1585	0	1	1	1297501	692	1	hit	435	0
40	Nonet	128	128	1586	6	0	0	1298210	691	0	correct_rejection	NA	0
40	Nonet	129	129	1587	4	0	0	1298918	692	0	correct_rejection	NA	0
40	Nonet	130	130	1588	0	1	1	1299627	691	0	miss	NA	0
40	Nonet	131	131	1589	5	0	0	1300335	692	0	correct_rejection	NA	0
40	Nonet	132	132	1590	6	0	0	1301044	692	0	correct_rejection	NA	0
40	Nonet	133	133	1591	6	0	0	1301752	692	0	correct_rejection	NA	0
40	Nonet	134	134	1592	5	0	0	1302461	692	0	correct_rejection	NA	0
40	Nonet	135	135	1593	4	0	0	1303170	691	0	correct_rejection	NA	0
40	Nonet	136	136	1594	6	0	0	1303878	692	0	correct_rejection	NA	0
40	Nonet	137	137	1595	5	0	0	1304587	691	0	correct_rejection	NA	0
40	Nonet	138	138	1596	4	0	0	1305295	692	0	correct_rejection	NA	0
40	Nonet	139	139	1597	6	0	0	1306004	691	0	correct_rejection	NA	0
