ID	block	trial_block	trial_cat	trial_total	number	violation	level_violation	onset	duration	Response	Hit_Miss	RT	pre_trial_fixcross_ISI
first_trigger_at: 11181
trigger nr 3 at 13181
41	Single	1	163	1	8	0	0	20266	683	0	correct_rejection	NA	7007
41	Single	2	164	2	6	0	0	20982	684	0	correct_rejection	NA	0
41	Single	3	165	3	7	0	0	21699	683	0	correct_rejection	NA	0
41	Single	4	166	4	5	0	0	22416	683	0	correct_rejection	NA	0
41	Single	5	167	5	0	1	1	23132	684	1	hit	428	0
41	Single	6	168	6	5	0	0	23849	683	0	correct_rejection	NA	0
41	Single	7	169	7	7	0	0	24566	683	0	correct_rejection	NA	0
41	Single	8	170	8	6	0	0	25282	684	0	correct_rejection	NA	0
41	Single	9	171	9	0	1	1	25999	683	1	hit	516	0
41	Single	10	172	10	8	0	0	26716	683	0	correct_rejection	NA	0
41	Single	11	173	11	7	0	0	27432	684	0	correct_rejection	NA	0
41	Single	12	174	12	7	0	0	28149	683	0	correct_rejection	NA	0
41	Single	13	175	13	8	0	0	28866	683	0	correct_rejection	NA	0
41	Single	14	176	14	8	0	0	29582	684	0	correct_rejection	NA	0
41	Single	15	177	15	4	0	0	30299	683	0	correct_rejection	NA	0
41	Single	16	178	16	7	0	0	31016	683	0	correct_rejection	NA	0
41	Single	17	179	17	0	1	1	31732	684	1	hit	419	0
41	Single	18	180	18	9	0	0	32449	683	0	correct_rejection	NA	0
41	Single	19	181	19	6	0	0	33166	683	0	correct_rejection	NA	0
41	Single	20	182	20	5	0	0	33882	684	0	correct_rejection	NA	0
41	Single	21	183	21	9	0	0	34599	683	0	correct_rejection	NA	0
41	Single	22	184	22	7	0	0	35316	683	0	correct_rejection	NA	0
41	Single	23	185	23	4	0	0	36032	684	0	correct_rejection	NA	0
41	Single	24	186	24	4	0	0	36749	683	0	correct_rejection	NA	0
41	Single	25	187	25	0	1	1	37466	683	1	hit	384	0
41	Single	26	188	26	6	0	0	38182	684	0	correct_rejection	NA	0
41	Single	27	189	27	9	0	0	38899	683	0	correct_rejection	NA	0
41	Single	28	190	28	9	0	0	39616	683	0	correct_rejection	NA	0
41	Single	29	191	29	5	0	0	40332	684	0	correct_rejection	NA	0
41	Single	30	192	30	6	0	0	41049	683	0	correct_rejection	NA	0
41	Single	31	193	31	6	0	0	41765	684	0	correct_rejection	NA	0
41	Single	32	194	32	0	1	1	42482	683	1	hit	373	0
41	Single	33	195	33	4	0	0	43199	683	0	correct_rejection	NA	0
41	Single	34	196	34	8	0	0	43915	684	0	correct_rejection	NA	0
41	Single	35	197	35	5	0	0	44632	683	0	correct_rejection	NA	0
41	Single	36	198	36	4	0	0	45349	683	0	correct_rejection	NA	0
41	Single	37	199	37	9	0	0	46065	684	0	correct_rejection	NA	0
41	Single	38	200	38	4	0	0	46782	683	0	correct_rejection	NA	0
41	Single	39	201	39	5	0	0	47499	683	0	correct_rejection	NA	0
41	Single	40	202	40	8	0	0	48215	684	0	correct_rejection	NA	0
41	Single	41	203	41	9	0	0	48932	683	0	correct_rejection	NA	0
41	Single	42	204	42	9	0	0	49649	683	0	correct_rejection	NA	0
41	Single	43	205	43	7	0	0	50365	684	0	correct_rejection	NA	0
41	Single	44	206	44	6	0	0	51082	683	0	correct_rejection	NA	0
41	Single	45	207	45	9	0	0	51799	683	0	correct_rejection	NA	0
41	Single	46	208	46	6	0	0	52515	684	0	correct_rejection	NA	0
41	Single	47	209	47	8	0	0	53232	683	0	correct_rejection	NA	0
41	Single	48	210	48	0	1	1	53949	683	1	hit	394	0
41	Single	49	211	49	4	0	0	54665	684	0	correct_rejection	NA	0
41	Single	50	212	50	8	0	0	55382	683	0	correct_rejection	NA	0
41	Single	51	213	51	8	0	0	56099	683	0	correct_rejection	NA	0
41	Single	52	214	52	0	1	1	56815	684	1	hit	571	0
41	Single	53	215	53	5	0	0	57532	683	0	correct_rejection	NA	0
41	Single	54	216	54	7	0	0	58249	683	0	correct_rejection	NA	0
41	Single	55	217	55	7	0	0	58965	684	0	correct_rejection	NA	0
41	Single	56	218	56	5	0	0	59682	683	0	correct_rejection	NA	0
41	Single	57	219	57	6	0	0	60399	683	0	correct_rejection	NA	0
41	Single	58	220	58	4	0	0	61115	684	0	correct_rejection	NA	0
41	Single	59	221	59	7	0	0	61832	683	0	correct_rejection	NA	0
41	Single	60	222	60	0	1	1	62548	684	1	hit	383	0
41	Single	61	223	61	4	0	0	63265	683	0	correct_rejection	NA	0
41	Single	62	224	62	6	0	0	63982	683	0	correct_rejection	NA	0
41	Single	63	225	63	5	0	0	64698	684	0	correct_rejection	NA	0
41	Single	64	226	64	5	0	0	65415	683	0	correct_rejection	NA	0
41	Single	65	227	65	8	0	0	66132	683	0	correct_rejection	NA	0
41	Single	66	228	66	0	1	1	66848	684	1	hit	351	0
41	Single	67	229	67	7	0	0	67565	683	0	correct_rejection	NA	0
41	Single	68	230	68	8	0	0	68282	683	0	correct_rejection	NA	0
41	Single	69	231	69	9	0	0	68998	684	0	correct_rejection	NA	0
41	Single	70	232	70	0	1	1	69715	683	1	hit	374	0
41	Single	71	233	71	4	0	0	70432	683	0	correct_rejection	NA	0
41	Single	72	234	72	9	0	0	71148	684	0	correct_rejection	NA	0
41	Single	73	235	73	5	0	0	71865	683	0	correct_rejection	NA	0
41	Single	74	236	74	4	0	0	72582	683	0	correct_rejection	NA	0
41	Single	75	237	75	4	0	0	73298	684	0	correct_rejection	NA	0
41	Single	76	238	76	5	0	0	74015	683	0	correct_rejection	NA	0
41	Single	77	239	77	0	1	1	74732	683	1	hit	388	0
41	Single	78	240	78	9	0	0	75448	684	0	correct_rejection	NA	0
41	Single	79	241	79	9	0	0	76165	683	0	correct_rejection	NA	0
41	Single	80	242	80	8	0	0	76882	683	0	correct_rejection	NA	0
41	Single	81	243	81	6	0	0	77598	684	0	correct_rejection	NA	0
41	Single	82	244	82	6	0	0	78315	683	0	correct_rejection	NA	0
41	Single	83	245	83	7	0	0	79032	683	0	correct_rejection	NA	0
41	Single	84	246	84	7	0	0	79748	684	0	correct_rejection	NA	0
41	Single	85	247	85	5	0	0	80465	683	0	correct_rejection	NA	0
41	Single	86	248	86	7	0	0	81182	683	0	correct_rejection	NA	0
41	Single	87	249	87	9	0	0	81898	684	0	correct_rejection	NA	0
41	Single	88	250	88	9	0	0	82615	683	0	correct_rejection	NA	0
41	Single	89	251	89	7	0	0	83331	684	0	correct_rejection	NA	0
41	Single	90	252	90	7	0	0	84048	683	0	correct_rejection	NA	0
41	Single	91	253	91	4	0	0	84765	683	0	correct_rejection	NA	0
41	Single	92	254	92	8	0	0	85481	684	0	correct_rejection	NA	0
41	Single	93	255	93	7	0	0	86198	683	0	correct_rejection	NA	0
41	Single	94	256	94	6	0	0	86915	683	0	correct_rejection	NA	0
41	Single	95	257	95	5	0	0	87631	684	0	correct_rejection	NA	0
41	Single	96	258	96	6	0	0	88348	683	0	correct_rejection	NA	0
41	Single	97	259	97	7	0	0	89065	683	0	correct_rejection	NA	0
41	Single	98	260	98	8	0	0	89781	684	0	correct_rejection	NA	0
41	Single	99	261	99	5	0	0	90498	683	0	correct_rejection	NA	0
41	Single	100	262	100	9	0	0	91215	683	0	correct_rejection	NA	0
41	Single	101	263	101	4	0	0	91931	684	0	correct_rejection	NA	0
41	Single	102	264	102	4	0	0	92648	683	0	correct_rejection	NA	0
41	Single	103	265	103	9	0	0	93365	683	0	correct_rejection	NA	0
41	Single	104	266	104	0	1	1	94081	684	1	hit	364	0
41	Single	105	267	105	8	0	0	94798	683	0	correct_rejection	NA	0
41	Single	106	268	106	9	0	0	95515	683	0	correct_rejection	NA	0
41	Single	107	269	107	6	0	0	96231	684	0	correct_rejection	NA	0
41	Single	108	270	108	9	0	0	96948	683	0	correct_rejection	NA	0
41	Single	109	271	109	0	1	1	97665	683	1	hit	375	0
41	Single	110	272	110	5	0	0	98381	684	0	correct_rejection	NA	0
41	Single	111	273	111	8	0	0	99098	683	0	correct_rejection	NA	0
41	Single	112	274	112	4	0	0	99815	683	0	correct_rejection	NA	0
41	Single	113	275	113	5	0	0	100531	684	0	correct_rejection	NA	0
41	Single	114	276	114	5	0	0	101248	683	0	correct_rejection	NA	0
41	Single	115	277	115	4	0	0	101965	683	0	correct_rejection	NA	0
41	Single	116	278	116	6	0	0	102681	684	0	correct_rejection	NA	0
41	Single	117	279	117	6	0	0	103398	683	0	correct_rejection	NA	0
41	Single	118	280	118	8	0	0	104114	684	0	correct_rejection	NA	0
41	Single	119	281	119	8	0	0	104831	683	0	correct_rejection	NA	0
41	Single	120	282	120	6	0	0	105548	683	0	correct_rejection	NA	0
41	Single	121	283	121	4	0	0	106264	684	0	correct_rejection	NA	0
41	Single	122	284	122	8	0	0	106981	683	0	correct_rejection	NA	0
41	Single	123	285	123	4	0	0	107698	683	0	correct_rejection	NA	0
41	Single	124	286	124	6	0	0	108414	684	0	correct_rejection	NA	0
41	Single	125	287	125	0	1	1	109131	683	1	hit	432	0
41	Single	126	288	126	9	0	0	109848	683	0	correct_rejection	NA	0
41	Single	127	289	127	8	0	0	110564	684	0	correct_rejection	NA	0
41	Single	128	290	128	8	0	0	111281	683	0	correct_rejection	NA	0
41	Single	129	291	129	0	1	1	111998	683	1	hit	430	0
41	Single	130	292	130	9	0	0	112714	684	0	correct_rejection	NA	0
41	Single	131	293	131	5	0	0	113431	683	0	correct_rejection	NA	0
41	Single	132	294	132	9	0	0	114148	683	0	correct_rejection	NA	0
41	Single	133	295	133	7	0	0	114864	684	0	correct_rejection	NA	0
41	Single	134	296	134	5	0	0	115581	683	0	correct_rejection	NA	0
41	Single	135	297	135	8	0	0	116298	683	0	correct_rejection	NA	0
41	Single	136	298	136	5	0	0	117014	684	0	correct_rejection	NA	0
41	Single	137	299	137	5	0	0	117731	683	0	correct_rejection	NA	0
41	Single	138	300	138	6	0	0	118448	683	0	correct_rejection	NA	0
41	Single	139	301	139	8	0	0	119164	684	0	correct_rejection	NA	0
41	Single	140	302	140	0	1	1	119881	683	1	hit	426	0
41	Single	141	303	141	6	0	0	120598	683	0	correct_rejection	NA	0
41	Single	142	304	142	7	0	0	121314	684	0	correct_rejection	NA	0
41	Single	143	305	143	9	0	0	122031	683	0	correct_rejection	NA	0
41	Single	144	306	144	6	0	0	122748	683	0	correct_rejection	NA	0
41	Single	145	307	145	0	1	1	123464	684	1	hit	398	0
41	Single	146	308	146	5	0	0	124181	683	0	correct_rejection	NA	0
41	Single	147	309	147	4	0	0	124897	684	0	correct_rejection	NA	0
41	Single	148	310	148	0	1	1	125614	684	1	hit	369	0
41	Single	149	311	149	5	0	0	126331	683	0	correct_rejection	NA	0
41	Single	150	312	150	7	0	0	127047	684	0	correct_rejection	NA	0
41	Single	151	313	151	8	0	0	127764	683	0	correct_rejection	NA	0
41	Single	152	314	152	7	0	0	128481	683	0	correct_rejection	NA	0
41	Single	153	315	153	4	0	0	129197	684	0	correct_rejection	NA	0
41	Single	154	316	154	4	0	0	129914	683	0	correct_rejection	NA	0
41	Single	155	317	155	7	0	0	130631	683	0	correct_rejection	NA	0
41	Single	156	318	156	7	0	0	131347	684	0	correct_rejection	NA	0
41	Single	157	319	157	6	0	0	132064	683	0	correct_rejection	NA	0
41	Single	158	320	158	6	0	0	132781	683	0	correct_rejection	NA	0
41	Single	159	321	159	4	0	0	133497	684	0	correct_rejection	NA	0
41	Single	160	322	160	9	0	0	134214	683	0	correct_rejection	NA	0
41	Single	161	323	161	9	0	0	134931	683	0	correct_rejection	NA	0
41	Single	162	324	162	4	0	0	135647	684	0	correct_rejection	NA	0
41	Correct	1	163	163	4	0	0	144730	684	0	correct_rejection	NA	6496
41	Correct	2	164	164	5	0	0	145447	684	0	correct_rejection	NA	0
41	Correct	3	165	165	6	0	0	146164	683	0	correct_rejection	NA	0
41	Correct	4	166	166	4	0	0	146880	684	0	correct_rejection	NA	0
41	Correct	5	167	167	5	0	0	147597	683	0	correct_rejection	NA	0
41	Correct	6	168	168	6	0	0	148314	683	0	correct_rejection	NA	0
41	Correct	7	169	169	4	0	0	149030	684	0	correct_rejection	NA	0
41	Correct	8	170	170	0	1	1	149747	683	1	hit	405	0
41	Correct	9	171	171	5	0	0	150464	683	0	correct_rejection	NA	0
41	Correct	10	172	172	6	0	0	151180	684	0	correct_rejection	NA	0
41	Correct	11	173	173	6	0	0	151897	683	0	correct_rejection	NA	0
41	Correct	12	174	174	5	0	0	152614	683	0	correct_rejection	NA	0
41	Correct	13	175	175	4	0	0	153330	684	0	correct_rejection	NA	0
41	Correct	14	176	176	0	1	2	154047	683	1	hit	473	0
41	Correct	15	177	177	6	0	0	154764	683	0	correct_rejection	NA	0
41	Correct	16	178	178	5	0	0	155480	684	0	correct_rejection	NA	0
41	Correct	17	179	179	4	0	0	156197	683	0	correct_rejection	NA	0
41	Correct	18	180	180	6	0	0	156914	683	0	correct_rejection	NA	0
41	Correct	19	181	181	5	0	0	157630	684	0	correct_rejection	NA	0
41	Correct	20	182	182	4	0	0	158347	683	0	correct_rejection	NA	0
41	Correct	21	183	183	0	1	3	159064	683	1	hit	416	0
41	Correct	22	184	184	9	0	0	159780	684	0	correct_rejection	NA	0
41	Correct	23	185	185	8	0	0	160497	683	0	correct_rejection	NA	0
41	Correct	24	186	186	7	0	0	161214	683	0	correct_rejection	NA	0
41	Correct	25	187	187	0	1	2	161930	684	1	hit	412	0
41	Correct	26	188	188	9	0	0	162647	683	0	correct_rejection	NA	0
41	Correct	27	189	189	8	0	0	163364	683	0	correct_rejection	NA	0
41	Correct	28	190	190	0	1	1	164080	684	1	hit	348	0
41	Correct	29	191	191	7	0	0	164797	683	0	correct_rejection	NA	0
41	Correct	30	192	192	9	0	0	165513	684	0	correct_rejection	NA	0
41	Correct	31	193	193	8	0	0	166230	684	0	correct_rejection	NA	0
41	Correct	32	194	194	7	0	0	166947	683	0	correct_rejection	NA	0
41	Correct	33	195	195	0	1	3	167663	684	1	hit	378	0
41	Correct	34	196	196	7	0	0	168380	683	0	correct_rejection	NA	0
41	Correct	35	197	197	8	0	0	169097	683	0	correct_rejection	NA	0
41	Correct	36	198	198	9	0	0	169813	684	0	correct_rejection	NA	0
41	Correct	37	199	199	7	0	0	170530	683	0	correct_rejection	NA	0
41	Correct	38	200	200	8	0	0	171247	683	0	correct_rejection	NA	0
41	Correct	39	201	201	9	0	0	171963	684	0	correct_rejection	NA	0
41	Correct	40	202	202	7	0	0	172680	683	0	correct_rejection	NA	0
41	Correct	41	203	203	8	0	0	173397	683	0	correct_rejection	NA	0
41	Correct	42	204	204	9	0	0	174113	684	0	correct_rejection	NA	0
41	Correct	43	205	205	4	0	0	174830	683	0	correct_rejection	NA	0
41	Correct	44	206	206	5	0	0	175547	683	0	correct_rejection	NA	0
41	Correct	45	207	207	6	0	0	176263	684	0	correct_rejection	NA	0
41	Correct	46	208	208	4	0	0	176980	683	0	correct_rejection	NA	0
41	Correct	47	209	209	5	0	0	177697	683	0	correct_rejection	NA	0
41	Correct	48	210	210	6	0	0	178413	684	0	correct_rejection	NA	0
41	Correct	49	211	211	4	0	0	179130	683	0	correct_rejection	NA	0
41	Correct	50	212	212	5	0	0	179847	683	0	correct_rejection	NA	0
41	Correct	51	213	213	6	0	0	180563	684	0	correct_rejection	NA	0
41	Correct	52	214	214	6	0	0	181280	683	0	correct_rejection	NA	0
41	Correct	53	215	215	5	0	0	181997	683	0	correct_rejection	NA	0
41	Correct	54	216	216	4	0	0	182713	684	0	correct_rejection	NA	0
41	Correct	55	217	217	6	0	0	183430	683	0	correct_rejection	NA	0
41	Correct	56	218	218	5	0	0	184147	683	0	correct_rejection	NA	0
41	Correct	57	219	219	4	0	0	184863	684	0	correct_rejection	NA	0
41	Correct	58	220	220	6	0	0	185580	683	0	correct_rejection	NA	0
41	Correct	59	221	221	5	0	0	186296	684	0	correct_rejection	NA	0
41	Correct	60	222	222	0	1	1	187013	684	1	hit	500	0
41	Correct	61	223	223	4	0	0	187730	683	0	correct_rejection	NA	0
41	Correct	62	224	224	9	0	0	188446	684	0	correct_rejection	NA	0
41	Correct	63	225	225	0	1	1	189163	683	1	hit	475	0
41	Correct	64	226	226	8	0	0	189880	683	0	correct_rejection	NA	0
41	Correct	65	227	227	7	0	0	190596	684	0	correct_rejection	NA	0
41	Correct	66	228	228	9	0	0	191313	683	0	correct_rejection	NA	0
41	Correct	67	229	229	8	0	0	192030	683	0	correct_rejection	NA	0
41	Correct	68	230	230	7	0	0	192746	684	0	correct_rejection	NA	0
41	Correct	69	231	231	9	0	0	193463	683	0	correct_rejection	NA	0
41	Correct	70	232	232	8	0	0	194180	683	0	correct_rejection	NA	0
41	Correct	71	233	233	7	0	0	194896	684	0	correct_rejection	NA	0
41	Correct	72	234	234	7	0	0	195613	683	0	correct_rejection	NA	0
41	Correct	73	235	235	8	0	0	196330	683	0	correct_rejection	NA	0
41	Correct	74	236	236	0	1	1	197046	684	1	hit	397	0
41	Correct	75	237	237	9	0	0	197763	683	0	correct_rejection	NA	0
41	Correct	76	238	238	7	0	0	198480	683	0	correct_rejection	NA	0
41	Correct	77	239	239	0	1	1	199196	684	1	hit	354	0
41	Correct	78	240	240	8	0	0	199913	683	0	correct_rejection	NA	0
41	Correct	79	241	241	9	0	0	200630	683	0	correct_rejection	NA	0
41	Correct	80	242	242	7	0	0	201346	684	0	correct_rejection	NA	0
41	Correct	81	243	243	0	1	1	202063	683	1	hit	389	0
41	Correct	82	244	244	8	0	0	202780	683	0	correct_rejection	NA	0
41	Correct	83	245	245	9	0	0	203496	684	0	correct_rejection	NA	0
41	Correct	84	246	246	4	0	0	204213	683	0	correct_rejection	NA	0
41	Correct	85	247	247	5	0	0	204930	683	0	correct_rejection	NA	0
41	Correct	86	248	248	6	0	0	205646	684	0	correct_rejection	NA	0
41	Correct	87	249	249	0	1	2	206363	683	1	hit	488	0
41	Correct	88	250	250	4	0	0	207079	684	0	correct_rejection	NA	0
41	Correct	89	251	251	5	0	0	207796	683	0	correct_rejection	NA	0
41	Correct	90	252	252	6	0	0	208513	683	0	correct_rejection	NA	0
41	Correct	91	253	253	4	0	0	209229	684	0	correct_rejection	NA	0
41	Correct	92	254	254	5	0	0	209946	683	0	correct_rejection	NA	0
41	Correct	93	255	255	6	0	0	210663	683	0	correct_rejection	NA	0
41	Correct	94	256	256	6	0	0	211379	684	0	correct_rejection	NA	0
41	Correct	95	257	257	0	1	1	212096	683	1	hit	404	0
41	Correct	96	258	258	5	0	0	212813	683	0	correct_rejection	NA	0
41	Correct	97	259	259	4	0	0	213529	684	0	correct_rejection	NA	0
41	Correct	98	260	260	6	0	0	214246	683	0	correct_rejection	NA	0
41	Correct	99	261	261	5	0	0	214963	683	0	correct_rejection	NA	0
41	Correct	100	262	262	4	0	0	215679	684	0	correct_rejection	NA	0
41	Correct	101	263	263	6	0	0	216396	683	0	correct_rejection	NA	0
41	Correct	102	264	264	5	0	0	217113	683	0	correct_rejection	NA	0
41	Correct	103	265	265	4	0	0	217829	684	0	correct_rejection	NA	0
41	Correct	104	266	266	9	0	0	218546	683	0	correct_rejection	NA	0
41	Correct	105	267	267	8	0	0	219263	683	0	correct_rejection	NA	0
41	Correct	106	268	268	7	0	0	219979	684	0	correct_rejection	NA	0
41	Correct	107	269	269	9	0	0	220696	683	0	correct_rejection	NA	0
41	Correct	108	270	270	8	0	0	221413	683	0	correct_rejection	NA	0
41	Correct	109	271	271	7	0	0	222129	684	0	correct_rejection	NA	0
41	Correct	110	272	272	9	0	0	222846	683	0	correct_rejection	NA	0
41	Correct	111	273	273	8	0	0	223563	683	0	correct_rejection	NA	0
41	Correct	112	274	274	7	0	0	224279	684	0	correct_rejection	NA	0
41	Correct	113	275	275	7	0	0	224996	683	0	correct_rejection	NA	0
41	Correct	114	276	276	8	0	0	225713	683	0	correct_rejection	NA	0
41	Correct	115	277	277	0	1	1	226429	684	1	hit	390	0
41	Correct	116	278	278	9	0	0	227146	683	0	correct_rejection	NA	0
41	Correct	117	279	279	7	0	0	227862	684	0	correct_rejection	NA	0
41	Correct	118	280	280	8	0	0	228579	683	0	correct_rejection	NA	0
41	Correct	119	281	281	9	0	0	229296	683	0	correct_rejection	NA	0
41	Correct	120	282	282	0	1	2	230012	684	1	hit	436	0
41	Correct	121	283	283	7	0	0	230729	683	0	correct_rejection	NA	0
41	Correct	122	284	284	8	0	0	231446	683	0	correct_rejection	NA	0
41	Correct	123	285	285	9	0	0	232162	684	0	correct_rejection	NA	0
41	Correct	124	286	286	4	0	0	232879	683	0	correct_rejection	NA	0
41	Correct	125	287	287	5	0	0	233596	683	0	correct_rejection	NA	0
41	Correct	126	288	288	0	1	1	234312	684	1	hit	377	0
41	Correct	127	289	289	6	0	0	235029	683	0	correct_rejection	NA	0
41	Correct	128	290	290	4	0	0	235746	683	0	correct_rejection	NA	0
41	Correct	129	291	291	5	0	0	236462	684	0	correct_rejection	NA	0
41	Correct	130	292	292	6	0	0	237179	683	0	correct_rejection	NA	0
41	Correct	131	293	293	4	0	0	237896	683	0	correct_rejection	NA	0
41	Correct	132	294	294	5	0	0	238612	684	0	correct_rejection	NA	0
41	Correct	133	295	295	6	0	0	239329	683	0	correct_rejection	NA	0
41	Correct	134	296	296	6	0	0	240046	683	0	correct_rejection	NA	0
41	Correct	135	297	297	5	0	0	240762	684	0	correct_rejection	NA	0
41	Correct	136	298	298	4	0	0	241479	683	0	correct_rejection	NA	0
41	Correct	137	299	299	6	0	0	242196	683	0	correct_rejection	NA	0
41	Correct	138	300	300	5	0	0	242912	684	0	correct_rejection	NA	0
41	Correct	139	301	301	4	0	0	243629	683	0	correct_rejection	NA	0
41	Correct	140	302	302	6	0	0	244346	683	0	correct_rejection	NA	0
41	Correct	141	303	303	5	0	0	245062	684	0	correct_rejection	NA	0
41	Correct	142	304	304	4	0	0	245779	683	0	correct_rejection	NA	0
41	Correct	143	305	305	9	0	0	246496	683	0	correct_rejection	NA	0
41	Correct	144	306	306	8	0	0	247212	684	0	correct_rejection	NA	0
41	Correct	145	307	307	7	0	0	247929	683	0	correct_rejection	NA	0
41	Correct	146	308	308	9	0	0	248645	684	0	correct_rejection	NA	0
41	Correct	147	309	309	8	0	0	249362	683	0	correct_rejection	NA	0
41	Correct	148	310	310	0	1	1	250079	683	1	hit	388	0
41	Correct	149	311	311	7	0	0	250795	684	0	correct_rejection	NA	0
41	Correct	150	312	312	9	0	0	251512	683	0	correct_rejection	NA	0
41	Correct	151	313	313	8	0	0	252229	683	0	correct_rejection	NA	0
41	Correct	152	314	314	7	0	0	252945	684	0	correct_rejection	NA	0
41	Correct	153	315	315	7	0	0	253662	683	0	correct_rejection	NA	0
41	Correct	154	316	316	0	1	1	254379	683	1	hit	430	0
41	Correct	155	317	317	8	0	0	255095	684	0	correct_rejection	NA	0
41	Correct	156	318	318	9	0	0	255812	683	0	correct_rejection	NA	0
41	Correct	157	319	319	7	0	0	256529	683	0	correct_rejection	NA	0
41	Correct	158	320	320	8	0	0	257245	684	0	correct_rejection	NA	0
41	Correct	159	321	321	9	0	0	257962	683	0	correct_rejection	NA	0
41	Correct	160	322	322	7	0	0	258679	683	0	correct_rejection	NA	0
41	Correct	161	323	323	8	0	0	259395	684	0	correct_rejection	NA	0
41	Correct	162	324	324	9	0	0	260112	683	0	correct_rejection	NA	0
41	Triplet	1	649	325	4	0	0	269962	683	0	correct_rejection	NA	7727
41	Triplet	2	650	326	5	0	0	270678	684	0	correct_rejection	NA	0
41	Triplet	3	651	327	6	0	0	271395	683	0	correct_rejection	NA	0
41	Triplet	4	652	328	6	0	0	272112	683	0	correct_rejection	NA	0
41	Triplet	5	653	329	5	0	0	272828	684	0	correct_rejection	NA	0
41	Triplet	6	654	330	4	0	0	273545	683	0	correct_rejection	NA	0
41	Triplet	7	655	331	4	0	0	274262	683	0	correct_rejection	NA	0
41	Triplet	8	656	332	5	0	0	274978	684	0	correct_rejection	NA	0
41	Triplet	9	657	333	6	0	0	275695	683	0	correct_rejection	NA	0
41	Triplet	10	658	334	9	0	0	276412	683	0	correct_rejection	NA	0
41	Triplet	11	659	335	0	1	1	277128	684	1	hit	415	0
41	Triplet	12	660	336	8	0	0	277845	683	0	correct_rejection	NA	0
41	Triplet	13	661	337	7	0	0	278562	683	0	correct_rejection	NA	0
41	Triplet	14	662	338	6	0	0	279278	684	0	correct_rejection	NA	0
41	Triplet	15	663	339	0	1	1	279995	683	1	hit	462	0
41	Triplet	16	664	340	5	0	0	280712	683	0	correct_rejection	NA	0
41	Triplet	17	665	341	4	0	0	281428	684	0	correct_rejection	NA	0
41	Triplet	18	666	342	6	0	0	282145	683	0	correct_rejection	NA	0
41	Triplet	19	667	343	5	0	0	282862	683	0	correct_rejection	NA	0
41	Triplet	20	668	344	4	0	0	283578	684	0	correct_rejection	NA	0
41	Triplet	21	669	345	7	0	0	284295	683	0	correct_rejection	NA	0
41	Triplet	22	670	346	8	0	0	285012	683	0	correct_rejection	NA	0
41	Triplet	23	671	347	9	0	0	285728	684	0	correct_rejection	NA	0
41	Triplet	24	672	348	6	0	0	286445	683	0	correct_rejection	NA	0
41	Triplet	25	673	349	0	1	1	287162	683	1	hit	420	0
41	Triplet	26	674	350	5	0	0	287878	684	0	correct_rejection	NA	0
41	Triplet	27	675	351	4	0	0	288595	683	0	correct_rejection	NA	0
41	Triplet	28	676	352	9	0	0	289312	683	0	correct_rejection	NA	0
41	Triplet	29	677	353	8	0	0	290028	684	0	correct_rejection	NA	0
41	Triplet	30	678	354	7	0	0	290745	683	0	correct_rejection	NA	0
41	Triplet	31	679	355	7	0	0	291461	684	0	correct_rejection	NA	0
41	Triplet	32	680	356	8	0	0	292178	683	0	correct_rejection	NA	0
41	Triplet	33	681	357	9	0	0	292895	683	0	correct_rejection	NA	0
41	Triplet	34	682	358	4	0	0	293611	684	0	correct_rejection	NA	0
41	Triplet	35	683	359	5	0	0	294328	683	0	correct_rejection	NA	0
41	Triplet	36	684	360	6	0	0	295045	683	0	correct_rejection	NA	0
41	Triplet	37	685	361	4	0	0	295761	684	0	correct_rejection	NA	0
41	Triplet	38	686	362	5	0	0	296478	683	0	correct_rejection	NA	0
41	Triplet	39	687	363	0	1	1	297195	683	1	hit	398	0
41	Triplet	40	688	364	6	0	0	297911	684	0	correct_rejection	NA	0
41	Triplet	41	689	365	7	0	0	298628	683	0	correct_rejection	NA	0
41	Triplet	42	690	366	8	0	0	299345	683	0	correct_rejection	NA	0
41	Triplet	43	691	367	9	0	0	300061	684	0	correct_rejection	NA	0
41	Triplet	44	692	368	7	0	0	300778	683	0	correct_rejection	NA	0
41	Triplet	45	693	369	8	0	0	301495	683	0	correct_rejection	NA	0
41	Triplet	46	694	370	9	0	0	302211	684	0	correct_rejection	NA	0
41	Triplet	47	695	371	9	0	0	302928	683	0	correct_rejection	NA	0
41	Triplet	48	696	372	8	0	0	303645	683	0	correct_rejection	NA	0
41	Triplet	49	697	373	0	1	1	304361	684	1	hit	391	0
41	Triplet	50	698	374	7	0	0	305078	683	0	correct_rejection	NA	0
41	Triplet	51	699	375	9	0	0	305795	683	0	correct_rejection	NA	0
41	Triplet	52	700	376	8	0	0	306511	684	0	correct_rejection	NA	0
41	Triplet	53	701	377	7	0	0	307228	683	0	correct_rejection	NA	0
41	Triplet	54	702	378	7	0	0	307945	683	0	correct_rejection	NA	0
41	Triplet	55	703	379	0	1	1	308661	684	1	hit	381	0
41	Triplet	56	704	380	8	0	0	309378	683	0	correct_rejection	NA	0
41	Triplet	57	705	381	9	0	0	310094	684	0	correct_rejection	NA	0
41	Triplet	58	706	382	7	0	0	310811	684	0	correct_rejection	NA	0
41	Triplet	59	707	383	8	0	0	311528	683	0	correct_rejection	NA	0
41	Triplet	60	708	384	0	1	1	312244	684	1	hit	368	0
41	Triplet	61	709	385	9	0	0	312961	683	0	correct_rejection	NA	0
41	Triplet	62	710	386	6	0	0	313678	683	0	correct_rejection	NA	0
41	Triplet	63	711	387	5	0	0	314394	684	0	correct_rejection	NA	0
41	Triplet	64	712	388	4	0	0	315111	683	0	correct_rejection	NA	0
41	Triplet	65	713	389	6	0	0	315828	683	0	correct_rejection	NA	0
41	Triplet	66	714	390	5	0	0	316544	684	0	correct_rejection	NA	0
41	Triplet	67	715	391	4	0	0	317261	683	0	correct_rejection	NA	0
41	Triplet	68	716	392	0	1	2	317978	683	1	hit	413	0
41	Triplet	69	717	393	4	0	0	318694	684	0	correct_rejection	NA	0
41	Triplet	70	718	394	5	0	0	319411	683	0	correct_rejection	NA	0
41	Triplet	71	719	395	6	0	0	320128	683	0	correct_rejection	NA	0
41	Triplet	72	720	396	4	0	0	320844	684	0	correct_rejection	NA	0
41	Triplet	73	721	397	5	0	0	321561	683	0	correct_rejection	NA	0
41	Triplet	74	722	398	6	0	0	322278	683	0	correct_rejection	NA	0
41	Triplet	75	723	399	6	0	0	322994	684	0	correct_rejection	NA	0
41	Triplet	76	724	400	5	0	0	323711	683	0	correct_rejection	NA	0
41	Triplet	77	725	401	0	1	1	324428	683	1	hit	436	0
41	Triplet	78	726	402	4	0	0	325144	684	0	correct_rejection	NA	0
41	Triplet	79	727	403	7	0	0	325861	683	0	correct_rejection	NA	0
41	Triplet	80	728	404	8	0	0	326578	683	0	correct_rejection	NA	0
41	Triplet	81	729	405	9	0	0	327294	684	0	correct_rejection	NA	0
41	Triplet	82	730	406	4	0	0	328011	683	0	correct_rejection	NA	0
41	Triplet	83	731	407	5	0	0	328728	683	0	correct_rejection	NA	0
41	Triplet	84	732	408	6	0	0	329444	684	0	correct_rejection	NA	0
41	Triplet	85	733	409	9	0	0	330161	683	0	correct_rejection	NA	0
41	Triplet	86	734	410	8	0	0	330877	684	0	correct_rejection	NA	0
41	Triplet	87	735	411	7	0	0	331594	684	0	correct_rejection	NA	0
41	Triplet	88	736	412	9	0	0	332311	683	0	correct_rejection	NA	0
41	Triplet	89	737	413	8	0	0	333027	684	0	correct_rejection	NA	0
41	Triplet	90	738	414	7	0	0	333744	683	0	correct_rejection	NA	0
41	Triplet	91	739	415	7	0	0	334461	683	0	correct_rejection	NA	0
41	Triplet	92	740	416	8	0	0	335177	684	0	correct_rejection	NA	0
41	Triplet	93	741	417	9	0	0	335894	683	0	correct_rejection	NA	0
41	Triplet	94	742	418	9	0	0	336611	683	0	correct_rejection	NA	0
41	Triplet	95	743	419	8	0	0	337327	684	0	correct_rejection	NA	0
41	Triplet	96	744	420	7	0	0	338044	683	0	correct_rejection	NA	0
41	Triplet	97	745	421	6	0	0	338761	683	0	correct_rejection	NA	0
41	Triplet	98	746	422	5	0	0	339477	684	0	correct_rejection	NA	0
41	Triplet	99	747	423	4	0	0	340194	683	0	correct_rejection	NA	0
41	Triplet	100	748	424	9	0	0	340911	683	0	correct_rejection	NA	0
41	Triplet	101	749	425	8	0	0	341627	684	0	correct_rejection	NA	0
41	Triplet	102	750	426	0	1	1	342344	683	1	hit	443	0
41	Triplet	103	751	427	7	0	0	343061	683	0	correct_rejection	NA	0
41	Triplet	104	752	428	4	0	0	343777	684	0	correct_rejection	NA	0
41	Triplet	105	753	429	5	0	0	344494	683	0	correct_rejection	NA	0
41	Triplet	106	754	430	6	0	0	345211	683	0	correct_rejection	NA	0
41	Triplet	107	755	431	7	0	0	345927	684	0	correct_rejection	NA	0
41	Triplet	108	756	432	8	0	0	346644	683	0	correct_rejection	NA	0
41	Triplet	109	757	433	9	0	0	347361	683	0	correct_rejection	NA	0
41	Triplet	110	758	434	0	1	2	348077	684	1	hit	404	0
41	Triplet	111	759	435	9	0	0	348794	683	0	correct_rejection	NA	0
41	Triplet	112	760	436	8	0	0	349511	683	0	correct_rejection	NA	0
41	Triplet	113	761	437	7	0	0	350227	684	0	correct_rejection	NA	0
41	Triplet	114	762	438	4	0	0	350944	683	0	correct_rejection	NA	0
41	Triplet	115	763	439	5	0	0	351661	683	0	correct_rejection	NA	0
41	Triplet	116	764	440	6	0	0	352377	684	0	correct_rejection	NA	0
41	Triplet	117	765	441	0	1	2	353094	683	1	hit	487	0
41	Triplet	118	766	442	4	0	0	353810	684	0	correct_rejection	NA	0
41	Triplet	119	767	443	5	0	0	354527	683	0	correct_rejection	NA	0
41	Triplet	120	768	444	6	0	0	355244	683	0	correct_rejection	NA	0
41	Triplet	121	769	445	9	0	0	355960	684	0	correct_rejection	NA	0
41	Triplet	122	770	446	8	0	0	356677	683	0	correct_rejection	NA	0
41	Triplet	123	771	447	0	1	1	357394	683	1	hit	439	0
41	Triplet	124	772	448	7	0	0	358110	684	0	correct_rejection	NA	0
41	Triplet	125	773	449	7	0	0	358827	683	0	correct_rejection	NA	0
41	Triplet	126	774	450	8	0	0	359544	683	0	correct_rejection	NA	0
41	Triplet	127	775	451	9	0	0	360260	684	0	correct_rejection	NA	0
41	Triplet	128	776	452	0	1	2	360977	683	1	hit	474	0
41	Triplet	129	777	453	6	0	0	361694	683	0	correct_rejection	NA	0
41	Triplet	130	778	454	5	0	0	362410	684	0	correct_rejection	NA	0
41	Triplet	131	779	455	4	0	0	363127	683	0	correct_rejection	NA	0
41	Triplet	132	780	456	7	0	0	363844	683	0	correct_rejection	NA	0
41	Triplet	133	781	457	8	0	0	364560	684	0	correct_rejection	NA	0
41	Triplet	134	782	458	9	0	0	365277	683	0	correct_rejection	NA	0
41	Triplet	135	783	459	7	0	0	365994	683	0	correct_rejection	NA	0
41	Triplet	136	784	460	8	0	0	366710	684	0	correct_rejection	NA	0
41	Triplet	137	785	461	9	0	0	367427	683	0	correct_rejection	NA	0
41	Triplet	138	786	462	4	0	0	368144	683	0	correct_rejection	NA	0
41	Triplet	139	787	463	0	1	1	368860	684	1	hit	406	0
41	Triplet	140	788	464	5	0	0	369577	683	0	correct_rejection	NA	0
41	Triplet	141	789	465	6	0	0	370294	683	0	correct_rejection	NA	0
41	Triplet	142	790	466	0	1	2	371010	684	1	hit	416	0
41	Triplet	143	791	467	6	0	0	371727	683	0	correct_rejection	NA	0
41	Triplet	144	792	468	5	0	0	372443	684	0	correct_rejection	NA	0
41	Triplet	145	793	469	4	0	0	373160	684	0	correct_rejection	NA	0
41	Triplet	146	794	470	6	0	0	373877	683	0	correct_rejection	NA	0
41	Triplet	147	795	471	5	0	0	374593	684	0	correct_rejection	NA	0
41	Triplet	148	796	472	4	0	0	375310	683	0	correct_rejection	NA	0
41	Triplet	149	797	473	0	1	2	376027	683	1	hit	362	0
41	Triplet	150	798	474	9	0	0	376743	684	0	correct_rejection	NA	0
41	Triplet	151	799	475	8	0	0	377460	683	0	correct_rejection	NA	0
41	Triplet	152	800	476	7	0	0	378177	683	0	correct_rejection	NA	0
41	Triplet	153	801	477	0	1	2	378893	684	1	hit	418	0
41	Triplet	154	802	478	9	0	0	379610	683	0	correct_rejection	NA	0
41	Triplet	155	803	479	8	0	0	380327	683	0	correct_rejection	NA	0
41	Triplet	156	804	480	7	0	0	381043	684	0	correct_rejection	NA	0
41	Triplet	157	805	481	6	0	0	381760	683	0	correct_rejection	NA	0
41	Triplet	158	806	482	5	0	0	382477	683	0	correct_rejection	NA	0
41	Triplet	159	807	483	4	0	0	383193	684	0	correct_rejection	NA	0
41	Triplet	160	808	484	4	0	0	383910	683	0	correct_rejection	NA	0
41	Triplet	161	809	485	5	0	0	384627	683	0	correct_rejection	NA	0
41	Triplet	162	810	486	6	0	0	385343	684	0	correct_rejection	NA	0
41	Single	1	325	487	9	0	0	394860	683	0	correct_rejection	NA	7616
41	Single	2	326	488	5	0	0	395576	684	0	correct_rejection	NA	0
41	Single	3	327	489	7	0	0	396293	683	0	correct_rejection	NA	0
41	Single	4	328	490	6	0	0	397010	683	0	correct_rejection	NA	0
41	Single	5	329	491	0	1	1	397726	684	1	hit	508	0
41	Single	6	330	492	9	0	0	398443	683	0	correct_rejection	NA	0
41	Single	7	331	493	4	0	0	399160	683	0	correct_rejection	NA	0
41	Single	8	332	494	4	0	0	399876	684	0	correct_rejection	NA	0
41	Single	9	333	495	7	0	0	400593	683	0	correct_rejection	NA	0
41	Single	10	334	496	8	0	0	401310	683	0	correct_rejection	NA	0
41	Single	11	335	497	5	0	0	402026	684	0	correct_rejection	NA	0
41	Single	12	336	498	9	0	0	402743	683	0	correct_rejection	NA	0
41	Single	13	337	499	0	1	1	403460	683	1	hit	466	0
41	Single	14	338	500	8	0	0	404176	684	0	correct_rejection	NA	0
41	Single	15	339	501	6	0	0	404893	683	0	correct_rejection	NA	0
41	Single	16	340	502	7	0	0	405610	683	0	correct_rejection	NA	0
41	Single	17	341	503	4	0	0	406326	684	0	correct_rejection	NA	0
41	Single	18	342	504	0	1	1	407043	683	1	hit	429	0
41	Single	19	343	505	5	0	0	407760	683	0	correct_rejection	NA	0
41	Single	20	344	506	8	0	0	408476	684	0	correct_rejection	NA	0
41	Single	21	345	507	8	0	0	409193	683	0	correct_rejection	NA	0
41	Single	22	346	508	9	0	0	409910	683	0	correct_rejection	NA	0
41	Single	23	347	509	7	0	0	410626	684	0	correct_rejection	NA	0
41	Single	24	348	510	5	0	0	411343	683	0	correct_rejection	NA	0
41	Single	25	349	511	5	0	0	412060	683	0	correct_rejection	NA	0
41	Single	26	350	512	4	0	0	412776	684	0	correct_rejection	NA	0
41	Single	27	351	513	9	0	0	413493	683	0	correct_rejection	NA	0
41	Single	28	352	514	9	0	0	414210	683	0	correct_rejection	NA	0
41	Single	29	353	515	6	0	0	414926	684	0	correct_rejection	NA	0
41	Single	30	354	516	8	0	0	415643	683	0	correct_rejection	NA	0
41	Single	31	355	517	4	0	0	416359	684	0	correct_rejection	NA	0
41	Single	32	356	518	6	0	0	417076	683	0	correct_rejection	NA	0
41	Single	33	357	519	0	1	1	417793	683	1	hit	455	0
41	Single	34	358	520	6	0	0	418509	684	0	correct_rejection	NA	0
41	Single	35	359	521	5	0	0	419226	683	0	correct_rejection	NA	0
41	Single	36	360	522	6	0	0	419943	683	0	correct_rejection	NA	0
41	Single	37	361	523	4	0	0	420659	684	0	correct_rejection	NA	0
41	Single	38	362	524	8	0	0	421376	683	0	correct_rejection	NA	0
41	Single	39	363	525	7	0	0	422093	683	0	correct_rejection	NA	0
41	Single	40	364	526	7	0	0	422809	684	0	correct_rejection	NA	0
41	Single	41	365	527	5	0	0	423526	683	0	correct_rejection	NA	0
41	Single	42	366	528	8	0	0	424243	683	0	correct_rejection	NA	0
41	Single	43	367	529	4	0	0	424959	684	0	correct_rejection	NA	0
41	Single	44	368	530	5	0	0	425676	683	0	correct_rejection	NA	0
41	Single	45	369	531	6	0	0	426393	683	0	correct_rejection	NA	0
41	Single	46	370	532	8	0	0	427109	684	0	correct_rejection	NA	0
41	Single	47	371	533	6	0	0	427826	683	0	correct_rejection	NA	0
41	Single	48	372	534	6	0	0	428543	683	0	correct_rejection	NA	0
41	Single	49	373	535	0	1	1	429259	684	1	hit	502	0
41	Single	50	374	536	4	0	0	429976	683	0	correct_rejection	NA	0
41	Single	51	375	537	7	0	0	430693	683	0	correct_rejection	NA	0
41	Single	52	376	538	9	0	0	431409	684	0	correct_rejection	NA	0
41	Single	53	377	539	0	1	1	432126	683	1	hit	388	0
41	Single	54	378	540	7	0	0	432843	683	0	correct_rejection	NA	0
41	Single	55	379	541	7	0	0	433559	684	0	correct_rejection	NA	0
41	Single	56	380	542	8	0	0	434276	683	0	correct_rejection	NA	0
41	Single	57	381	543	0	1	1	434992	684	1	hit	429	0
41	Single	58	382	544	7	0	0	435709	684	0	correct_rejection	NA	0
41	Single	59	383	545	4	0	0	436426	683	0	correct_rejection	NA	0
41	Single	60	384	546	0	1	1	437142	684	1	hit	356	0
41	Single	61	385	547	9	0	0	437859	683	0	correct_rejection	NA	0
41	Single	62	386	548	8	0	0	438576	683	0	correct_rejection	NA	0
41	Single	63	387	549	9	0	0	439292	684	0	correct_rejection	NA	0
41	Single	64	388	550	5	0	0	440009	683	0	correct_rejection	NA	0
41	Single	65	389	551	5	0	0	440726	683	0	correct_rejection	NA	0
41	Single	66	390	552	7	0	0	441442	684	0	correct_rejection	NA	0
41	Single	67	391	553	5	0	0	442159	683	0	correct_rejection	NA	0
41	Single	68	392	554	9	0	0	442876	683	0	correct_rejection	NA	0
41	Single	69	393	555	6	0	0	443592	684	0	correct_rejection	NA	0
41	Single	70	394	556	9	0	0	444309	683	0	correct_rejection	NA	0
41	Single	71	395	557	9	0	0	445026	683	0	correct_rejection	NA	0
41	Single	72	396	558	4	0	0	445742	684	0	correct_rejection	NA	0
41	Single	73	397	559	6	0	0	446459	683	0	correct_rejection	NA	0
41	Single	74	398	560	7	0	0	447176	683	0	correct_rejection	NA	0
41	Single	75	399	561	6	0	0	447892	684	0	correct_rejection	NA	0
41	Single	76	400	562	5	0	0	448609	683	0	correct_rejection	NA	0
41	Single	77	401	563	0	1	1	449326	683	1	hit	514	0
41	Single	78	402	564	4	0	0	450042	684	0	correct_rejection	NA	0
41	Single	79	403	565	4	0	0	450759	683	0	correct_rejection	NA	0
41	Single	80	404	566	8	0	0	451476	683	0	correct_rejection	NA	0
41	Single	81	405	567	8	0	0	452192	684	0	correct_rejection	NA	0
41	Single	82	406	568	0	1	1	452909	683	1	hit	651	0
41	Single	83	407	569	8	0	0	453626	683	0	correct_rejection	NA	0
41	Single	84	408	570	4	0	0	454342	684	0	correct_rejection	NA	0
41	Single	85	409	571	9	0	0	455059	683	0	correct_rejection	NA	0
41	Single	86	410	572	7	0	0	455775	684	0	correct_rejection	NA	0
41	Single	87	411	573	4	0	0	456492	684	0	correct_rejection	NA	0
41	Single	88	412	574	8	0	0	457209	683	0	correct_rejection	NA	0
41	Single	89	413	575	9	0	0	457925	684	0	correct_rejection	NA	0
41	Single	90	414	576	4	0	0	458642	683	0	correct_rejection	NA	0
41	Single	91	415	577	7	0	0	459359	683	0	correct_rejection	NA	0
41	Single	92	416	578	6	0	0	460075	684	0	correct_rejection	NA	0
41	Single	93	417	579	6	0	0	460792	683	0	correct_rejection	NA	0
41	Single	94	418	580	0	1	1	461509	683	1	hit	401	0
41	Single	95	419	581	8	0	0	462225	684	0	correct_rejection	NA	0
41	Single	96	420	582	8	0	0	462942	683	0	correct_rejection	NA	0
41	Single	97	421	583	5	0	0	463659	683	0	correct_rejection	NA	0
41	Single	98	422	584	5	0	0	464375	684	0	correct_rejection	NA	0
41	Single	99	423	585	6	0	0	465092	683	0	correct_rejection	NA	0
41	Single	100	424	586	0	1	1	465809	683	1	hit	414	0
41	Single	101	425	587	7	0	0	466525	684	0	correct_rejection	NA	0
41	Single	102	426	588	9	0	0	467242	683	0	correct_rejection	NA	0
41	Single	103	427	589	6	0	0	467959	683	0	correct_rejection	NA	0
41	Single	104	428	590	4	0	0	468675	684	0	correct_rejection	NA	0
41	Single	105	429	591	4	0	0	469392	683	0	correct_rejection	NA	0
41	Single	106	430	592	6	0	0	470109	683	0	correct_rejection	NA	0
41	Single	107	431	593	9	0	0	470825	684	0	correct_rejection	NA	0
41	Single	108	432	594	5	0	0	471542	683	0	correct_rejection	NA	0
41	Single	109	433	595	4	0	0	472259	683	0	correct_rejection	NA	0
41	Single	110	434	596	5	0	0	472975	684	0	correct_rejection	NA	0
41	Single	111	435	597	9	0	0	473692	683	0	correct_rejection	NA	0
41	Single	112	436	598	9	0	0	474409	683	0	correct_rejection	NA	0
41	Single	113	437	599	8	0	0	475125	684	0	correct_rejection	NA	0
41	Single	114	438	600	7	0	0	475842	683	0	correct_rejection	NA	0
41	Single	115	439	601	8	0	0	476558	684	0	correct_rejection	NA	0
41	Single	116	440	602	6	0	0	477275	684	0	correct_rejection	NA	0
41	Single	117	441	603	5	0	0	477992	683	0	correct_rejection	NA	0
41	Single	118	442	604	7	0	0	478708	684	0	correct_rejection	NA	0
41	Single	119	443	605	7	0	0	479425	683	0	correct_rejection	NA	0
41	Single	120	444	606	5	0	0	480142	683	0	correct_rejection	NA	0
41	Single	121	445	607	8	0	0	480858	684	0	correct_rejection	NA	0
41	Single	122	446	608	7	0	0	481575	683	0	correct_rejection	NA	0
41	Single	123	447	609	9	0	0	482292	683	0	correct_rejection	NA	0
41	Single	124	448	610	0	1	1	483008	684	1	hit	486	0
41	Single	125	449	611	9	0	0	483725	683	0	correct_rejection	NA	0
41	Single	126	450	612	6	0	0	484442	683	0	correct_rejection	NA	0
41	Single	127	451	613	0	1	1	485158	684	1	hit	491	0
41	Single	128	452	614	5	0	0	485875	683	0	correct_rejection	NA	0
41	Single	129	453	615	5	0	0	486592	683	0	correct_rejection	NA	0
41	Single	130	454	616	9	0	0	487308	684	0	correct_rejection	NA	0
41	Single	131	455	617	4	0	0	488025	683	0	correct_rejection	NA	0
41	Single	132	456	618	9	0	0	488742	683	0	correct_rejection	NA	0
41	Single	133	457	619	5	0	0	489458	684	0	correct_rejection	NA	0
41	Single	134	458	620	7	0	0	490175	683	0	correct_rejection	NA	0
41	Single	135	459	621	4	0	0	490892	683	0	correct_rejection	NA	0
41	Single	136	460	622	4	0	0	491608	684	0	correct_rejection	NA	0
41	Single	137	461	623	5	0	0	492325	683	0	correct_rejection	NA	0
41	Single	138	462	624	8	0	0	493042	683	0	correct_rejection	NA	0
41	Single	139	463	625	8	0	0	493758	684	0	correct_rejection	NA	0
41	Single	140	464	626	0	1	1	494475	683	1	hit	387	0
41	Single	141	465	627	9	0	0	495192	683	0	correct_rejection	NA	0
41	Single	142	466	628	7	0	0	495908	684	0	correct_rejection	NA	0
41	Single	143	467	629	8	0	0	496625	683	0	correct_rejection	NA	0
41	Single	144	468	630	4	0	0	497341	684	0	correct_rejection	NA	0
41	Single	145	469	631	8	0	0	498058	684	0	correct_rejection	NA	0
41	Single	146	470	632	6	0	0	498775	683	0	correct_rejection	NA	0
41	Single	147	471	633	9	0	0	499491	684	0	correct_rejection	NA	0
41	Single	148	472	634	8	0	0	500208	683	0	correct_rejection	NA	0
41	Single	149	473	635	0	1	1	500925	683	1	hit	407	0
41	Single	150	474	636	5	0	0	501641	684	0	correct_rejection	NA	0
41	Single	151	475	637	4	0	0	502358	683	0	correct_rejection	NA	0
41	Single	152	476	638	0	1	1	503075	683	1	hit	364	0
41	Single	153	477	639	7	0	0	503791	684	0	correct_rejection	NA	0
41	Single	154	478	640	5	0	0	504508	683	0	correct_rejection	NA	0
41	Single	155	479	641	0	1	1	505225	683	1	hit	315	0
41	Single	156	480	642	6	0	0	505941	684	0	correct_rejection	NA	0
41	Single	157	481	643	6	0	0	506658	683	0	correct_rejection	NA	0
41	Single	158	482	644	7	0	0	507375	683	0	correct_rejection	NA	0
41	Single	159	483	645	7	0	0	508091	684	0	correct_rejection	NA	0
41	Single	160	484	646	6	0	0	508808	683	0	correct_rejection	NA	0
41	Single	161	485	647	4	0	0	509525	683	0	correct_rejection	NA	0
41	Single	162	486	648	6	0	0	510241	684	0	correct_rejection	NA	0
41	Nonet	1	487	649	7	0	0	519858	683	0	correct_rejection	NA	7626
41	Nonet	2	488	650	8	0	0	520574	684	0	correct_rejection	NA	0
41	Nonet	3	489	651	9	0	0	521291	683	0	correct_rejection	NA	0
41	Nonet	4	490	652	0	1	2	522008	683	1	hit	485	0
41	Nonet	5	491	653	7	0	0	522724	684	0	correct_rejection	NA	0
41	Nonet	6	492	654	8	0	0	523441	683	0	correct_rejection	NA	0
41	Nonet	7	493	655	9	0	0	524158	683	0	correct_rejection	NA	0
41	Nonet	8	494	656	7	0	0	524874	684	0	correct_rejection	NA	0
41	Nonet	9	495	657	8	0	0	525591	683	0	correct_rejection	NA	0
41	Nonet	10	496	658	9	0	0	526308	683	0	correct_rejection	NA	0
41	Nonet	11	497	659	7	0	0	527024	684	0	correct_rejection	NA	0
41	Nonet	12	498	660	8	0	0	527741	683	0	correct_rejection	NA	0
41	Nonet	13	499	661	0	1	1	528458	683	1	hit	426	0
41	Nonet	14	500	662	9	0	0	529174	684	0	correct_rejection	NA	0
41	Nonet	15	501	663	7	0	0	529891	683	0	correct_rejection	NA	0
41	Nonet	16	502	664	0	1	1	530608	683	1	hit	480	0
41	Nonet	17	503	665	8	0	0	531324	684	0	correct_rejection	NA	0
41	Nonet	18	504	666	9	0	0	532041	683	0	correct_rejection	NA	0
41	Nonet	19	505	667	7	0	0	532758	683	0	correct_rejection	NA	0
41	Nonet	20	506	668	8	0	0	533474	684	0	correct_rejection	NA	0
41	Nonet	21	507	669	9	0	0	534191	683	0	correct_rejection	NA	0
41	Nonet	22	508	670	9	0	0	534908	683	0	correct_rejection	NA	0
41	Nonet	23	509	671	8	0	0	535624	684	0	correct_rejection	NA	0
41	Nonet	24	510	672	7	0	0	536341	683	0	correct_rejection	NA	0
41	Nonet	25	511	673	9	0	0	537058	683	0	correct_rejection	NA	0
41	Nonet	26	512	674	8	0	0	537774	684	0	correct_rejection	NA	0
41	Nonet	27	513	675	7	0	0	538491	683	0	correct_rejection	NA	0
41	Nonet	28	514	676	9	0	0	539207	684	0	correct_rejection	NA	0
41	Nonet	29	515	677	0	1	1	539924	683	1	hit	540	0
41	Nonet	30	516	678	8	0	0	540641	683	0	correct_rejection	NA	0
41	Nonet	31	517	679	7	0	0	541357	684	0	correct_rejection	NA	0
41	Nonet	32	518	680	9	0	0	542074	683	0	correct_rejection	NA	0
41	Nonet	33	519	681	8	0	0	542791	683	0	correct_rejection	NA	0
41	Nonet	34	520	682	7	0	0	543507	684	0	correct_rejection	NA	0
41	Nonet	35	521	683	9	0	0	544224	683	0	correct_rejection	NA	0
41	Nonet	36	522	684	0	1	1	544941	683	1	hit	502	0
41	Nonet	37	523	685	8	0	0	545657	684	0	correct_rejection	NA	0
41	Nonet	38	524	686	7	0	0	546374	683	0	correct_rejection	NA	0
41	Nonet	39	525	687	9	0	0	547091	683	0	correct_rejection	NA	0
41	Nonet	40	526	688	8	0	0	547807	684	0	correct_rejection	NA	0
41	Nonet	41	527	689	7	0	0	548524	683	0	correct_rejection	NA	0
41	Nonet	42	528	690	4	0	0	549241	683	0	correct_rejection	NA	0
41	Nonet	43	529	691	5	0	0	549957	684	0	correct_rejection	NA	0
41	Nonet	44	530	692	6	0	0	550674	683	0	correct_rejection	NA	0
41	Nonet	45	531	693	4	0	0	551391	683	0	correct_rejection	NA	0
41	Nonet	46	532	694	5	0	0	552107	684	0	correct_rejection	NA	0
41	Nonet	47	533	695	0	1	1	552824	683	1	hit	438	0
41	Nonet	48	534	696	6	0	0	553541	683	0	correct_rejection	NA	0
41	Nonet	49	535	697	4	0	0	554257	684	0	correct_rejection	NA	0
41	Nonet	50	536	698	5	0	0	554974	683	0	correct_rejection	NA	0
41	Nonet	51	537	699	6	0	0	555691	683	0	correct_rejection	NA	0
41	Nonet	52	538	700	6	0	0	556407	684	0	correct_rejection	NA	0
41	Nonet	53	539	701	5	0	0	557124	683	0	correct_rejection	NA	0
41	Nonet	54	540	702	4	0	0	557841	683	0	correct_rejection	NA	0
41	Nonet	55	541	703	6	0	0	558557	684	0	correct_rejection	NA	0
41	Nonet	56	542	704	5	0	0	559274	683	0	correct_rejection	NA	0
41	Nonet	57	543	705	4	0	0	559990	684	0	correct_rejection	NA	0
41	Nonet	58	544	706	6	0	0	560707	684	0	correct_rejection	NA	0
41	Nonet	59	545	707	5	0	0	561424	683	0	correct_rejection	NA	0
41	Nonet	60	546	708	4	0	0	562140	684	0	correct_rejection	NA	0
41	Nonet	61	547	709	4	0	0	562857	683	0	correct_rejection	NA	0
41	Nonet	62	548	710	5	0	0	563574	683	0	correct_rejection	NA	0
41	Nonet	63	549	711	6	0	0	564290	684	0	correct_rejection	NA	0
41	Nonet	64	550	712	4	0	0	565007	683	0	correct_rejection	NA	0
41	Nonet	65	551	713	5	0	0	565724	683	0	correct_rejection	NA	0
41	Nonet	66	552	714	6	0	0	566440	684	0	correct_rejection	NA	0
41	Nonet	67	553	715	0	1	2	567157	683	1	hit	420	0
41	Nonet	68	554	716	4	0	0	567874	683	0	correct_rejection	NA	0
41	Nonet	69	555	717	5	0	0	568590	684	0	correct_rejection	NA	0
41	Nonet	70	556	718	6	0	0	569307	683	0	correct_rejection	NA	0
41	Nonet	71	557	719	7	0	0	570024	683	0	correct_rejection	NA	0
41	Nonet	72	558	720	8	0	0	570740	684	0	correct_rejection	NA	0
41	Nonet	73	559	721	9	0	0	571457	683	0	correct_rejection	NA	0
41	Nonet	74	560	722	7	0	0	572174	683	0	correct_rejection	NA	0
41	Nonet	75	561	723	8	0	0	572890	684	0	correct_rejection	NA	0
41	Nonet	76	562	724	9	0	0	573607	683	0	correct_rejection	NA	0
41	Nonet	77	563	725	7	0	0	574324	683	0	correct_rejection	NA	0
41	Nonet	78	564	726	8	0	0	575040	684	0	correct_rejection	NA	0
41	Nonet	79	565	727	9	0	0	575757	683	0	correct_rejection	NA	0
41	Nonet	80	566	728	6	0	0	576474	683	0	correct_rejection	NA	0
41	Nonet	81	567	729	5	0	0	577190	684	0	correct_rejection	NA	0
41	Nonet	82	568	730	0	1	1	577907	683	0	miss	NA	0
41	Nonet	83	569	731	4	0	0	578624	683	1	false_alarm	105	0
41	Nonet	84	570	732	6	0	0	579340	684	0	correct_rejection	NA	0
41	Nonet	85	571	733	5	0	0	580057	683	0	correct_rejection	NA	0
41	Nonet	86	572	734	4	0	0	580773	684	0	correct_rejection	NA	0
41	Nonet	87	573	735	0	1	2	581490	683	1	hit	414	0
41	Nonet	88	574	736	6	0	0	582207	683	0	correct_rejection	NA	0
41	Nonet	89	575	737	5	0	0	582923	684	0	correct_rejection	NA	0
41	Nonet	90	576	738	4	0	0	583640	683	0	correct_rejection	NA	0
41	Nonet	91	577	739	9	0	0	584357	683	0	correct_rejection	NA	0
41	Nonet	92	578	740	8	0	0	585073	684	0	correct_rejection	NA	0
41	Nonet	93	579	741	7	0	0	585790	683	0	correct_rejection	NA	0
41	Nonet	94	580	742	9	0	0	586507	683	0	correct_rejection	NA	0
41	Nonet	95	581	743	8	0	0	587223	684	0	correct_rejection	NA	0
41	Nonet	96	582	744	7	0	0	587940	683	0	correct_rejection	NA	0
41	Nonet	97	583	745	0	1	2	588657	683	1	hit	391	0
41	Nonet	98	584	746	9	0	0	589373	684	0	correct_rejection	NA	0
41	Nonet	99	585	747	8	0	0	590090	683	0	correct_rejection	NA	0
41	Nonet	100	586	748	7	0	0	590807	683	0	correct_rejection	NA	0
41	Nonet	101	587	749	6	0	0	591523	684	0	correct_rejection	NA	0
41	Nonet	102	588	750	5	0	0	592240	683	0	correct_rejection	NA	0
41	Nonet	103	589	751	0	1	1	592957	683	1	hit	430	0
41	Nonet	104	590	752	4	0	0	593673	684	0	correct_rejection	NA	0
41	Nonet	105	591	753	6	0	0	594390	683	0	correct_rejection	NA	0
41	Nonet	106	592	754	5	0	0	595107	683	0	correct_rejection	NA	0
41	Nonet	107	593	755	4	0	0	595823	684	0	correct_rejection	NA	0
41	Nonet	108	594	756	6	0	0	596540	683	0	correct_rejection	NA	0
41	Nonet	109	595	757	5	0	0	597257	683	0	correct_rejection	NA	0
41	Nonet	110	596	758	4	0	0	597973	684	0	correct_rejection	NA	0
41	Nonet	111	597	759	6	0	0	598690	683	0	correct_rejection	NA	0
41	Nonet	112	598	760	5	0	0	599407	683	0	correct_rejection	NA	0
41	Nonet	113	599	761	4	0	0	600123	684	0	correct_rejection	NA	0
41	Nonet	114	600	762	6	0	0	600840	683	0	correct_rejection	NA	0
41	Nonet	115	601	763	5	0	0	601556	684	0	correct_rejection	NA	0
41	Nonet	116	602	764	4	0	0	602273	683	0	correct_rejection	NA	0
41	Nonet	117	603	765	6	0	0	602990	683	0	correct_rejection	NA	0
41	Nonet	118	604	766	0	1	1	603706	684	0	miss	NA	0
41	Nonet	119	605	767	5	0	0	604423	683	1	false_alarm	125	0
41	Nonet	120	606	768	4	0	0	605140	683	0	correct_rejection	NA	0
41	Nonet	121	607	769	7	0	0	605856	684	0	correct_rejection	NA	0
41	Nonet	122	608	770	8	0	0	606573	683	0	correct_rejection	NA	0
41	Nonet	123	609	771	0	1	1	607290	683	1	hit	374	0
41	Nonet	124	610	772	9	0	0	608006	684	0	correct_rejection	NA	0
41	Nonet	125	611	773	7	0	0	608723	683	0	correct_rejection	NA	0
41	Nonet	126	612	774	0	1	1	609440	683	1	hit	365	0
41	Nonet	127	613	775	8	0	0	610156	684	0	correct_rejection	NA	0
41	Nonet	128	614	776	9	0	0	610873	683	0	correct_rejection	NA	0
41	Nonet	129	615	777	0	1	2	611590	683	1	hit	340	0
41	Nonet	130	616	778	7	0	0	612306	684	0	correct_rejection	NA	0
41	Nonet	131	617	779	8	0	0	613023	683	0	correct_rejection	NA	0
41	Nonet	132	618	780	9	0	0	613740	683	0	correct_rejection	NA	0
41	Nonet	133	619	781	4	0	0	614456	684	0	correct_rejection	NA	0
41	Nonet	134	620	782	5	0	0	615173	683	0	correct_rejection	NA	0
41	Nonet	135	621	783	6	0	0	615890	683	0	correct_rejection	NA	0
41	Nonet	136	622	784	4	0	0	616606	684	0	correct_rejection	NA	0
41	Nonet	137	623	785	5	0	0	617323	683	0	correct_rejection	NA	0
41	Nonet	138	624	786	6	0	0	618040	683	0	correct_rejection	NA	0
41	Nonet	139	625	787	4	0	0	618756	684	0	correct_rejection	NA	0
41	Nonet	140	626	788	5	0	0	619473	683	0	correct_rejection	NA	0
41	Nonet	141	627	789	6	0	0	620190	683	0	correct_rejection	NA	0
41	Nonet	142	628	790	4	0	0	620906	684	0	correct_rejection	NA	0
41	Nonet	143	629	791	5	0	0	621623	683	0	correct_rejection	NA	0
41	Nonet	144	630	792	6	0	0	622339	684	0	correct_rejection	NA	0
41	Nonet	145	631	793	4	0	0	623056	683	0	correct_rejection	NA	0
41	Nonet	146	632	794	0	1	1	623773	683	1	hit	369	0
41	Nonet	147	633	795	5	0	0	624489	684	0	correct_rejection	NA	0
41	Nonet	148	634	796	6	0	0	625206	683	0	correct_rejection	NA	0
41	Nonet	149	635	797	0	1	2	625923	683	1	hit	499	0
41	Nonet	150	636	798	4	0	0	626639	684	0	correct_rejection	NA	0
41	Nonet	151	637	799	5	0	0	627356	683	0	correct_rejection	NA	0
41	Nonet	152	638	800	6	0	0	628073	683	0	correct_rejection	NA	0
41	Nonet	153	639	801	9	0	0	628789	684	0	correct_rejection	NA	0
41	Nonet	154	640	802	8	0	0	629506	683	0	correct_rejection	NA	0
41	Nonet	155	641	803	7	0	0	630223	683	0	correct_rejection	NA	0
41	Nonet	156	642	804	9	0	0	630939	684	0	correct_rejection	NA	0
41	Nonet	157	643	805	8	0	0	631656	683	0	correct_rejection	NA	0
41	Nonet	158	644	806	7	0	0	632373	683	0	correct_rejection	NA	0
41	Nonet	159	645	807	9	0	0	633089	684	0	correct_rejection	NA	0
41	Nonet	160	646	808	8	0	0	633806	683	0	correct_rejection	NA	0
41	Nonet	161	647	809	0	1	1	634523	683	1	hit	569	0
41	Nonet	162	648	810	7	0	0	635239	684	0	correct_rejection	NA	0
trigger nr 627 at 637165
trigger nr 631 at 712693
41	Triplet	1	163	811	6	0	0	720671	684	0	correct_rejection	NA	7907
41	Triplet	2	164	812	5	0	0	721388	683	0	correct_rejection	NA	0
41	Triplet	3	165	813	4	0	0	722105	683	0	correct_rejection	NA	0
41	Triplet	4	166	814	0	1	2	722821	684	1	hit	314	0
41	Triplet	5	167	815	6	0	0	723538	683	0	correct_rejection	NA	0
41	Triplet	6	168	816	5	0	0	724255	683	0	correct_rejection	NA	0
41	Triplet	7	169	817	0	1	1	724971	684	1	hit	396	0
41	Triplet	8	170	818	4	0	0	725688	683	0	correct_rejection	NA	0
41	Triplet	9	171	819	4	0	0	726404	684	0	correct_rejection	NA	0
41	Triplet	10	172	820	5	0	0	727121	683	0	correct_rejection	NA	0
41	Triplet	11	173	821	0	1	1	727838	683	1	hit	386	0
41	Triplet	12	174	822	6	0	0	728554	684	0	correct_rejection	NA	0
41	Triplet	13	175	823	9	0	0	729271	683	0	correct_rejection	NA	0
41	Triplet	14	176	824	8	0	0	729988	683	0	correct_rejection	NA	0
41	Triplet	15	177	825	7	0	0	730704	684	0	correct_rejection	NA	0
41	Triplet	16	178	826	6	0	0	731421	683	0	correct_rejection	NA	0
41	Triplet	17	179	827	0	1	1	732138	683	1	hit	415	0
41	Triplet	18	180	828	5	0	0	732854	684	0	correct_rejection	NA	0
41	Triplet	19	181	829	4	0	0	733571	683	0	correct_rejection	NA	0
41	Triplet	20	182	830	9	0	0	734288	683	0	correct_rejection	NA	0
41	Triplet	21	183	831	8	0	0	735004	684	0	correct_rejection	NA	0
41	Triplet	22	184	832	7	0	0	735721	683	0	correct_rejection	NA	0
41	Triplet	23	185	833	0	1	2	736438	683	1	hit	376	0
41	Triplet	24	186	834	7	0	0	737154	684	0	correct_rejection	NA	0
41	Triplet	25	187	835	8	0	0	737871	683	0	correct_rejection	NA	0
41	Triplet	26	188	836	9	0	0	738588	683	0	correct_rejection	NA	0
41	Triplet	27	189	837	6	0	0	739304	684	0	correct_rejection	NA	0
41	Triplet	28	190	838	5	0	0	740021	683	0	correct_rejection	NA	0
41	Triplet	29	191	839	0	1	1	740738	683	1	hit	379	0
41	Triplet	30	192	840	4	0	0	741454	684	0	correct_rejection	NA	0
41	Triplet	31	193	841	7	0	0	742171	683	0	correct_rejection	NA	0
41	Triplet	32	194	842	8	0	0	742888	683	0	correct_rejection	NA	0
41	Triplet	33	195	843	9	0	0	743604	684	0	correct_rejection	NA	0
41	Triplet	34	196	844	7	0	0	744321	683	0	correct_rejection	NA	0
41	Triplet	35	197	845	8	0	0	745038	683	0	correct_rejection	NA	0
41	Triplet	36	198	846	9	0	0	745754	684	0	correct_rejection	NA	0
41	Triplet	37	199	847	9	0	0	746471	683	0	correct_rejection	NA	0
41	Triplet	38	200	848	8	0	0	747187	684	0	correct_rejection	NA	0
41	Triplet	39	201	849	7	0	0	747904	683	0	correct_rejection	NA	0
41	Triplet	40	202	850	9	0	0	748621	683	0	correct_rejection	NA	0
41	Triplet	41	203	851	8	0	0	749337	684	0	correct_rejection	NA	0
41	Triplet	42	204	852	0	1	1	750054	683	1	hit	486	0
41	Triplet	43	205	853	7	0	0	750771	683	0	correct_rejection	NA	0
41	Triplet	44	206	854	4	0	0	751487	684	0	correct_rejection	NA	0
41	Triplet	45	207	855	5	0	0	752204	683	0	correct_rejection	NA	0
41	Triplet	46	208	856	6	0	0	752921	683	0	correct_rejection	NA	0
41	Triplet	47	209	857	4	0	0	753637	684	0	correct_rejection	NA	0
41	Triplet	48	210	858	5	0	0	754354	683	0	correct_rejection	NA	0
41	Triplet	49	211	859	6	0	0	755071	683	0	correct_rejection	NA	0
41	Triplet	50	212	860	7	0	0	755787	684	0	correct_rejection	NA	0
41	Triplet	51	213	861	8	0	0	756504	683	0	correct_rejection	NA	0
41	Triplet	52	214	862	9	0	0	757221	683	0	correct_rejection	NA	0
41	Triplet	53	215	863	4	0	0	757937	684	0	correct_rejection	NA	0
41	Triplet	54	216	864	5	0	0	758654	683	0	correct_rejection	NA	0
41	Triplet	55	217	865	6	0	0	759371	683	0	correct_rejection	NA	0
41	Triplet	56	218	866	7	0	0	760087	684	0	correct_rejection	NA	0
41	Triplet	57	219	867	0	1	1	760804	683	1	hit	458	0
41	Triplet	58	220	868	8	0	0	761521	683	0	correct_rejection	NA	0
41	Triplet	59	221	869	9	0	0	762237	684	0	correct_rejection	NA	0
41	Triplet	60	222	870	0	1	2	762954	683	1	hit	510	0
41	Triplet	61	223	871	6	0	0	763671	683	0	correct_rejection	NA	0
41	Triplet	62	224	872	5	0	0	764387	684	0	correct_rejection	NA	0
41	Triplet	63	225	873	4	0	0	765104	683	0	correct_rejection	NA	0
41	Triplet	64	226	874	6	0	0	765821	683	0	correct_rejection	NA	0
41	Triplet	65	227	875	5	0	0	766537	684	0	correct_rejection	NA	0
41	Triplet	66	228	876	4	0	0	767254	683	0	correct_rejection	NA	0
41	Triplet	67	229	877	9	0	0	767970	684	0	correct_rejection	NA	0
41	Triplet	68	230	878	8	0	0	768687	684	0	correct_rejection	NA	0
41	Triplet	69	231	879	7	0	0	769404	683	0	correct_rejection	NA	0
41	Triplet	70	232	880	4	0	0	770120	684	0	correct_rejection	NA	0
41	Triplet	71	233	881	0	1	1	770837	683	1	hit	435	0
41	Triplet	72	234	882	5	0	0	771554	683	0	correct_rejection	NA	0
41	Triplet	73	235	883	6	0	0	772270	684	0	correct_rejection	NA	0
41	Triplet	74	236	884	7	0	0	772987	683	0	correct_rejection	NA	0
41	Triplet	75	237	885	8	0	0	773704	683	0	correct_rejection	NA	0
41	Triplet	76	238	886	9	0	0	774420	684	0	correct_rejection	NA	0
41	Triplet	77	239	887	7	0	0	775137	683	0	correct_rejection	NA	0
41	Triplet	78	240	888	8	0	0	775854	683	0	correct_rejection	NA	0
41	Triplet	79	241	889	9	0	0	776570	684	0	correct_rejection	NA	0
41	Triplet	80	242	890	4	0	0	777287	683	0	correct_rejection	NA	0
41	Triplet	81	243	891	5	0	0	778004	683	0	correct_rejection	NA	0
41	Triplet	82	244	892	6	0	0	778720	684	0	correct_rejection	NA	0
41	Triplet	83	245	893	6	0	0	779437	683	0	correct_rejection	NA	0
41	Triplet	84	246	894	5	0	0	780154	683	0	correct_rejection	NA	0
41	Triplet	85	247	895	4	0	0	780870	684	0	correct_rejection	NA	0
41	Triplet	86	248	896	7	0	0	781587	683	0	correct_rejection	NA	0
41	Triplet	87	249	897	8	0	0	782304	683	0	correct_rejection	NA	0
41	Triplet	88	250	898	9	0	0	783020	684	0	correct_rejection	NA	0
41	Triplet	89	251	899	9	0	0	783737	683	0	correct_rejection	NA	0
41	Triplet	90	252	900	8	0	0	784454	683	0	correct_rejection	NA	0
41	Triplet	91	253	901	7	0	0	785170	684	0	correct_rejection	NA	0
41	Triplet	92	254	902	6	0	0	785887	683	0	correct_rejection	NA	0
41	Triplet	93	255	903	5	0	0	786604	683	0	correct_rejection	NA	0
41	Triplet	94	256	904	4	0	0	787320	684	0	correct_rejection	NA	0
41	Triplet	95	257	905	4	0	0	788037	683	0	correct_rejection	NA	0
41	Triplet	96	258	906	5	0	0	788753	684	0	correct_rejection	NA	0
41	Triplet	97	259	907	6	0	0	789470	683	0	correct_rejection	NA	0
41	Triplet	98	260	908	4	0	0	790187	683	0	correct_rejection	NA	0
41	Triplet	99	261	909	5	0	0	790903	684	0	correct_rejection	NA	0
41	Triplet	100	262	910	6	0	0	791620	683	0	correct_rejection	NA	0
41	Triplet	101	263	911	9	0	0	792337	683	0	correct_rejection	NA	0
41	Triplet	102	264	912	8	0	0	793053	684	0	correct_rejection	NA	0
41	Triplet	103	265	913	7	0	0	793770	683	0	correct_rejection	NA	0
41	Triplet	104	266	914	0	1	2	794487	683	1	hit	418	0
41	Triplet	105	267	915	9	0	0	795203	684	0	correct_rejection	NA	0
41	Triplet	106	268	916	8	0	0	795920	683	0	correct_rejection	NA	0
41	Triplet	107	269	917	7	0	0	796637	683	0	correct_rejection	NA	0
41	Triplet	108	270	918	4	0	0	797353	684	0	correct_rejection	NA	0
41	Triplet	109	271	919	5	0	0	798070	683	0	correct_rejection	NA	0
41	Triplet	110	272	920	6	0	0	798787	683	0	correct_rejection	NA	0
41	Triplet	111	273	921	4	0	0	799503	684	0	correct_rejection	NA	0
41	Triplet	112	274	922	5	0	0	800220	683	0	correct_rejection	NA	0
41	Triplet	113	275	923	6	0	0	800937	683	0	correct_rejection	NA	0
41	Triplet	114	276	924	6	0	0	801653	684	0	correct_rejection	NA	0
41	Triplet	115	277	925	0	1	1	802370	683	1	hit	384	0
41	Triplet	116	278	926	5	0	0	803087	683	0	correct_rejection	NA	0
41	Triplet	117	279	927	4	0	0	803803	684	0	correct_rejection	NA	0
41	Triplet	118	280	928	9	0	0	804520	683	0	correct_rejection	NA	0
41	Triplet	119	281	929	8	0	0	805237	683	0	correct_rejection	NA	0
41	Triplet	120	282	930	0	1	1	805953	684	1	hit	520	0
41	Triplet	121	283	931	7	0	0	806670	683	0	correct_rejection	NA	0
41	Triplet	122	284	932	9	0	0	807387	683	0	correct_rejection	NA	0
41	Triplet	123	285	933	0	1	1	808103	684	1	hit	368	0
41	Triplet	124	286	934	8	0	0	808820	683	0	correct_rejection	NA	0
41	Triplet	125	287	935	7	0	0	809536	684	0	correct_rejection	NA	0
41	Triplet	126	288	936	6	0	0	810253	683	0	correct_rejection	NA	0
41	Triplet	127	289	937	5	0	0	810970	683	0	correct_rejection	NA	0
41	Triplet	128	290	938	4	0	0	811686	684	0	correct_rejection	NA	0
41	Triplet	129	291	939	6	0	0	812403	683	0	correct_rejection	NA	0
41	Triplet	130	292	940	5	0	0	813120	683	0	correct_rejection	NA	0
41	Triplet	131	293	941	4	0	0	813836	684	0	correct_rejection	NA	0
41	Triplet	132	294	942	7	0	0	814553	683	0	correct_rejection	NA	0
41	Triplet	133	295	943	0	1	1	815270	683	1	hit	390	0
41	Triplet	134	296	944	8	0	0	815986	684	0	correct_rejection	NA	0
41	Triplet	135	297	945	9	0	0	816703	683	0	correct_rejection	NA	0
41	Triplet	136	298	946	4	0	0	817420	683	0	correct_rejection	NA	0
41	Triplet	137	299	947	5	0	0	818136	684	0	correct_rejection	NA	0
41	Triplet	138	300	948	6	0	0	818853	683	0	correct_rejection	NA	0
41	Triplet	139	301	949	7	0	0	819570	683	0	correct_rejection	NA	0
41	Triplet	140	302	950	8	0	0	820286	684	0	correct_rejection	NA	0
41	Triplet	141	303	951	0	1	1	821003	683	1	hit	393	0
41	Triplet	142	304	952	9	0	0	821720	683	0	correct_rejection	NA	0
41	Triplet	143	305	953	9	0	0	822436	684	0	correct_rejection	NA	0
41	Triplet	144	306	954	8	0	0	823153	683	0	correct_rejection	NA	0
41	Triplet	145	307	955	7	0	0	823870	683	0	correct_rejection	NA	0
41	Triplet	146	308	956	4	0	0	824586	684	0	correct_rejection	NA	0
41	Triplet	147	309	957	5	0	0	825303	683	0	correct_rejection	NA	0
41	Triplet	148	310	958	6	0	0	826020	683	0	correct_rejection	NA	0
41	Triplet	149	311	959	9	0	0	826736	684	0	correct_rejection	NA	0
41	Triplet	150	312	960	0	1	1	827453	683	1	hit	463	0
41	Triplet	151	313	961	8	0	0	828170	683	0	correct_rejection	NA	0
41	Triplet	152	314	962	7	0	0	828886	684	0	correct_rejection	NA	0
41	Triplet	153	315	963	7	0	0	829603	683	0	correct_rejection	NA	0
41	Triplet	154	316	964	8	0	0	830319	684	0	correct_rejection	NA	0
41	Triplet	155	317	965	9	0	0	831036	683	0	correct_rejection	NA	0
41	Triplet	156	318	966	7	0	0	831753	683	0	correct_rejection	NA	0
41	Triplet	157	319	967	0	1	1	832469	684	1	hit	442	0
41	Triplet	158	320	968	8	0	0	833186	683	0	correct_rejection	NA	0
41	Triplet	159	321	969	9	0	0	833903	683	0	correct_rejection	NA	0
41	Triplet	160	322	970	6	0	0	834619	684	0	correct_rejection	NA	0
41	Triplet	161	323	971	5	0	0	835336	683	0	correct_rejection	NA	0
41	Triplet	162	324	972	4	0	0	836053	683	0	correct_rejection	NA	0
41	Correct	1	487	973	4	0	0	846486	683	0	correct_rejection	NA	7717
41	Correct	2	488	974	5	0	0	847203	683	0	correct_rejection	NA	0
41	Correct	3	489	975	6	0	0	847919	684	0	correct_rejection	NA	0
41	Correct	4	490	976	4	0	0	848636	683	0	correct_rejection	NA	0
41	Correct	5	491	977	0	1	1	849353	683	1	hit	409	0
41	Correct	6	492	978	5	0	0	850069	684	0	correct_rejection	NA	0
41	Correct	7	493	979	6	0	0	850786	683	0	correct_rejection	NA	0
41	Correct	8	494	980	0	1	2	851502	684	1	hit	504	0
41	Correct	9	495	981	4	0	0	852219	683	0	correct_rejection	NA	0
41	Correct	10	496	982	5	0	0	852936	683	0	correct_rejection	NA	0
41	Correct	11	497	983	6	0	0	853652	684	0	correct_rejection	NA	0
41	Correct	12	498	984	6	0	0	854369	683	0	correct_rejection	NA	0
41	Correct	13	499	985	5	0	0	855086	683	0	correct_rejection	NA	0
41	Correct	14	500	986	4	0	0	855802	684	0	correct_rejection	NA	0
41	Correct	15	501	987	0	1	2	856519	683	1	hit	409	0
41	Correct	16	502	988	6	0	0	857236	683	0	correct_rejection	NA	0
41	Correct	17	503	989	5	0	0	857952	684	0	correct_rejection	NA	0
41	Correct	18	504	990	4	0	0	858669	683	0	correct_rejection	NA	0
41	Correct	19	505	991	6	0	0	859386	683	0	correct_rejection	NA	0
41	Correct	20	506	992	0	1	1	860102	684	1	hit	406	0
41	Correct	21	507	993	5	0	0	860819	683	0	correct_rejection	NA	0
41	Correct	22	508	994	4	0	0	861536	683	0	correct_rejection	NA	0
41	Correct	23	509	995	9	0	0	862252	684	0	correct_rejection	NA	0
41	Correct	24	510	996	8	0	0	862969	683	0	correct_rejection	NA	0
41	Correct	25	511	997	7	0	0	863686	683	0	correct_rejection	NA	0
41	Correct	26	512	998	9	0	0	864402	684	0	correct_rejection	NA	0
41	Correct	27	513	999	0	1	1	865119	683	1	hit	369	0
41	Correct	28	514	1000	8	0	0	865836	683	0	correct_rejection	NA	0
41	Correct	29	515	1001	7	0	0	866552	684	0	correct_rejection	NA	0
41	Correct	30	516	1002	9	0	0	867269	683	0	correct_rejection	NA	0
41	Correct	31	517	1003	8	0	0	867986	683	0	correct_rejection	NA	0
41	Correct	32	518	1004	0	1	1	868702	684	1	hit	401	0
41	Correct	33	519	1005	7	0	0	869419	683	0	correct_rejection	NA	0
41	Correct	34	520	1006	7	0	0	870136	683	0	correct_rejection	NA	0
41	Correct	35	521	1007	8	0	0	870852	684	0	correct_rejection	NA	0
41	Correct	36	522	1008	9	0	0	871569	683	0	correct_rejection	NA	0
41	Correct	37	523	1009	7	0	0	872285	684	0	correct_rejection	NA	0
41	Correct	38	524	1010	8	0	0	873002	683	0	correct_rejection	NA	0
41	Correct	39	525	1011	9	0	0	873719	683	0	correct_rejection	NA	0
41	Correct	40	526	1012	7	0	0	874435	684	0	correct_rejection	NA	0
41	Correct	41	527	1013	8	0	0	875152	683	0	correct_rejection	NA	0
41	Correct	42	528	1014	9	0	0	875869	683	0	correct_rejection	NA	0
41	Correct	43	529	1015	4	0	0	876585	684	0	correct_rejection	NA	0
41	Correct	44	530	1016	5	0	0	877302	683	0	correct_rejection	NA	0
41	Correct	45	531	1017	6	0	0	878019	683	0	correct_rejection	NA	0
41	Correct	46	532	1018	4	0	0	878735	684	0	correct_rejection	NA	0
41	Correct	47	533	1019	5	0	0	879452	683	0	correct_rejection	NA	0
41	Correct	48	534	1020	6	0	0	880169	683	0	correct_rejection	NA	0
41	Correct	49	535	1021	4	0	0	880885	684	0	correct_rejection	NA	0
41	Correct	50	536	1022	5	0	0	881602	683	0	correct_rejection	NA	0
41	Correct	51	537	1023	0	1	1	882319	683	1	hit	365	0
41	Correct	52	538	1024	6	0	0	883035	684	0	correct_rejection	NA	0
41	Correct	53	539	1025	6	0	0	883752	683	0	correct_rejection	NA	0
41	Correct	54	540	1026	5	0	0	884469	683	0	correct_rejection	NA	0
41	Correct	55	541	1027	4	0	0	885185	684	0	correct_rejection	NA	0
41	Correct	56	542	1028	6	0	0	885902	683	0	correct_rejection	NA	0
41	Correct	57	543	1029	5	0	0	886619	683	0	correct_rejection	NA	0
41	Correct	58	544	1030	4	0	0	887335	684	0	correct_rejection	NA	0
41	Correct	59	545	1031	0	1	2	888052	683	1	hit	546	0
41	Correct	60	546	1032	6	0	0	888769	683	0	correct_rejection	NA	0
41	Correct	61	547	1033	5	0	0	889485	684	0	correct_rejection	NA	0
41	Correct	62	548	1034	0	1	1	890202	683	1	hit	400	0
41	Correct	63	549	1035	4	0	0	890919	683	0	correct_rejection	NA	0
41	Correct	64	550	1036	9	0	0	891635	684	0	correct_rejection	NA	0
41	Correct	65	551	1037	0	1	1	892352	683	1	hit	354	0
41	Correct	66	552	1038	8	0	0	893068	684	0	correct_rejection	NA	0
41	Correct	67	553	1039	7	0	0	893785	683	0	correct_rejection	NA	0
41	Correct	68	554	1040	9	0	0	894502	683	0	correct_rejection	NA	0
41	Correct	69	555	1041	8	0	0	895218	684	0	correct_rejection	NA	0
41	Correct	70	556	1042	0	1	1	895935	683	1	hit	388	0
41	Correct	71	557	1043	7	0	0	896652	683	0	correct_rejection	NA	0
41	Correct	72	558	1044	9	0	0	897368	684	0	correct_rejection	NA	0
41	Correct	73	559	1045	8	0	0	898085	683	0	correct_rejection	NA	0
41	Correct	74	560	1046	7	0	0	898802	683	0	correct_rejection	NA	0
41	Correct	75	561	1047	7	0	0	899518	684	0	correct_rejection	NA	0
41	Correct	76	562	1048	8	0	0	900235	683	0	correct_rejection	NA	0
41	Correct	77	563	1049	9	0	0	900952	683	0	correct_rejection	NA	0
41	Correct	78	564	1050	7	0	0	901668	684	0	correct_rejection	NA	0
41	Correct	79	565	1051	8	0	0	902385	683	0	correct_rejection	NA	0
41	Correct	80	566	1052	9	0	0	903102	683	0	correct_rejection	NA	0
41	Correct	81	567	1053	7	0	0	903818	684	0	correct_rejection	NA	0
41	Correct	82	568	1054	8	0	0	904535	683	0	correct_rejection	NA	0
41	Correct	83	569	1055	9	0	0	905252	683	0	correct_rejection	NA	0
41	Correct	84	570	1056	4	0	0	905968	684	0	correct_rejection	NA	0
41	Correct	85	571	1057	5	0	0	906685	683	0	correct_rejection	NA	0
41	Correct	86	572	1058	6	0	0	907402	683	0	correct_rejection	NA	0
41	Correct	87	573	1059	4	0	0	908118	684	0	correct_rejection	NA	0
41	Correct	88	574	1060	5	0	0	908835	683	0	correct_rejection	NA	0
41	Correct	89	575	1061	0	1	1	909552	683	1	hit	371	0
41	Correct	90	576	1062	6	0	0	910268	684	0	correct_rejection	NA	0
41	Correct	91	577	1063	4	0	0	910985	683	0	correct_rejection	NA	0
41	Correct	92	578	1064	5	0	0	911702	683	0	correct_rejection	NA	0
41	Correct	93	579	1065	6	0	0	912418	684	0	correct_rejection	NA	0
41	Correct	94	580	1066	6	0	0	913135	683	0	correct_rejection	NA	0
41	Correct	95	581	1067	0	1	1	913851	684	1	hit	614	0
41	Correct	96	582	1068	5	0	0	914568	683	0	correct_rejection	NA	0
41	Correct	97	583	1069	4	0	0	915285	683	0	correct_rejection	NA	0
41	Correct	98	584	1070	6	0	0	916001	684	0	correct_rejection	NA	0
41	Correct	99	585	1071	5	0	0	916718	683	0	correct_rejection	NA	0
41	Correct	100	586	1072	4	0	0	917435	683	0	correct_rejection	NA	0
41	Correct	101	587	1073	6	0	0	918151	684	0	correct_rejection	NA	0
41	Correct	102	588	1074	5	0	0	918868	683	0	correct_rejection	NA	0
41	Correct	103	589	1075	4	0	0	919585	683	0	correct_rejection	NA	0
41	Correct	104	590	1076	9	0	0	920301	684	0	correct_rejection	NA	0
41	Correct	105	591	1077	8	0	0	921018	683	0	correct_rejection	NA	0
41	Correct	106	592	1078	7	0	0	921735	683	0	correct_rejection	NA	0
41	Correct	107	593	1079	9	0	0	922451	684	0	correct_rejection	NA	0
41	Correct	108	594	1080	8	0	0	923168	683	0	correct_rejection	NA	0
41	Correct	109	595	1081	7	0	0	923885	683	0	correct_rejection	NA	0
41	Correct	110	596	1082	9	0	0	924601	684	0	correct_rejection	NA	0
41	Correct	111	597	1083	8	0	0	925318	683	0	correct_rejection	NA	0
41	Correct	112	598	1084	7	0	0	926035	683	0	correct_rejection	NA	0
41	Correct	113	599	1085	7	0	0	926751	684	0	correct_rejection	NA	0
41	Correct	114	600	1086	8	0	0	927468	683	0	correct_rejection	NA	0
41	Correct	115	601	1087	0	1	1	928185	683	1	hit	482	0
41	Correct	116	602	1088	9	0	0	928901	684	0	correct_rejection	NA	0
41	Correct	117	603	1089	7	0	0	929618	683	0	correct_rejection	NA	0
41	Correct	118	604	1090	8	0	0	930335	683	0	correct_rejection	NA	0
41	Correct	119	605	1091	9	0	0	931051	684	0	correct_rejection	NA	0
41	Correct	120	606	1092	7	0	0	931768	683	0	correct_rejection	NA	0
41	Correct	121	607	1093	8	0	0	932485	683	0	correct_rejection	NA	0
41	Correct	122	608	1094	9	0	0	933201	684	0	correct_rejection	NA	0
41	Correct	123	609	1095	0	1	4	933918	683	1	hit	392	0
41	Correct	124	610	1096	4	0	0	934634	684	0	correct_rejection	NA	0
41	Correct	125	611	1097	5	0	0	935351	683	0	correct_rejection	NA	0
41	Correct	126	612	1098	6	0	0	936068	683	0	correct_rejection	NA	0
41	Correct	127	613	1099	4	0	0	936784	684	0	correct_rejection	NA	0
41	Correct	128	614	1100	5	0	0	937501	683	0	correct_rejection	NA	0
41	Correct	129	615	1101	6	0	0	938218	683	0	correct_rejection	NA	0
41	Correct	130	616	1102	0	1	2	938934	684	1	hit	403	0
41	Correct	131	617	1103	4	0	0	939651	683	0	correct_rejection	NA	0
41	Correct	132	618	1104	5	0	0	940368	683	0	correct_rejection	NA	0
41	Correct	133	619	1105	6	0	0	941084	684	0	correct_rejection	NA	0
41	Correct	134	620	1106	6	0	0	941801	683	0	correct_rejection	NA	0
41	Correct	135	621	1107	5	0	0	942518	683	0	correct_rejection	NA	0
41	Correct	136	622	1108	4	0	0	943234	684	0	correct_rejection	NA	0
41	Correct	137	623	1109	6	0	0	943951	683	0	correct_rejection	NA	0
41	Correct	138	624	1110	5	0	0	944668	683	0	correct_rejection	NA	0
41	Correct	139	625	1111	0	1	1	945384	684	1	hit	353	0
41	Correct	140	626	1112	4	0	0	946101	683	0	correct_rejection	NA	0
41	Correct	141	627	1113	6	0	0	946818	683	0	correct_rejection	NA	0
41	Correct	142	628	1114	5	0	0	947534	684	0	correct_rejection	NA	0
41	Correct	143	629	1115	4	0	0	948251	683	0	correct_rejection	NA	0
41	Correct	144	630	1116	0	1	3	948968	683	1	hit	384	0
41	Correct	145	631	1117	9	0	0	949684	684	0	correct_rejection	NA	0
41	Correct	146	632	1118	8	0	0	950401	683	0	correct_rejection	NA	0
41	Correct	147	633	1119	7	0	0	951118	683	0	correct_rejection	NA	0
41	Correct	148	634	1120	9	0	0	951834	684	0	correct_rejection	NA	0
41	Correct	149	635	1121	8	0	0	952551	683	0	correct_rejection	NA	0
41	Correct	150	636	1122	7	0	0	953268	683	0	correct_rejection	NA	0
41	Correct	151	637	1123	9	0	0	953984	684	0	correct_rejection	NA	0
41	Correct	152	638	1124	8	0	0	954701	683	1	false_alarm	593	0
41	Correct	153	639	1125	7	0	0	955417	684	0	correct_rejection	NA	0
41	Correct	154	640	1126	7	0	0	956134	683	0	correct_rejection	NA	0
41	Correct	155	641	1127	8	0	0	956851	683	0	correct_rejection	NA	0
41	Correct	156	642	1128	9	0	0	957567	684	0	correct_rejection	NA	0
41	Correct	157	643	1129	7	0	0	958284	683	0	correct_rejection	NA	0
41	Correct	158	644	1130	8	0	0	959001	683	0	correct_rejection	NA	0
41	Correct	159	645	1131	9	0	0	959717	684	0	correct_rejection	NA	0
41	Correct	160	646	1132	7	0	0	960434	683	0	correct_rejection	NA	0
41	Correct	161	647	1133	8	0	0	961151	683	0	correct_rejection	NA	0
41	Correct	162	648	1134	9	0	0	961867	684	0	correct_rejection	NA	0
41	Nonet	1	163	1135	4	0	0	971434	683	0	correct_rejection	NA	7667
41	Nonet	2	164	1136	5	0	0	972151	683	0	correct_rejection	NA	0
41	Nonet	3	165	1137	6	0	0	972867	684	0	correct_rejection	NA	0
41	Nonet	4	166	1138	4	0	0	973584	683	0	correct_rejection	NA	0
41	Nonet	5	167	1139	5	0	0	974301	683	0	correct_rejection	NA	0
41	Nonet	6	168	1140	6	0	0	975017	684	0	correct_rejection	NA	0
41	Nonet	7	169	1141	4	0	0	975734	683	0	correct_rejection	NA	0
41	Nonet	8	170	1142	5	0	0	976450	684	0	correct_rejection	NA	0
41	Nonet	9	171	1143	0	1	1	977167	683	1	hit	352	0
41	Nonet	10	172	1144	6	0	0	977884	683	0	correct_rejection	NA	0
41	Nonet	11	173	1145	4	0	0	978600	684	0	correct_rejection	NA	0
41	Nonet	12	174	1146	5	0	0	979317	683	0	correct_rejection	NA	0
41	Nonet	13	175	1147	6	0	0	980034	683	0	correct_rejection	NA	0
41	Nonet	14	176	1148	4	0	0	980750	684	0	correct_rejection	NA	0
41	Nonet	15	177	1149	5	0	0	981467	683	0	correct_rejection	NA	0
41	Nonet	16	178	1150	6	0	0	982184	683	0	correct_rejection	NA	0
41	Nonet	17	179	1151	4	0	0	982900	684	0	correct_rejection	NA	0
41	Nonet	18	180	1152	5	0	0	983617	683	0	correct_rejection	NA	0
41	Nonet	19	181	1153	6	0	0	984334	683	0	correct_rejection	NA	0
41	Nonet	20	182	1154	7	0	0	985050	684	0	correct_rejection	NA	0
41	Nonet	21	183	1155	8	0	0	985767	683	0	correct_rejection	NA	0
41	Nonet	22	184	1156	9	0	0	986484	683	0	correct_rejection	NA	0
41	Nonet	23	185	1157	7	0	0	987200	684	0	correct_rejection	NA	0
41	Nonet	24	186	1158	8	0	0	987917	683	0	correct_rejection	NA	0
41	Nonet	25	187	1159	9	0	0	988634	683	0	correct_rejection	NA	0
41	Nonet	26	188	1160	7	0	0	989350	684	0	correct_rejection	NA	0
41	Nonet	27	189	1161	0	1	1	990067	683	1	hit	403	0
41	Nonet	28	190	1162	8	0	0	990784	683	0	correct_rejection	NA	0
41	Nonet	29	191	1163	9	0	0	991500	684	0	correct_rejection	NA	0
41	Nonet	30	192	1164	0	1	3	992217	683	1	hit	493	0
41	Nonet	31	193	1165	7	0	0	992934	683	0	correct_rejection	NA	0
41	Nonet	32	194	1166	8	0	0	993650	684	0	correct_rejection	NA	0
41	Nonet	33	195	1167	9	0	0	994367	683	0	correct_rejection	NA	0
41	Nonet	34	196	1168	7	0	0	995084	683	0	correct_rejection	NA	0
41	Nonet	35	197	1169	0	1	1	995800	684	1	hit	401	0
41	Nonet	36	198	1170	8	0	0	996517	683	0	correct_rejection	NA	0
41	Nonet	37	199	1171	9	0	0	997233	684	0	correct_rejection	NA	0
41	Nonet	38	200	1172	7	0	0	997950	683	0	correct_rejection	NA	0
41	Nonet	39	201	1173	8	0	0	998667	683	0	correct_rejection	NA	0
41	Nonet	40	202	1174	9	0	0	999383	684	0	correct_rejection	NA	0
41	Nonet	41	203	1175	6	0	0	1000100	683	0	correct_rejection	NA	0
41	Nonet	42	204	1176	5	0	0	1000817	683	0	correct_rejection	NA	0
41	Nonet	43	205	1177	4	0	0	1001533	684	0	correct_rejection	NA	0
41	Nonet	44	206	1178	6	0	0	1002250	683	0	correct_rejection	NA	0
41	Nonet	45	207	1179	5	0	0	1002967	683	0	correct_rejection	NA	0
41	Nonet	46	208	1180	4	0	0	1003683	684	0	correct_rejection	NA	0
41	Nonet	47	209	1181	6	0	0	1004400	683	0	correct_rejection	NA	0
41	Nonet	48	210	1182	5	0	0	1005117	683	0	correct_rejection	NA	0
41	Nonet	49	211	1183	0	1	1	1005833	684	1	hit	414	0
41	Nonet	50	212	1184	4	0	0	1006550	683	0	correct_rejection	NA	0
41	Nonet	51	213	1185	6	0	0	1007267	683	0	correct_rejection	NA	0
41	Nonet	52	214	1186	5	0	0	1007983	684	0	correct_rejection	NA	0
41	Nonet	53	215	1187	4	0	0	1008700	683	0	correct_rejection	NA	0
41	Nonet	54	216	1188	6	0	0	1009417	683	0	correct_rejection	NA	0
41	Nonet	55	217	1189	0	1	1	1010133	684	1	hit	387	0
41	Nonet	56	218	1190	5	0	0	1010850	683	0	correct_rejection	NA	0
41	Nonet	57	219	1191	4	0	0	1011567	683	0	correct_rejection	NA	0
41	Nonet	58	220	1192	6	0	0	1012283	684	0	correct_rejection	NA	0
41	Nonet	59	221	1193	5	0	0	1013000	683	0	correct_rejection	NA	0
41	Nonet	60	222	1194	4	0	0	1013717	683	0	correct_rejection	NA	0
41	Nonet	61	223	1195	4	0	0	1014433	684	0	correct_rejection	NA	0
41	Nonet	62	224	1196	0	1	1	1015150	683	1	hit	390	0
41	Nonet	63	225	1197	5	0	0	1015867	683	0	correct_rejection	NA	0
41	Nonet	64	226	1198	6	0	0	1016583	684	0	correct_rejection	NA	0
41	Nonet	65	227	1199	4	0	0	1017300	683	0	correct_rejection	NA	0
41	Nonet	66	228	1200	5	0	0	1018016	684	0	correct_rejection	NA	0
41	Nonet	67	229	1201	6	0	0	1018733	683	0	correct_rejection	NA	0
41	Nonet	68	230	1202	4	0	0	1019450	683	0	correct_rejection	NA	0
41	Nonet	69	231	1203	5	0	0	1020166	684	0	correct_rejection	NA	0
41	Nonet	70	232	1204	6	0	0	1020883	683	0	correct_rejection	NA	0
41	Nonet	71	233	1205	6	0	0	1021600	683	0	correct_rejection	NA	0
41	Nonet	72	234	1206	5	0	0	1022316	684	0	correct_rejection	NA	0
41	Nonet	73	235	1207	4	0	0	1023033	683	0	correct_rejection	NA	0
41	Nonet	74	236	1208	6	0	0	1023750	683	0	correct_rejection	NA	0
41	Nonet	75	237	1209	0	1	1	1024466	684	1	hit	393	0
41	Nonet	76	238	1210	5	0	0	1025183	683	0	correct_rejection	NA	0
41	Nonet	77	239	1211	4	0	0	1025900	683	0	correct_rejection	NA	0
41	Nonet	78	240	1212	0	1	2	1026616	684	1	hit	466	0
41	Nonet	79	241	1213	6	0	0	1027333	683	0	correct_rejection	NA	0
41	Nonet	80	242	1214	5	0	0	1028050	683	0	correct_rejection	NA	0
41	Nonet	81	243	1215	4	0	0	1028766	684	0	correct_rejection	NA	0
41	Nonet	82	244	1216	9	0	0	1029483	683	0	correct_rejection	NA	0
41	Nonet	83	245	1217	0	1	1	1030200	683	1	hit	372	0
41	Nonet	84	246	1218	8	0	0	1030916	684	0	correct_rejection	NA	0
41	Nonet	85	247	1219	7	0	0	1031633	683	0	correct_rejection	NA	0
41	Nonet	86	248	1220	9	0	0	1032350	683	0	correct_rejection	NA	0
41	Nonet	87	249	1221	8	0	0	1033066	684	0	correct_rejection	NA	0
41	Nonet	88	250	1222	7	0	0	1033783	683	0	correct_rejection	NA	0
41	Nonet	89	251	1223	9	0	0	1034500	683	0	correct_rejection	NA	0
41	Nonet	90	252	1224	8	0	0	1035216	684	0	correct_rejection	NA	0
41	Nonet	91	253	1225	7	0	0	1035933	683	0	correct_rejection	NA	0
41	Nonet	92	254	1226	4	0	0	1036649	684	0	correct_rejection	NA	0
41	Nonet	93	255	1227	5	0	0	1037366	683	0	correct_rejection	NA	0
41	Nonet	94	256	1228	6	0	0	1038083	683	0	correct_rejection	NA	0
41	Nonet	95	257	1229	0	1	2	1038799	684	1	hit	413	0
41	Nonet	96	258	1230	4	0	0	1039516	683	0	correct_rejection	NA	0
41	Nonet	97	259	1231	5	0	0	1040233	683	0	correct_rejection	NA	0
41	Nonet	98	260	1232	6	0	0	1040949	684	0	correct_rejection	NA	0
41	Nonet	99	261	1233	4	0	0	1041666	683	0	correct_rejection	NA	0
41	Nonet	100	262	1234	0	1	1	1042383	683	1	hit	456	0
41	Nonet	101	263	1235	5	0	0	1043099	684	0	correct_rejection	NA	0
41	Nonet	102	264	1236	6	0	0	1043816	683	0	correct_rejection	NA	0
41	Nonet	103	265	1237	9	0	0	1044533	683	0	correct_rejection	NA	0
41	Nonet	104	266	1238	0	1	1	1045249	684	1	hit	383	0
41	Nonet	105	267	1239	8	0	0	1045966	683	0	correct_rejection	NA	0
41	Nonet	106	268	1240	7	0	0	1046683	683	0	correct_rejection	NA	0
41	Nonet	107	269	1241	9	0	0	1047399	684	0	correct_rejection	NA	0
41	Nonet	108	270	1242	0	1	1	1048116	683	1	hit	426	0
41	Nonet	109	271	1243	8	0	0	1048833	683	0	correct_rejection	NA	0
41	Nonet	110	272	1244	7	0	0	1049549	684	0	correct_rejection	NA	0
41	Nonet	111	273	1245	9	0	0	1050266	683	0	correct_rejection	NA	0
41	Nonet	112	274	1246	8	0	0	1050983	683	0	correct_rejection	NA	0
41	Nonet	113	275	1247	7	0	0	1051699	684	0	correct_rejection	NA	0
41	Nonet	114	276	1248	0	1	3	1052416	683	1	hit	395	0
41	Nonet	115	277	1249	7	0	0	1053133	683	0	correct_rejection	NA	0
41	Nonet	116	278	1250	8	0	0	1053849	684	0	correct_rejection	NA	0
41	Nonet	117	279	1251	9	0	0	1054566	683	0	correct_rejection	NA	0
41	Nonet	118	280	1252	7	0	0	1055283	683	0	correct_rejection	NA	0
41	Nonet	119	281	1253	8	0	0	1055999	684	0	correct_rejection	NA	0
41	Nonet	120	282	1254	9	0	0	1056716	683	0	correct_rejection	NA	0
41	Nonet	121	283	1255	7	0	0	1057432	684	0	correct_rejection	NA	0
41	Nonet	122	284	1256	8	0	0	1058149	684	0	correct_rejection	NA	0
41	Nonet	123	285	1257	9	0	0	1058866	683	0	correct_rejection	NA	0
41	Nonet	124	286	1258	9	0	0	1059582	684	0	correct_rejection	NA	0
41	Nonet	125	287	1259	8	0	0	1060299	683	0	correct_rejection	NA	0
41	Nonet	126	288	1260	7	0	0	1061016	683	0	correct_rejection	NA	0
41	Nonet	127	289	1261	9	0	0	1061732	684	0	correct_rejection	NA	0
41	Nonet	128	290	1262	8	0	0	1062449	683	0	correct_rejection	NA	0
41	Nonet	129	291	1263	7	0	0	1063166	683	0	correct_rejection	NA	0
41	Nonet	130	292	1264	9	0	0	1063882	684	0	correct_rejection	NA	0
41	Nonet	131	293	1265	8	0	0	1064599	683	0	correct_rejection	NA	0
41	Nonet	132	294	1266	7	0	0	1065316	683	0	correct_rejection	NA	0
41	Nonet	133	295	1267	0	1	3	1066032	684	1	hit	397	0
41	Nonet	134	296	1268	9	0	0	1066749	683	0	correct_rejection	NA	0
41	Nonet	135	297	1269	8	0	0	1067466	683	0	correct_rejection	NA	0
41	Nonet	136	298	1270	7	0	0	1068182	684	0	correct_rejection	NA	0
41	Nonet	137	299	1271	9	0	0	1068899	683	0	correct_rejection	NA	0
41	Nonet	138	300	1272	8	0	0	1069616	683	0	correct_rejection	NA	0
41	Nonet	139	301	1273	7	0	0	1070332	684	0	correct_rejection	NA	0
41	Nonet	140	302	1274	9	0	0	1071049	683	0	correct_rejection	NA	0
41	Nonet	141	303	1275	8	0	0	1071766	683	0	correct_rejection	NA	0
41	Nonet	142	304	1276	7	0	0	1072482	684	0	correct_rejection	NA	0
41	Nonet	143	305	1277	6	0	0	1073199	683	0	correct_rejection	NA	0
41	Nonet	144	306	1278	5	0	0	1073916	683	0	correct_rejection	NA	0
41	Nonet	145	307	1279	4	0	0	1074632	684	0	correct_rejection	NA	0
41	Nonet	146	308	1280	0	1	2	1075349	683	1	hit	464	0
41	Nonet	147	309	1281	6	0	0	1076066	683	0	correct_rejection	NA	0
41	Nonet	148	310	1282	5	0	0	1076782	684	0	correct_rejection	NA	0
41	Nonet	149	311	1283	4	0	0	1077499	683	0	correct_rejection	NA	0
41	Nonet	150	312	1284	6	0	0	1078215	684	0	correct_rejection	NA	0
41	Nonet	151	313	1285	5	0	0	1078932	683	0	correct_rejection	NA	0
41	Nonet	152	314	1286	4	0	0	1079649	683	0	correct_rejection	NA	0
41	Nonet	153	315	1287	7	0	0	1080365	684	0	correct_rejection	NA	0
41	Nonet	154	316	1288	8	0	0	1081082	683	0	correct_rejection	NA	0
41	Nonet	155	317	1289	0	1	1	1081799	683	0	miss	NA	0
41	Nonet	156	318	1290	9	0	0	1082515	684	0	correct_rejection	NA	0
41	Nonet	157	319	1291	7	0	0	1083232	683	0	correct_rejection	NA	0
41	Nonet	158	320	1292	8	0	0	1083949	683	0	correct_rejection	NA	0
41	Nonet	159	321	1293	9	0	0	1084665	684	0	correct_rejection	NA	0
41	Nonet	160	322	1294	7	0	0	1085382	683	0	correct_rejection	NA	0
41	Nonet	161	323	1295	8	0	0	1086099	683	0	correct_rejection	NA	0
41	Nonet	162	324	1296	9	0	0	1086815	684	0	correct_rejection	NA	0
41	Single	1	649	1297	8	0	0	1096099	683	0	correct_rejection	NA	7336
41	Single	2	650	1298	9	0	0	1096815	684	0	correct_rejection	NA	0
41	Single	3	651	1299	8	0	0	1097532	683	0	correct_rejection	NA	0
41	Single	4	652	1300	5	0	0	1098249	683	0	correct_rejection	NA	0
41	Single	5	653	1301	4	0	0	1098965	684	0	correct_rejection	NA	0
41	Single	6	654	1302	4	0	0	1099682	683	0	correct_rejection	NA	0
41	Single	7	655	1303	9	0	0	1100398	684	0	correct_rejection	NA	0
41	Single	8	656	1304	9	0	0	1101115	683	0	correct_rejection	NA	0
41	Single	9	657	1305	4	0	0	1101832	683	0	correct_rejection	NA	0
41	Single	10	658	1306	7	0	0	1102548	684	0	correct_rejection	NA	0
41	Single	11	659	1307	4	0	0	1103265	683	0	correct_rejection	NA	0
41	Single	12	660	1308	5	0	0	1103982	683	0	correct_rejection	NA	0
41	Single	13	661	1309	7	0	0	1104698	684	0	correct_rejection	NA	0
41	Single	14	662	1310	6	0	0	1105415	683	0	correct_rejection	NA	0
41	Single	15	663	1311	8	0	0	1106132	683	0	correct_rejection	NA	0
41	Single	16	664	1312	7	0	0	1106848	684	0	correct_rejection	NA	0
41	Single	17	665	1313	5	0	0	1107565	683	0	correct_rejection	NA	0
41	Single	18	666	1314	5	0	0	1108282	683	0	correct_rejection	NA	0
41	Single	19	667	1315	9	0	0	1108998	684	0	correct_rejection	NA	0
41	Single	20	668	1316	5	0	0	1109715	683	0	correct_rejection	NA	0
41	Single	21	669	1317	0	1	1	1110432	683	1	hit	525	0
41	Single	22	670	1318	8	0	0	1111148	684	0	correct_rejection	NA	0
41	Single	23	671	1319	6	0	0	1111865	683	0	correct_rejection	NA	0
41	Single	24	672	1320	5	0	0	1112582	683	0	correct_rejection	NA	0
41	Single	25	673	1321	6	0	0	1113298	684	0	correct_rejection	NA	0
41	Single	26	674	1322	6	0	0	1114015	683	0	correct_rejection	NA	0
41	Single	27	675	1323	7	0	0	1114732	683	0	correct_rejection	NA	0
41	Single	28	676	1324	9	0	0	1115448	684	0	correct_rejection	NA	0
41	Single	29	677	1325	6	0	0	1116165	683	0	correct_rejection	NA	0
41	Single	30	678	1326	9	0	0	1116882	683	0	correct_rejection	NA	0
41	Single	31	679	1327	7	0	0	1117598	684	0	correct_rejection	NA	0
41	Single	32	680	1328	7	0	0	1118315	683	0	correct_rejection	NA	0
41	Single	33	681	1329	0	1	1	1119032	683	1	hit	390	0
41	Single	34	682	1330	8	0	0	1119748	684	0	correct_rejection	NA	0
41	Single	35	683	1331	8	0	0	1120465	683	0	correct_rejection	NA	0
41	Single	36	684	1332	4	0	0	1121181	684	0	correct_rejection	NA	0
41	Single	37	685	1333	6	0	0	1121898	683	0	correct_rejection	NA	0
41	Single	38	686	1334	4	0	0	1122615	683	0	correct_rejection	NA	0
41	Single	39	687	1335	7	0	0	1123331	684	0	correct_rejection	NA	0
41	Single	40	688	1336	9	0	0	1124048	683	0	correct_rejection	NA	0
41	Single	41	689	1337	5	0	0	1124765	683	0	correct_rejection	NA	0
41	Single	42	690	1338	9	0	0	1125481	684	0	correct_rejection	NA	0
41	Single	43	691	1339	4	0	0	1126198	683	0	correct_rejection	NA	0
41	Single	44	692	1340	8	0	0	1126915	683	0	correct_rejection	NA	0
41	Single	45	693	1341	4	0	0	1127631	684	0	correct_rejection	NA	0
41	Single	46	694	1342	9	0	0	1128348	683	0	correct_rejection	NA	0
41	Single	47	695	1343	7	0	0	1129065	683	0	correct_rejection	NA	0
41	Single	48	696	1344	8	0	0	1129781	684	0	correct_rejection	NA	0
41	Single	49	697	1345	9	0	0	1130498	683	0	correct_rejection	NA	0
41	Single	50	698	1346	6	0	0	1131215	683	0	correct_rejection	NA	0
41	Single	51	699	1347	8	0	0	1131931	684	0	correct_rejection	NA	0
41	Single	52	700	1348	8	0	0	1132648	683	0	correct_rejection	NA	0
41	Single	53	701	1349	5	0	0	1133365	683	0	correct_rejection	NA	0
41	Single	54	702	1350	8	0	0	1134081	684	0	correct_rejection	NA	0
41	Single	55	703	1351	7	0	0	1134798	683	0	correct_rejection	NA	0
41	Single	56	704	1352	7	0	0	1135515	683	0	correct_rejection	NA	0
41	Single	57	705	1353	4	0	0	1136231	684	0	correct_rejection	NA	0
41	Single	58	706	1354	0	1	1	1136948	683	1	hit	454	0
41	Single	59	707	1355	4	0	0	1137665	683	0	correct_rejection	NA	0
41	Single	60	708	1356	6	0	0	1138381	684	0	correct_rejection	NA	0
41	Single	61	709	1357	5	0	0	1139098	683	0	correct_rejection	NA	0
41	Single	62	710	1358	4	0	0	1139815	683	0	correct_rejection	NA	0
41	Single	63	711	1359	7	0	0	1140531	684	0	correct_rejection	NA	0
41	Single	64	712	1360	6	0	0	1141248	683	0	correct_rejection	NA	0
41	Single	65	713	1361	6	0	0	1141964	684	0	correct_rejection	NA	0
41	Single	66	714	1362	9	0	0	1142681	683	0	correct_rejection	NA	0
41	Single	67	715	1363	0	1	1	1143398	683	1	hit	387	0
41	Single	68	716	1364	9	0	0	1144114	684	0	correct_rejection	NA	0
41	Single	69	717	1365	8	0	0	1144831	683	0	correct_rejection	NA	0
41	Single	70	718	1366	0	1	1	1145548	683	1	hit	476	0
41	Single	71	719	1367	6	0	0	1146264	684	0	correct_rejection	NA	0
41	Single	72	720	1368	4	0	0	1146981	683	0	correct_rejection	NA	0
41	Single	73	721	1369	5	0	0	1147698	683	0	correct_rejection	NA	0
41	Single	74	722	1370	5	0	0	1148414	684	0	correct_rejection	NA	0
41	Single	75	723	1371	0	1	1	1149131	683	1	hit	468	0
41	Single	76	724	1372	6	0	0	1149848	683	0	correct_rejection	NA	0
41	Single	77	725	1373	7	0	0	1150564	684	0	correct_rejection	NA	0
41	Single	78	726	1374	0	1	1	1151281	683	1	hit	388	0
41	Single	79	727	1375	5	0	0	1151998	683	0	correct_rejection	NA	0
41	Single	80	728	1376	5	0	0	1152714	684	0	correct_rejection	NA	0
41	Single	81	729	1377	4	0	0	1153431	683	0	correct_rejection	NA	0
41	Single	82	730	1378	0	1	1	1154148	683	1	hit	377	0
41	Single	83	731	1379	9	0	0	1154864	684	0	correct_rejection	NA	0
41	Single	84	732	1380	5	0	0	1155581	683	0	correct_rejection	NA	0
41	Single	85	733	1381	6	0	0	1156298	683	0	correct_rejection	NA	0
41	Single	86	734	1382	4	0	0	1157014	684	0	correct_rejection	NA	0
41	Single	87	735	1383	0	1	1	1157731	683	1	hit	396	0
41	Single	88	736	1384	7	0	0	1158448	683	0	correct_rejection	NA	0
41	Single	89	737	1385	9	0	0	1159164	684	0	correct_rejection	NA	0
41	Single	90	738	1386	8	0	0	1159881	683	0	correct_rejection	NA	0
41	Single	91	739	1387	8	0	0	1160598	683	0	correct_rejection	NA	0
41	Single	92	740	1388	7	0	0	1161314	684	0	correct_rejection	NA	0
41	Single	93	741	1389	8	0	0	1162031	683	0	correct_rejection	NA	0
41	Single	94	742	1390	0	1	1	1162747	684	1	hit	395	0
41	Single	95	743	1391	4	0	0	1163464	683	0	correct_rejection	NA	0
41	Single	96	744	1392	8	0	0	1164181	683	0	correct_rejection	NA	0
41	Single	97	745	1393	5	0	0	1164897	684	0	correct_rejection	NA	0
41	Single	98	746	1394	5	0	0	1165614	683	0	correct_rejection	NA	0
41	Single	99	747	1395	8	0	0	1166331	683	0	correct_rejection	NA	0
41	Single	100	748	1396	9	0	0	1167047	684	0	correct_rejection	NA	0
41	Single	101	749	1397	4	0	0	1167764	683	0	correct_rejection	NA	0
41	Single	102	750	1398	4	0	0	1168481	683	0	correct_rejection	NA	0
41	Single	103	751	1399	0	1	1	1169197	684	1	hit	421	0
41	Single	104	752	1400	5	0	0	1169914	683	0	correct_rejection	NA	0
41	Single	105	753	1401	9	0	0	1170631	683	0	correct_rejection	NA	0
41	Single	106	754	1402	9	0	0	1171347	684	0	correct_rejection	NA	0
41	Single	107	755	1403	7	0	0	1172064	683	0	correct_rejection	NA	0
41	Single	108	756	1404	6	0	0	1172781	683	0	correct_rejection	NA	0
41	Single	109	757	1405	7	0	0	1173497	684	0	correct_rejection	NA	0
41	Single	110	758	1406	7	0	0	1174214	683	0	correct_rejection	NA	0
41	Single	111	759	1407	5	0	0	1174931	683	0	correct_rejection	NA	0
41	Single	112	760	1408	0	1	1	1175647	684	1	hit	471	0
41	Single	113	761	1409	7	0	0	1176364	683	0	correct_rejection	NA	0
41	Single	114	762	1410	4	0	0	1177081	683	0	correct_rejection	NA	0
41	Single	115	763	1411	6	0	0	1177797	684	0	correct_rejection	NA	0
41	Single	116	764	1412	9	0	0	1178514	683	0	correct_rejection	NA	0
41	Single	117	765	1413	6	0	0	1179231	683	0	correct_rejection	NA	0
41	Single	118	766	1414	6	0	0	1179947	684	0	correct_rejection	NA	0
41	Single	119	767	1415	8	0	0	1180664	683	0	correct_rejection	NA	0
41	Single	120	768	1416	6	0	0	1181381	683	0	correct_rejection	NA	0
41	Single	121	769	1417	0	1	1	1182097	684	1	hit	425	0
41	Single	122	770	1418	7	0	0	1182814	683	0	correct_rejection	NA	0
41	Single	123	771	1419	7	0	0	1183530	684	0	correct_rejection	NA	0
41	Single	124	772	1420	8	0	0	1184247	683	0	correct_rejection	NA	0
41	Single	125	773	1421	7	0	0	1184964	683	0	correct_rejection	NA	0
41	Single	126	774	1422	6	0	0	1185680	684	0	correct_rejection	NA	0
41	Single	127	775	1423	9	0	0	1186397	683	0	correct_rejection	NA	0
41	Single	128	776	1424	7	0	0	1187114	683	0	correct_rejection	NA	0
41	Single	129	777	1425	0	1	1	1187830	684	1	hit	432	0
41	Single	130	778	1426	4	0	0	1188547	683	0	correct_rejection	NA	0
41	Single	131	779	1427	9	0	0	1189264	683	0	correct_rejection	NA	0
41	Single	132	780	1428	6	0	0	1189980	684	0	correct_rejection	NA	0
41	Single	133	781	1429	5	0	0	1190697	683	0	correct_rejection	NA	0
41	Single	134	782	1430	6	0	0	1191414	683	0	correct_rejection	NA	0
41	Single	135	783	1431	0	1	1	1192130	684	1	hit	431	0
41	Single	136	784	1432	6	0	0	1192847	683	0	correct_rejection	NA	0
41	Single	137	785	1433	7	0	0	1193564	683	0	correct_rejection	NA	0
41	Single	138	786	1434	9	0	0	1194280	684	0	correct_rejection	NA	0
41	Single	139	787	1435	9	0	0	1194997	683	0	correct_rejection	NA	0
41	Single	140	788	1436	4	0	0	1195714	683	0	correct_rejection	NA	0
41	Single	141	789	1437	5	0	0	1196430	684	0	correct_rejection	NA	0
41	Single	142	790	1438	8	0	0	1197147	683	0	correct_rejection	NA	0
41	Single	143	791	1439	6	0	0	1197864	683	0	correct_rejection	NA	0
41	Single	144	792	1440	8	0	0	1198580	684	0	correct_rejection	NA	0
41	Single	145	793	1441	9	0	0	1199297	683	0	correct_rejection	NA	0
41	Single	146	794	1442	5	0	0	1200014	683	0	correct_rejection	NA	0
41	Single	147	795	1443	7	0	0	1200730	684	0	correct_rejection	NA	0
41	Single	148	796	1444	5	0	0	1201447	683	0	correct_rejection	NA	0
41	Single	149	797	1445	5	0	0	1202164	683	0	correct_rejection	NA	0
41	Single	150	798	1446	9	0	0	1202880	684	0	correct_rejection	NA	0
41	Single	151	799	1447	8	0	0	1203597	683	0	correct_rejection	NA	0
41	Single	152	800	1448	0	1	1	1204313	684	1	hit	414	0
41	Single	153	801	1449	5	0	0	1205030	683	0	correct_rejection	NA	0
41	Single	154	802	1450	4	0	0	1205747	683	0	correct_rejection	NA	0
41	Single	155	803	1451	6	0	0	1206463	684	0	correct_rejection	NA	0
41	Single	156	804	1452	0	1	1	1207180	683	1	hit	423	0
41	Single	157	805	1453	4	0	0	1207897	683	0	correct_rejection	NA	0
41	Single	158	806	1454	4	0	0	1208613	684	0	correct_rejection	NA	0
41	Single	159	807	1455	8	0	0	1209330	683	0	correct_rejection	NA	0
41	Single	160	808	1456	0	1	1	1210047	683	1	hit	412	0
41	Single	161	809	1457	8	0	0	1210763	684	0	correct_rejection	NA	0
41	Single	162	810	1458	4	0	0	1211480	683	0	correct_rejection	NA	0
41	Triplet	1	1	1459	9	0	0	1221597	683	0	correct_rejection	NA	7836
41	Triplet	2	2	1460	8	0	0	1222313	684	0	correct_rejection	NA	0
41	Triplet	3	3	1461	7	0	0	1223030	683	0	correct_rejection	NA	0
41	Triplet	4	4	1462	6	0	0	1223746	684	0	correct_rejection	NA	0
41	Triplet	5	5	1463	5	0	0	1224463	683	0	correct_rejection	NA	0
41	Triplet	6	6	1464	4	0	0	1225180	683	0	correct_rejection	NA	0
41	Triplet	7	7	1465	7	0	0	1225896	684	0	correct_rejection	NA	0
41	Triplet	8	8	1466	8	0	0	1226613	683	0	correct_rejection	NA	0
41	Triplet	9	9	1467	9	0	0	1227330	683	0	correct_rejection	NA	0
41	Triplet	10	10	1468	7	0	0	1228046	684	0	correct_rejection	NA	0
41	Triplet	11	11	1469	8	0	0	1228763	683	0	correct_rejection	NA	0
41	Triplet	12	12	1470	9	0	0	1229480	683	0	correct_rejection	NA	0
41	Triplet	13	13	1471	0	1	2	1230196	684	1	hit	499	0
41	Triplet	14	14	1472	4	0	0	1230913	683	0	correct_rejection	NA	0
41	Triplet	15	15	1473	5	0	0	1231630	683	0	correct_rejection	NA	0
41	Triplet	16	16	1474	0	1	1	1232346	684	1	hit	498	0
41	Triplet	17	17	1475	6	0	0	1233063	683	0	correct_rejection	NA	0
41	Triplet	18	18	1476	6	0	0	1233780	683	0	correct_rejection	NA	0
41	Triplet	19	19	1477	0	1	1	1234496	684	1	hit	447	0
41	Triplet	20	20	1478	5	0	0	1235213	683	0	correct_rejection	NA	0
41	Triplet	21	21	1479	4	0	0	1235930	683	0	correct_rejection	NA	0
41	Triplet	22	22	1480	4	0	0	1236646	684	0	correct_rejection	NA	0
41	Triplet	23	23	1481	5	0	0	1237363	683	0	correct_rejection	NA	0
41	Triplet	24	24	1482	6	0	0	1238080	683	0	correct_rejection	NA	0
41	Triplet	25	25	1483	0	1	2	1238796	684	1	hit	377	0
41	Triplet	26	26	1484	7	0	0	1239513	683	0	correct_rejection	NA	0
41	Triplet	27	27	1485	8	0	0	1240230	683	0	correct_rejection	NA	0
41	Triplet	28	28	1486	9	0	0	1240946	684	0	correct_rejection	NA	0
41	Triplet	29	29	1487	9	0	0	1241663	683	0	correct_rejection	NA	0
41	Triplet	30	30	1488	8	0	0	1242380	683	0	correct_rejection	NA	0
41	Triplet	31	31	1489	7	0	0	1243096	684	0	correct_rejection	NA	0
41	Triplet	32	32	1490	7	0	0	1243813	683	0	correct_rejection	NA	0
41	Triplet	33	33	1491	8	0	0	1244529	684	0	correct_rejection	NA	0
41	Triplet	34	34	1492	9	0	0	1245246	683	0	correct_rejection	NA	0
41	Triplet	35	35	1493	6	0	0	1245963	683	0	correct_rejection	NA	0
41	Triplet	36	36	1494	5	0	0	1246679	684	0	correct_rejection	NA	0
41	Triplet	37	37	1495	4	0	0	1247396	683	0	correct_rejection	NA	0
41	Triplet	38	38	1496	6	0	0	1248113	683	0	correct_rejection	NA	0
41	Triplet	39	39	1497	5	0	0	1248829	684	0	correct_rejection	NA	0
41	Triplet	40	40	1498	4	0	0	1249546	683	0	correct_rejection	NA	0
41	Triplet	41	41	1499	9	0	0	1250263	683	0	correct_rejection	NA	0
41	Triplet	42	42	1500	8	0	0	1250979	684	0	correct_rejection	NA	0
41	Triplet	43	43	1501	7	0	0	1251696	683	0	correct_rejection	NA	0
41	Triplet	44	44	1502	9	0	0	1252413	683	0	correct_rejection	NA	0
41	Triplet	45	45	1503	8	0	0	1253129	684	0	correct_rejection	NA	0
41	Triplet	46	46	1504	7	0	0	1253846	683	0	correct_rejection	NA	0
41	Triplet	47	47	1505	0	1	2	1254563	683	1	hit	380	0
41	Triplet	48	48	1506	4	0	0	1255279	684	0	correct_rejection	NA	0
41	Triplet	49	49	1507	5	0	0	1255996	683	0	correct_rejection	NA	0
41	Triplet	50	50	1508	0	1	1	1256713	683	1	hit	426	0
41	Triplet	51	51	1509	6	0	0	1257429	684	0	correct_rejection	NA	0
41	Triplet	52	52	1510	4	0	0	1258146	683	0	correct_rejection	NA	0
41	Triplet	53	53	1511	5	0	0	1258863	683	0	correct_rejection	NA	0
41	Triplet	54	54	1512	6	0	0	1259579	684	0	correct_rejection	NA	0
41	Triplet	55	55	1513	9	0	0	1260296	683	0	correct_rejection	NA	0
41	Triplet	56	56	1514	8	0	0	1261013	683	0	correct_rejection	NA	0
41	Triplet	57	57	1515	7	0	0	1261729	684	0	correct_rejection	NA	0
41	Triplet	58	58	1516	4	0	0	1262446	683	0	correct_rejection	NA	0
41	Triplet	59	59	1517	5	0	0	1263163	683	0	correct_rejection	NA	0
41	Triplet	60	60	1518	6	0	0	1263879	684	0	correct_rejection	NA	0
41	Triplet	61	61	1519	0	1	2	1264596	683	1	hit	451	0
41	Triplet	62	62	1520	6	0	0	1265312	684	0	correct_rejection	NA	0
41	Triplet	63	63	1521	5	0	0	1266029	684	0	correct_rejection	NA	0
41	Triplet	64	64	1522	0	1	1	1266746	683	1	hit	393	0
41	Triplet	65	65	1523	4	0	0	1267462	684	0	correct_rejection	NA	0
41	Triplet	66	66	1524	6	0	0	1268179	683	0	correct_rejection	NA	0
41	Triplet	67	67	1525	5	0	0	1268896	683	0	correct_rejection	NA	0
41	Triplet	68	68	1526	4	0	0	1269612	684	0	correct_rejection	NA	0
41	Triplet	69	69	1527	0	1	2	1270329	683	1	hit	427	0
41	Triplet	70	70	1528	7	0	0	1271046	683	0	correct_rejection	NA	0
41	Triplet	71	71	1529	8	0	0	1271762	684	0	correct_rejection	NA	0
41	Triplet	72	72	1530	0	1	1	1272479	683	1	hit	495	0
41	Triplet	73	73	1531	9	0	0	1273196	683	0	correct_rejection	NA	0
41	Triplet	74	74	1532	4	0	0	1273912	684	0	correct_rejection	NA	0
41	Triplet	75	75	1533	0	1	1	1274629	683	1	hit	418	0
41	Triplet	76	76	1534	5	0	0	1275346	683	0	correct_rejection	NA	0
41	Triplet	77	77	1535	6	0	0	1276062	684	0	correct_rejection	NA	0
41	Triplet	78	78	1536	9	0	0	1276779	683	0	correct_rejection	NA	0
41	Triplet	79	79	1537	8	0	0	1277496	683	0	correct_rejection	NA	0
41	Triplet	80	80	1538	7	0	0	1278212	684	0	correct_rejection	NA	0
41	Triplet	81	81	1539	7	0	0	1278929	683	0	correct_rejection	NA	0
41	Triplet	82	82	1540	8	0	0	1279646	683	0	correct_rejection	NA	0
41	Triplet	83	83	1541	9	0	0	1280362	684	0	correct_rejection	NA	0
41	Triplet	84	84	1542	0	1	2	1281079	683	1	hit	454	0
41	Triplet	85	85	1543	9	0	0	1281796	683	0	correct_rejection	NA	0
41	Triplet	86	86	1544	8	0	0	1282512	684	0	correct_rejection	NA	0
41	Triplet	87	87	1545	7	0	0	1283229	683	0	correct_rejection	NA	0
41	Triplet	88	88	1546	6	0	0	1283946	683	0	correct_rejection	NA	0
41	Triplet	89	89	1547	5	0	0	1284662	684	0	correct_rejection	NA	0
41	Triplet	90	90	1548	4	0	0	1285379	683	0	correct_rejection	NA	0
41	Triplet	91	91	1549	4	0	0	1286095	684	0	correct_rejection	NA	0
41	Triplet	92	92	1550	5	0	0	1286812	684	0	correct_rejection	NA	0
41	Triplet	93	93	1551	6	0	0	1287529	683	0	correct_rejection	NA	0
41	Triplet	94	94	1552	4	0	0	1288245	684	0	correct_rejection	NA	0
41	Triplet	95	95	1553	0	1	1	1288962	683	1	hit	454	0
41	Triplet	96	96	1554	5	0	0	1289679	683	0	correct_rejection	NA	0
41	Triplet	97	97	1555	6	0	0	1290395	684	0	correct_rejection	NA	0
41	Triplet	98	98	1556	7	0	0	1291112	683	0	correct_rejection	NA	0
41	Triplet	99	99	1557	8	0	0	1291829	683	0	correct_rejection	NA	0
41	Triplet	100	100	1558	9	0	0	1292545	684	0	correct_rejection	NA	0
41	Triplet	101	101	1559	7	0	0	1293262	683	0	correct_rejection	NA	0
41	Triplet	102	102	1560	8	0	0	1293979	683	0	correct_rejection	NA	0
41	Triplet	103	103	1561	9	0	0	1294695	684	0	correct_rejection	NA	0
41	Triplet	104	104	1562	6	0	0	1295412	683	0	correct_rejection	NA	0
41	Triplet	105	105	1563	5	0	0	1296129	683	0	correct_rejection	NA	0
41	Triplet	106	106	1564	4	0	0	1296845	684	0	correct_rejection	NA	0
41	Triplet	107	107	1565	9	0	0	1297562	683	0	correct_rejection	NA	0
41	Triplet	108	108	1566	8	0	0	1298279	683	0	correct_rejection	NA	0
41	Triplet	109	109	1567	0	1	1	1298995	684	1	hit	506	0
41	Triplet	110	110	1568	7	0	0	1299712	683	0	correct_rejection	NA	0
41	Triplet	111	111	1569	7	0	0	1300429	683	0	correct_rejection	NA	0
41	Triplet	112	112	1570	8	0	0	1301145	684	0	correct_rejection	NA	0
41	Triplet	113	113	1571	9	0	0	1301862	683	0	correct_rejection	NA	0
41	Triplet	114	114	1572	4	0	0	1302579	683	0	correct_rejection	NA	0
41	Triplet	115	115	1573	5	0	0	1303295	684	0	correct_rejection	NA	0
41	Triplet	116	116	1574	6	0	0	1304012	683	0	correct_rejection	NA	0
41	Triplet	117	117	1575	4	0	0	1304729	683	0	correct_rejection	NA	0
41	Triplet	118	118	1576	5	0	0	1305445	684	0	correct_rejection	NA	0
41	Triplet	119	119	1577	6	0	0	1306162	683	0	correct_rejection	NA	0
41	Triplet	120	120	1578	0	1	2	1306878	684	1	hit	568	0
41	Triplet	121	121	1579	9	0	0	1307595	683	0	correct_rejection	NA	0
41	Triplet	122	122	1580	8	0	0	1308312	683	0	correct_rejection	NA	0
41	Triplet	123	123	1581	7	0	0	1309028	684	0	correct_rejection	NA	0
41	Triplet	124	124	1582	4	0	0	1309745	683	0	correct_rejection	NA	0
41	Triplet	125	125	1583	5	0	0	1310462	683	0	correct_rejection	NA	0
41	Triplet	126	126	1584	6	0	0	1311178	684	0	correct_rejection	NA	0
41	Triplet	127	127	1585	7	0	0	1311895	683	0	correct_rejection	NA	0
41	Triplet	128	128	1586	8	0	0	1312612	683	0	correct_rejection	NA	0
41	Triplet	129	129	1587	0	1	1	1313328	684	1	hit	500	0
41	Triplet	130	130	1588	9	0	0	1314045	683	0	correct_rejection	NA	0
41	Triplet	131	131	1589	6	0	0	1314762	683	0	correct_rejection	NA	0
41	Triplet	132	132	1590	5	0	0	1315478	684	0	correct_rejection	NA	0
41	Triplet	133	133	1591	4	0	0	1316195	683	0	correct_rejection	NA	0
41	Triplet	134	134	1592	0	1	2	1316912	683	1	hit	417	0
41	Triplet	135	135	1593	4	0	0	1317628	684	0	correct_rejection	NA	0
