ID	block	trial_block	trial_cat	trial_total	number	violation	level_violation	onset	duration	Response	Hit_Miss	RT	pre_trial_fixcross_ISI
first_trigger_at: 11209
trigger nr 6 at 16209
42	Triplet	1	325	1	6	0	0	22624	691	0	correct_rejection	NA	6379
42	Triplet	2	326	2	5	0	0	23332	692	0	correct_rejection	NA	0
42	Triplet	3	327	3	4	0	0	24041	691	0	correct_rejection	NA	0
42	Triplet	4	328	4	6	0	0	24749	692	0	correct_rejection	NA	0
42	Triplet	5	329	5	5	0	0	25458	692	0	correct_rejection	NA	0
42	Triplet	6	330	6	4	0	0	26166	692	0	correct_rejection	NA	0
42	Triplet	7	331	7	9	0	0	26875	692	0	correct_rejection	NA	0
42	Triplet	8	332	8	8	0	0	27584	691	0	correct_rejection	NA	0
42	Triplet	9	333	9	7	0	0	28292	692	0	correct_rejection	NA	0
42	Triplet	10	334	10	9	0	0	29001	691	0	correct_rejection	NA	0
42	Triplet	11	335	11	8	0	0	29709	692	0	correct_rejection	NA	0
42	Triplet	12	336	12	7	0	0	30418	692	0	correct_rejection	NA	0
42	Triplet	13	337	13	7	0	0	31126	692	0	correct_rejection	NA	0
42	Triplet	14	338	14	0	1	1	31835	692	1	hit	368	0
42	Triplet	15	339	15	8	0	0	32544	691	0	correct_rejection	NA	0
42	Triplet	16	340	16	9	0	0	33252	692	0	correct_rejection	NA	0
42	Triplet	17	341	17	9	0	0	33961	691	0	correct_rejection	NA	0
42	Triplet	18	342	18	8	0	0	34669	692	0	correct_rejection	NA	0
42	Triplet	19	343	19	7	0	0	35378	692	0	correct_rejection	NA	0
42	Triplet	20	344	20	6	0	0	36086	692	0	correct_rejection	NA	0
42	Triplet	21	345	21	5	0	0	36795	692	0	correct_rejection	NA	0
42	Triplet	22	346	22	4	0	0	37504	691	0	correct_rejection	NA	0
42	Triplet	23	347	23	7	0	0	38212	692	0	correct_rejection	NA	0
42	Triplet	24	348	24	8	0	0	38921	691	0	correct_rejection	NA	0
42	Triplet	25	349	25	9	0	0	39629	692	0	correct_rejection	NA	0
42	Triplet	26	350	26	4	0	0	40338	692	0	correct_rejection	NA	0
42	Triplet	27	351	27	5	0	0	41046	692	0	correct_rejection	NA	0
42	Triplet	28	352	28	6	0	0	41755	692	0	correct_rejection	NA	0
42	Triplet	29	353	29	6	0	0	42464	691	0	correct_rejection	NA	0
42	Triplet	30	354	30	0	1	1	43172	692	1	hit	372	0
42	Triplet	31	355	31	5	0	0	43881	691	0	correct_rejection	NA	0
42	Triplet	32	356	32	4	0	0	44589	692	0	correct_rejection	NA	0
42	Triplet	33	357	33	4	0	0	45298	691	0	correct_rejection	NA	0
42	Triplet	34	358	34	5	0	0	46006	692	0	correct_rejection	NA	0
42	Triplet	35	359	35	6	0	0	46715	692	0	correct_rejection	NA	0
42	Triplet	36	360	36	9	0	0	47423	692	0	correct_rejection	NA	0
42	Triplet	37	361	37	8	0	0	48132	692	0	correct_rejection	NA	0
42	Triplet	38	362	38	7	0	0	48841	691	0	correct_rejection	NA	0
42	Triplet	39	363	39	4	0	0	49549	692	0	correct_rejection	NA	0
42	Triplet	40	364	40	5	0	0	50258	691	0	correct_rejection	NA	0
42	Triplet	41	365	41	6	0	0	50966	692	0	correct_rejection	NA	0
42	Triplet	42	366	42	4	0	0	51675	692	0	correct_rejection	NA	0
42	Triplet	43	367	43	0	1	1	52383	692	1	hit	407	0
42	Triplet	44	368	44	5	0	0	53092	692	0	correct_rejection	NA	0
42	Triplet	45	369	45	6	0	0	53801	691	0	correct_rejection	NA	0
42	Triplet	46	370	46	7	0	0	54509	692	0	correct_rejection	NA	0
42	Triplet	47	371	47	8	0	0	55218	691	0	correct_rejection	NA	0
42	Triplet	48	372	48	9	0	0	55926	692	0	correct_rejection	NA	0
42	Triplet	49	373	49	7	0	0	56635	692	0	correct_rejection	NA	0
42	Triplet	50	374	50	8	0	0	57343	692	0	correct_rejection	NA	0
42	Triplet	51	375	51	9	0	0	58052	692	0	correct_rejection	NA	0
42	Triplet	52	376	52	0	1	2	58761	691	1	hit	308	0
42	Triplet	53	377	53	6	0	0	59469	692	0	correct_rejection	NA	0
42	Triplet	54	378	54	5	0	0	60178	691	0	correct_rejection	NA	0
42	Triplet	55	379	55	4	0	0	60886	692	0	correct_rejection	NA	0
42	Triplet	56	380	56	0	1	2	61595	692	1	hit	358	0
42	Triplet	57	381	57	7	0	0	62303	692	0	correct_rejection	NA	0
42	Triplet	58	382	58	8	0	0	63012	692	0	correct_rejection	NA	0
42	Triplet	59	383	59	9	0	0	63721	691	0	correct_rejection	NA	0
42	Triplet	60	384	60	9	0	0	64429	692	0	correct_rejection	NA	0
42	Triplet	61	385	61	8	0	0	65138	691	0	correct_rejection	NA	0
42	Triplet	62	386	62	7	0	0	65846	692	0	correct_rejection	NA	0
42	Triplet	63	387	63	4	0	0	66555	692	0	correct_rejection	NA	0
42	Triplet	64	388	64	5	0	0	67263	692	0	correct_rejection	NA	0
42	Triplet	65	389	65	6	0	0	67972	692	0	correct_rejection	NA	0
42	Triplet	66	390	66	7	0	0	68681	691	0	correct_rejection	NA	0
42	Triplet	67	391	67	8	0	0	69389	692	0	correct_rejection	NA	0
42	Triplet	68	392	68	0	1	1	70098	691	1	hit	378	0
42	Triplet	69	393	69	9	0	0	70806	692	0	correct_rejection	NA	0
42	Triplet	70	394	70	4	0	0	71515	691	0	correct_rejection	NA	0
42	Triplet	71	395	71	5	0	0	72223	692	0	correct_rejection	NA	0
42	Triplet	72	396	72	0	1	1	72932	692	1	hit	573	0
42	Triplet	73	397	73	6	0	0	73640	692	0	correct_rejection	NA	0
42	Triplet	74	398	74	4	0	0	74349	692	0	correct_rejection	NA	0
42	Triplet	75	399	75	0	1	1	75058	691	1	hit	338	0
42	Triplet	76	400	76	5	0	0	75766	692	0	correct_rejection	NA	0
42	Triplet	77	401	77	6	0	0	76475	691	0	correct_rejection	NA	0
42	Triplet	78	402	78	9	0	0	77183	692	0	correct_rejection	NA	0
42	Triplet	79	403	79	0	1	1	77892	692	1	hit	291	0
42	Triplet	80	404	80	8	0	0	78600	692	0	correct_rejection	NA	0
42	Triplet	81	405	81	7	0	0	79309	692	0	correct_rejection	NA	0
42	Triplet	82	406	82	9	0	0	80018	691	0	correct_rejection	NA	0
42	Triplet	83	407	83	8	0	0	80726	692	0	correct_rejection	NA	0
42	Triplet	84	408	84	7	0	0	81435	691	0	correct_rejection	NA	0
42	Triplet	85	409	85	6	0	0	82143	692	0	correct_rejection	NA	0
42	Triplet	86	410	86	5	0	0	82852	692	0	correct_rejection	NA	0
42	Triplet	87	411	87	4	0	0	83560	692	0	correct_rejection	NA	0
42	Triplet	88	412	88	4	0	0	84269	692	0	correct_rejection	NA	0
42	Triplet	89	413	89	5	0	0	84978	691	0	correct_rejection	NA	0
42	Triplet	90	414	90	6	0	0	85686	692	0	correct_rejection	NA	0
42	Triplet	91	415	91	6	0	0	86395	691	0	correct_rejection	NA	0
42	Triplet	92	416	92	5	0	0	87103	692	0	correct_rejection	NA	0
42	Triplet	93	417	93	4	0	0	87812	692	0	correct_rejection	NA	0
42	Triplet	94	418	94	9	0	0	88520	692	0	correct_rejection	NA	0
42	Triplet	95	419	95	8	0	0	89229	692	0	correct_rejection	NA	0
42	Triplet	96	420	96	7	0	0	89938	691	0	correct_rejection	NA	0
42	Triplet	97	421	97	0	1	2	90646	692	1	hit	325	0
42	Triplet	98	422	98	7	0	0	91355	691	0	correct_rejection	NA	0
42	Triplet	99	423	99	8	0	0	92063	692	0	correct_rejection	NA	0
42	Triplet	100	424	100	9	0	0	92772	692	0	correct_rejection	NA	0
42	Triplet	101	425	101	7	0	0	93480	692	0	correct_rejection	NA	0
42	Triplet	102	426	102	8	0	0	94189	692	0	correct_rejection	NA	0
42	Triplet	103	427	103	9	0	0	94898	691	0	correct_rejection	NA	0
42	Triplet	104	428	104	6	0	0	95606	692	0	correct_rejection	NA	0
42	Triplet	105	429	105	5	0	0	96315	691	0	correct_rejection	NA	0
42	Triplet	106	430	106	4	0	0	97023	692	0	correct_rejection	NA	0
42	Triplet	107	431	107	0	1	2	97732	691	1	hit	306	0
42	Triplet	108	432	108	6	0	0	98440	692	0	correct_rejection	NA	0
42	Triplet	109	433	109	5	0	0	99149	692	0	correct_rejection	NA	0
42	Triplet	110	434	110	0	1	1	99858	691	1	hit	340	0
42	Triplet	111	435	111	4	0	0	100566	692	0	correct_rejection	NA	0
42	Triplet	112	436	112	9	0	0	101275	691	0	correct_rejection	NA	0
42	Triplet	113	437	113	8	0	0	101983	692	0	correct_rejection	NA	0
42	Triplet	114	438	114	7	0	0	102692	691	0	correct_rejection	NA	0
42	Triplet	115	439	115	4	0	0	103400	692	0	correct_rejection	NA	0
42	Triplet	116	440	116	5	0	0	104109	692	0	correct_rejection	NA	0
42	Triplet	117	441	117	6	0	0	104817	692	0	correct_rejection	NA	0
42	Triplet	118	442	118	9	0	0	105526	692	0	correct_rejection	NA	0
42	Triplet	119	443	119	8	0	0	106235	691	0	correct_rejection	NA	0
42	Triplet	120	444	120	7	0	0	106943	692	0	correct_rejection	NA	0
42	Triplet	121	445	121	7	0	0	107652	691	0	correct_rejection	NA	0
42	Triplet	122	446	122	8	0	0	108360	692	0	correct_rejection	NA	0
42	Triplet	123	447	123	9	0	0	109069	692	0	correct_rejection	NA	0
42	Triplet	124	448	124	6	0	0	109777	692	0	correct_rejection	NA	0
42	Triplet	125	449	125	5	0	0	110486	692	0	correct_rejection	NA	0
42	Triplet	126	450	126	4	0	0	111195	691	0	correct_rejection	NA	0
42	Triplet	127	451	127	4	0	0	111903	692	0	correct_rejection	NA	0
42	Triplet	128	452	128	0	1	1	112612	691	1	hit	319	0
42	Triplet	129	453	129	5	0	0	113320	692	0	correct_rejection	NA	0
42	Triplet	130	454	130	6	0	0	114029	692	0	correct_rejection	NA	0
42	Triplet	131	455	131	0	1	2	114737	692	1	hit	421	0
42	Triplet	132	456	132	4	0	0	115446	692	0	correct_rejection	NA	0
42	Triplet	133	457	133	5	0	0	116155	691	0	correct_rejection	NA	0
42	Triplet	134	458	134	6	0	0	116863	692	0	correct_rejection	NA	0
42	Triplet	135	459	135	6	0	0	117572	691	0	correct_rejection	NA	0
42	Triplet	136	460	136	5	0	0	118280	692	0	correct_rejection	NA	0
42	Triplet	137	461	137	4	0	0	118989	692	0	correct_rejection	NA	0
42	Triplet	138	462	138	6	0	0	119697	692	0	correct_rejection	NA	0
42	Triplet	139	463	139	5	0	0	120406	692	0	correct_rejection	NA	0
42	Triplet	140	464	140	0	1	1	121115	691	1	hit	342	0
42	Triplet	141	465	141	4	0	0	121823	692	0	correct_rejection	NA	0
42	Triplet	142	466	142	7	0	0	122532	691	0	correct_rejection	NA	0
42	Triplet	143	467	143	8	0	0	123240	692	0	correct_rejection	NA	0
42	Triplet	144	468	144	9	0	0	123949	692	0	correct_rejection	NA	0
42	Triplet	145	469	145	7	0	0	124657	692	0	correct_rejection	NA	0
42	Triplet	146	470	146	8	0	0	125366	692	0	correct_rejection	NA	0
42	Triplet	147	471	147	9	0	0	126075	691	0	correct_rejection	NA	0
42	Triplet	148	472	148	4	0	0	126783	692	0	correct_rejection	NA	0
42	Triplet	149	473	149	5	0	0	127492	691	0	correct_rejection	NA	0
42	Triplet	150	474	150	6	0	0	128200	692	0	correct_rejection	NA	0
42	Triplet	151	475	151	0	1	2	128909	691	1	hit	336	0
42	Triplet	152	476	152	7	0	0	129617	692	0	correct_rejection	NA	0
42	Triplet	153	477	153	8	0	0	130326	692	0	correct_rejection	NA	0
42	Triplet	154	478	154	0	1	1	131034	692	1	hit	377	0
42	Triplet	155	479	155	9	0	0	131743	692	0	correct_rejection	NA	0
42	Triplet	156	480	156	9	0	0	132452	691	0	correct_rejection	NA	0
42	Triplet	157	481	157	8	0	0	133160	692	0	correct_rejection	NA	0
42	Triplet	158	482	158	7	0	0	133869	691	0	correct_rejection	NA	0
42	Triplet	159	483	159	9	0	0	134577	692	0	correct_rejection	NA	0
42	Triplet	160	484	160	0	1	1	135286	692	1	hit	307	0
42	Triplet	161	485	161	8	0	0	135994	692	0	correct_rejection	NA	0
42	Triplet	162	486	162	7	0	0	136703	692	0	correct_rejection	NA	0
42	Nonet	1	325	163	4	0	0	146773	692	0	correct_rejection	NA	7529
42	Nonet	2	326	164	5	0	0	147482	691	0	correct_rejection	NA	0
42	Nonet	3	327	165	6	0	0	148190	692	0	correct_rejection	NA	0
42	Nonet	4	328	166	4	0	0	148899	691	0	correct_rejection	NA	0
42	Nonet	5	329	167	5	0	0	149607	692	0	correct_rejection	NA	0
42	Nonet	6	330	168	6	0	0	150316	692	0	correct_rejection	NA	0
42	Nonet	7	331	169	0	1	2	151024	692	1	hit	302	0
42	Nonet	8	332	170	4	0	0	151733	692	0	correct_rejection	NA	0
42	Nonet	9	333	171	5	0	0	152442	691	0	correct_rejection	NA	0
42	Nonet	10	334	172	6	0	0	153150	692	0	correct_rejection	NA	0
42	Nonet	11	335	173	6	0	0	153859	691	0	correct_rejection	NA	0
42	Nonet	12	336	174	0	1	1	154567	692	1	hit	372	0
42	Nonet	13	337	175	5	0	0	155276	692	0	correct_rejection	NA	0
42	Nonet	14	338	176	4	0	0	155984	692	0	correct_rejection	NA	0
42	Nonet	15	339	177	6	0	0	156693	692	0	correct_rejection	NA	0
42	Nonet	16	340	178	5	0	0	157402	691	0	correct_rejection	NA	0
42	Nonet	17	341	179	4	0	0	158110	692	0	correct_rejection	NA	0
42	Nonet	18	342	180	6	0	0	158819	691	0	correct_rejection	NA	0
42	Nonet	19	343	181	5	0	0	159527	692	0	correct_rejection	NA	0
42	Nonet	20	344	182	4	0	0	160236	692	0	correct_rejection	NA	0
42	Nonet	21	345	183	4	0	0	160944	692	0	correct_rejection	NA	0
42	Nonet	22	346	184	5	0	0	161653	692	0	correct_rejection	NA	0
42	Nonet	23	347	185	6	0	0	162362	691	0	correct_rejection	NA	0
42	Nonet	24	348	186	4	0	0	163070	692	0	correct_rejection	NA	0
42	Nonet	25	349	187	0	1	1	163779	691	1	hit	365	0
42	Nonet	26	350	188	5	0	0	164487	692	0	correct_rejection	NA	0
42	Nonet	27	351	189	6	0	0	165196	691	0	correct_rejection	NA	0
42	Nonet	28	352	190	4	0	0	165904	692	0	correct_rejection	NA	0
42	Nonet	29	353	191	5	0	0	166613	692	0	correct_rejection	NA	0
42	Nonet	30	354	192	6	0	0	167321	692	0	correct_rejection	NA	0
42	Nonet	31	355	193	9	0	0	168030	692	0	correct_rejection	NA	0
42	Nonet	32	356	194	8	0	0	168739	691	0	correct_rejection	NA	0
42	Nonet	33	357	195	7	0	0	169447	692	0	correct_rejection	NA	0
42	Nonet	34	358	196	9	0	0	170156	691	0	correct_rejection	NA	0
42	Nonet	35	359	197	8	0	0	170864	692	0	correct_rejection	NA	0
42	Nonet	36	360	198	7	0	0	171573	692	0	correct_rejection	NA	0
42	Nonet	37	361	199	9	0	0	172281	692	0	correct_rejection	NA	0
42	Nonet	38	362	200	8	0	0	172990	692	0	correct_rejection	NA	0
42	Nonet	39	363	201	7	0	0	173699	691	0	correct_rejection	NA	0
42	Nonet	40	364	202	4	0	0	174407	692	0	correct_rejection	NA	0
42	Nonet	41	365	203	5	0	0	175116	691	0	correct_rejection	NA	0
42	Nonet	42	366	204	6	0	0	175824	692	0	correct_rejection	NA	0
42	Nonet	43	367	205	4	0	0	176533	692	0	correct_rejection	NA	0
42	Nonet	44	368	206	5	0	0	177241	692	0	correct_rejection	NA	0
42	Nonet	45	369	207	0	1	1	177950	692	1	hit	327	0
42	Nonet	46	370	208	6	0	0	178659	691	0	correct_rejection	NA	0
42	Nonet	47	371	209	4	0	0	179367	692	0	correct_rejection	NA	0
42	Nonet	48	372	210	5	0	0	180076	691	0	correct_rejection	NA	0
42	Nonet	49	373	211	6	0	0	180784	692	0	correct_rejection	NA	0
42	Nonet	50	374	212	7	0	0	181493	692	0	correct_rejection	NA	0
42	Nonet	51	375	213	0	1	1	182201	692	1	hit	343	0
42	Nonet	52	376	214	8	0	0	182910	692	0	correct_rejection	NA	0
42	Nonet	53	377	215	9	0	0	183619	691	0	correct_rejection	NA	0
42	Nonet	54	378	216	7	0	0	184327	692	0	correct_rejection	NA	0
42	Nonet	55	379	217	8	0	0	185036	691	0	correct_rejection	NA	0
42	Nonet	56	380	218	9	0	0	185744	692	0	correct_rejection	NA	0
42	Nonet	57	381	219	7	0	0	186453	692	0	correct_rejection	NA	0
42	Nonet	58	382	220	8	0	0	187161	692	0	correct_rejection	NA	0
42	Nonet	59	383	221	9	0	0	187870	692	0	correct_rejection	NA	0
42	Nonet	60	384	222	9	0	0	188579	691	0	correct_rejection	NA	0
42	Nonet	61	385	223	8	0	0	189287	692	0	correct_rejection	NA	0
42	Nonet	62	386	224	7	0	0	189996	691	0	correct_rejection	NA	0
42	Nonet	63	387	225	9	0	0	190704	692	0	correct_rejection	NA	0
42	Nonet	64	388	226	8	0	0	191413	691	0	correct_rejection	NA	0
42	Nonet	65	389	227	0	1	1	192121	692	1	hit	304	0
42	Nonet	66	390	228	7	0	0	192830	692	0	correct_rejection	NA	0
42	Nonet	67	391	229	9	0	0	193538	692	0	correct_rejection	NA	0
42	Nonet	68	392	230	8	0	0	194247	692	0	correct_rejection	NA	0
42	Nonet	69	393	231	7	0	0	194956	691	0	correct_rejection	NA	0
42	Nonet	70	394	232	0	1	3	195664	692	1	hit	275	0
42	Nonet	71	395	233	9	0	0	196373	691	0	correct_rejection	NA	0
42	Nonet	72	396	234	8	0	0	197081	692	0	correct_rejection	NA	0
42	Nonet	73	397	235	7	0	0	197790	692	0	correct_rejection	NA	0
42	Nonet	74	398	236	9	0	0	198498	692	0	correct_rejection	NA	0
42	Nonet	75	399	237	8	0	0	199207	692	0	correct_rejection	NA	0
42	Nonet	76	400	238	7	0	0	199916	691	0	correct_rejection	NA	0
42	Nonet	77	401	239	9	0	0	200624	692	0	correct_rejection	NA	0
42	Nonet	78	402	240	0	1	1	201333	691	1	hit	334	0
42	Nonet	79	403	241	8	0	0	202041	692	0	correct_rejection	NA	0
42	Nonet	80	404	242	7	0	0	202750	692	0	correct_rejection	NA	0
42	Nonet	81	405	243	6	0	0	203458	692	0	correct_rejection	NA	0
42	Nonet	82	406	244	5	0	0	204167	692	0	correct_rejection	NA	0
42	Nonet	83	407	245	4	0	0	204876	691	0	correct_rejection	NA	0
42	Nonet	84	408	246	0	1	2	205584	692	1	hit	375	0
42	Nonet	85	409	247	6	0	0	206293	691	0	correct_rejection	NA	0
42	Nonet	86	410	248	5	0	0	207001	692	0	correct_rejection	NA	0
42	Nonet	87	411	249	4	0	0	207710	692	0	correct_rejection	NA	0
42	Nonet	88	412	250	6	0	0	208418	692	0	correct_rejection	NA	0
42	Nonet	89	413	251	5	0	0	209127	692	0	correct_rejection	NA	0
42	Nonet	90	414	252	4	0	0	209836	691	0	correct_rejection	NA	0
42	Nonet	91	415	253	7	0	0	210544	692	0	correct_rejection	NA	0
42	Nonet	92	416	254	8	0	0	211253	691	0	correct_rejection	NA	0
42	Nonet	93	417	255	9	0	0	211961	692	0	correct_rejection	NA	0
42	Nonet	94	418	256	7	0	0	212670	692	0	correct_rejection	NA	0
42	Nonet	95	419	257	8	0	0	213378	692	0	correct_rejection	NA	0
42	Nonet	96	420	258	9	0	0	214087	692	0	correct_rejection	NA	0
42	Nonet	97	421	259	7	0	0	214796	691	0	correct_rejection	NA	0
42	Nonet	98	422	260	8	0	0	215504	692	0	correct_rejection	NA	0
42	Nonet	99	423	261	9	0	0	216213	691	0	correct_rejection	NA	0
42	Nonet	100	424	262	6	0	0	216921	692	0	correct_rejection	NA	0
42	Nonet	101	425	263	0	1	1	217630	691	1	hit	352	0
42	Nonet	102	426	264	5	0	0	218338	692	0	correct_rejection	NA	0
42	Nonet	103	427	265	4	0	0	219047	692	0	correct_rejection	NA	0
42	Nonet	104	428	266	6	0	0	219755	692	0	correct_rejection	NA	0
42	Nonet	105	429	267	5	0	0	220464	692	0	correct_rejection	NA	0
42	Nonet	106	430	268	4	0	0	221173	691	0	correct_rejection	NA	0
42	Nonet	107	431	269	6	0	0	221881	692	0	correct_rejection	NA	0
42	Nonet	108	432	270	5	0	0	222590	691	0	correct_rejection	NA	0
42	Nonet	109	433	271	4	0	0	223298	692	0	correct_rejection	NA	0
42	Nonet	110	434	272	0	1	3	224007	692	1	hit	435	0
42	Nonet	111	435	273	6	0	0	224715	692	0	correct_rejection	NA	0
42	Nonet	112	436	274	5	0	0	225424	692	0	correct_rejection	NA	0
42	Nonet	113	437	275	0	1	1	226133	691	1	hit	455	0
42	Nonet	114	438	276	4	0	0	226841	692	0	correct_rejection	NA	0
42	Nonet	115	439	277	6	0	0	227550	691	0	correct_rejection	NA	0
42	Nonet	116	440	278	5	0	0	228258	692	0	correct_rejection	NA	0
42	Nonet	117	441	279	4	0	0	228967	692	0	correct_rejection	NA	0
42	Nonet	118	442	280	6	0	0	229675	692	0	correct_rejection	NA	0
42	Nonet	119	443	281	5	0	0	230384	692	0	correct_rejection	NA	0
42	Nonet	120	444	282	4	0	0	231093	691	0	correct_rejection	NA	0
42	Nonet	121	445	283	9	0	0	231801	692	0	correct_rejection	NA	0
42	Nonet	122	446	284	8	0	0	232510	691	0	correct_rejection	NA	0
42	Nonet	123	447	285	0	1	1	233218	692	1	hit	298	0
42	Nonet	124	448	286	7	0	0	233927	692	0	correct_rejection	NA	0
42	Nonet	125	449	287	9	0	0	234635	692	0	correct_rejection	NA	0
42	Nonet	126	450	288	8	0	0	235344	692	0	correct_rejection	NA	0
42	Nonet	127	451	289	7	0	0	236053	691	0	correct_rejection	NA	0
42	Nonet	128	452	290	9	0	0	236761	692	0	correct_rejection	NA	0
42	Nonet	129	453	291	8	0	0	237470	691	0	correct_rejection	NA	0
42	Nonet	130	454	292	7	0	0	238178	692	0	correct_rejection	NA	0
42	Nonet	131	455	293	0	1	3	238887	692	1	hit	424	0
42	Nonet	132	456	294	7	0	0	239595	692	0	correct_rejection	NA	0
42	Nonet	133	457	295	8	0	0	240304	692	0	correct_rejection	NA	0
42	Nonet	134	458	296	9	0	0	241013	691	0	correct_rejection	NA	0
42	Nonet	135	459	297	7	0	0	241721	692	0	correct_rejection	NA	0
42	Nonet	136	460	298	8	0	0	242430	691	0	correct_rejection	NA	0
42	Nonet	137	461	299	0	1	1	243138	692	1	hit	486	0
42	Nonet	138	462	300	9	0	0	243847	691	0	correct_rejection	NA	0
42	Nonet	139	463	301	7	0	0	244555	692	0	correct_rejection	NA	0
42	Nonet	140	464	302	8	0	0	245264	692	0	correct_rejection	NA	0
42	Nonet	141	465	303	9	0	0	245972	692	0	correct_rejection	NA	0
42	Nonet	142	466	304	0	1	3	246681	692	1	hit	369	0
42	Nonet	143	467	305	7	0	0	247390	691	0	correct_rejection	NA	0
42	Nonet	144	468	306	8	0	0	248098	692	0	correct_rejection	NA	0
42	Nonet	145	469	307	9	0	0	248807	691	0	correct_rejection	NA	0
42	Nonet	146	470	308	7	0	0	249515	692	0	correct_rejection	NA	0
42	Nonet	147	471	309	8	0	0	250224	692	0	correct_rejection	NA	0
42	Nonet	148	472	310	9	0	0	250932	692	0	correct_rejection	NA	0
42	Nonet	149	473	311	7	0	0	251641	692	0	correct_rejection	NA	0
42	Nonet	150	474	312	8	0	0	252350	691	0	correct_rejection	NA	0
42	Nonet	151	475	313	9	0	0	253058	692	0	correct_rejection	NA	0
42	Nonet	152	476	314	4	0	0	253767	691	0	correct_rejection	NA	0
42	Nonet	153	477	315	5	0	0	254475	692	0	correct_rejection	NA	0
42	Nonet	154	478	316	0	1	1	255184	692	1	hit	331	0
42	Nonet	155	479	317	6	0	0	255892	692	0	correct_rejection	NA	0
42	Nonet	156	480	318	4	0	0	256601	692	0	correct_rejection	NA	0
42	Nonet	157	481	319	0	1	1	257310	691	1	hit	384	0
42	Nonet	158	482	320	5	0	0	258018	692	0	correct_rejection	NA	0
42	Nonet	159	483	321	6	0	0	258727	691	0	correct_rejection	NA	0
42	Nonet	160	484	322	4	0	0	259435	692	0	correct_rejection	NA	0
42	Nonet	161	485	323	5	0	0	260144	692	0	correct_rejection	NA	0
42	Nonet	162	486	324	6	0	0	260852	692	0	correct_rejection	NA	0
42	Correct	1	1	325	4	0	0	270339	692	0	correct_rejection	NA	7099
42	Correct	2	2	326	5	0	0	271047	692	0	correct_rejection	NA	0
42	Correct	3	3	327	6	0	0	271756	692	0	correct_rejection	NA	0
42	Correct	4	4	328	0	1	2	272465	691	1	hit	308	0
42	Correct	5	5	329	4	0	0	273173	692	0	correct_rejection	NA	0
42	Correct	6	6	330	5	0	0	273882	691	0	correct_rejection	NA	0
42	Correct	7	7	331	6	0	0	274590	692	0	correct_rejection	NA	0
42	Correct	8	8	332	4	0	0	275299	692	0	correct_rejection	NA	0
42	Correct	9	9	333	5	0	0	276007	692	0	correct_rejection	NA	0
42	Correct	10	10	334	6	0	0	276716	692	0	correct_rejection	NA	0
42	Correct	11	11	335	0	1	3	277425	691	1	hit	299	0
42	Correct	12	12	336	6	0	0	278133	692	0	correct_rejection	NA	0
42	Correct	13	13	337	5	0	0	278842	691	0	correct_rejection	NA	0
42	Correct	14	14	338	4	0	0	279550	692	0	correct_rejection	NA	0
42	Correct	15	15	339	6	0	0	280259	692	0	correct_rejection	NA	0
42	Correct	16	16	340	0	1	1	280967	692	1	hit	436	0
42	Correct	17	17	341	5	0	0	281676	692	0	correct_rejection	NA	0
42	Correct	18	18	342	4	0	0	282385	691	0	correct_rejection	NA	0
42	Correct	19	19	343	6	0	0	283093	692	0	correct_rejection	NA	0
42	Correct	20	20	344	5	0	0	283802	691	0	correct_rejection	NA	0
42	Correct	21	21	345	4	0	0	284510	692	0	correct_rejection	NA	0
42	Correct	22	22	346	9	0	0	285219	692	0	correct_rejection	NA	0
42	Correct	23	23	347	8	0	0	285927	692	0	correct_rejection	NA	0
42	Correct	24	24	348	7	0	0	286636	692	0	correct_rejection	NA	0
42	Correct	25	25	349	9	0	0	287345	691	0	correct_rejection	NA	0
42	Correct	26	26	350	8	0	0	288053	692	0	correct_rejection	NA	0
42	Correct	27	27	351	7	0	0	288762	691	0	correct_rejection	NA	0
42	Correct	28	28	352	0	1	2	289470	692	1	hit	470	0
42	Correct	29	29	353	9	0	0	290179	691	0	correct_rejection	NA	0
42	Correct	30	30	354	8	0	0	290887	692	0	correct_rejection	NA	0
42	Correct	31	31	355	7	0	0	291596	692	0	correct_rejection	NA	0
42	Correct	32	32	356	7	0	0	292304	692	0	correct_rejection	NA	0
42	Correct	33	33	357	8	0	0	293013	692	0	correct_rejection	NA	0
42	Correct	34	34	358	9	0	0	293722	691	0	correct_rejection	NA	0
42	Correct	35	35	359	7	0	0	294430	692	0	correct_rejection	NA	0
42	Correct	36	36	360	8	0	0	295139	691	0	correct_rejection	NA	0
42	Correct	37	37	361	9	0	0	295847	692	0	correct_rejection	NA	0
42	Correct	38	38	362	7	0	0	296556	692	0	correct_rejection	NA	0
42	Correct	39	39	363	8	0	0	297264	692	0	correct_rejection	NA	0
42	Correct	40	40	364	9	0	0	297973	692	0	correct_rejection	NA	0
42	Correct	41	41	365	0	1	4	298682	691	1	hit	451	0
42	Correct	42	42	366	4	0	0	299390	692	0	correct_rejection	NA	0
42	Correct	43	43	367	5	0	0	300099	691	0	correct_rejection	NA	0
42	Correct	44	44	368	0	1	1	300807	692	1	hit	516	0
42	Correct	45	45	369	6	0	0	301516	692	0	correct_rejection	NA	0
42	Correct	46	46	370	4	0	0	302224	692	0	correct_rejection	NA	0
42	Correct	47	47	371	5	0	0	302933	692	0	correct_rejection	NA	0
42	Correct	48	48	372	6	0	0	303642	691	0	correct_rejection	NA	0
42	Correct	49	49	373	4	0	0	304350	692	0	correct_rejection	NA	0
42	Correct	50	50	374	5	0	0	305059	691	0	correct_rejection	NA	0
42	Correct	51	51	375	6	0	0	305767	692	0	correct_rejection	NA	0
42	Correct	52	52	376	6	0	0	306476	692	0	correct_rejection	NA	0
42	Correct	53	53	377	5	0	0	307184	692	0	correct_rejection	NA	0
42	Correct	54	54	378	4	0	0	307893	692	0	correct_rejection	NA	0
42	Correct	55	55	379	6	0	0	308602	691	0	correct_rejection	NA	0
42	Correct	56	56	380	5	0	0	309310	692	0	correct_rejection	NA	0
42	Correct	57	57	381	4	0	0	310019	691	0	correct_rejection	NA	0
42	Correct	58	58	382	6	0	0	310727	692	0	correct_rejection	NA	0
42	Correct	59	59	383	5	0	0	311436	692	0	correct_rejection	NA	0
42	Correct	60	60	384	4	0	0	312144	692	0	correct_rejection	NA	0
42	Correct	61	61	385	9	0	0	312853	692	0	correct_rejection	NA	0
42	Correct	62	62	386	8	0	0	313562	691	0	correct_rejection	NA	0
42	Correct	63	63	387	7	0	0	314270	692	0	correct_rejection	NA	0
42	Correct	64	64	388	9	0	0	314979	691	0	correct_rejection	NA	0
42	Correct	65	65	389	8	0	0	315687	692	0	correct_rejection	NA	0
42	Correct	66	66	390	7	0	0	316396	691	0	correct_rejection	NA	0
42	Correct	67	67	391	9	0	0	317104	692	0	correct_rejection	NA	0
42	Correct	68	68	392	8	0	0	317813	692	0	correct_rejection	NA	0
42	Correct	69	69	393	7	0	0	318521	692	0	correct_rejection	NA	0
42	Correct	70	70	394	7	0	0	319230	692	0	correct_rejection	NA	0
42	Correct	71	71	395	8	0	0	319939	691	0	correct_rejection	NA	0
42	Correct	72	72	396	9	0	0	320647	692	0	correct_rejection	NA	0
42	Correct	73	73	397	7	0	0	321356	691	0	correct_rejection	NA	0
42	Correct	74	74	398	8	0	0	322064	692	0	correct_rejection	NA	0
42	Correct	75	75	399	9	0	0	322773	692	0	correct_rejection	NA	0
42	Correct	76	76	400	7	0	0	323481	692	0	correct_rejection	NA	0
42	Correct	77	77	401	8	0	0	324190	692	0	correct_rejection	NA	0
42	Correct	78	78	402	9	0	0	324899	691	0	correct_rejection	NA	0
42	Correct	79	79	403	4	0	0	325607	692	0	correct_rejection	NA	0
42	Correct	80	80	404	0	1	1	326316	691	1	hit	329	0
42	Correct	81	81	405	5	0	0	327024	692	0	correct_rejection	NA	0
42	Correct	82	82	406	6	0	0	327733	692	0	correct_rejection	NA	0
42	Correct	83	83	407	4	0	0	328441	692	0	correct_rejection	NA	0
42	Correct	84	84	408	5	0	0	329150	692	0	correct_rejection	NA	0
42	Correct	85	85	409	6	0	0	329859	691	0	correct_rejection	NA	0
42	Correct	86	86	410	4	0	0	330567	692	0	correct_rejection	NA	0
42	Correct	87	87	411	0	1	1	331276	691	1	hit	433	0
42	Correct	88	88	412	5	0	0	331984	692	0	correct_rejection	NA	0
42	Correct	89	89	413	6	0	0	332693	692	0	correct_rejection	NA	0
42	Correct	90	90	414	6	0	0	333401	692	0	correct_rejection	NA	0
42	Correct	91	91	415	5	0	0	334110	692	0	correct_rejection	NA	0
42	Correct	92	92	416	0	1	1	334819	691	1	hit	565	0
42	Correct	93	93	417	4	0	0	335527	692	0	correct_rejection	NA	0
42	Correct	94	94	418	6	0	0	336236	691	0	correct_rejection	NA	0
42	Correct	95	95	419	5	0	0	336944	692	0	correct_rejection	NA	0
42	Correct	96	96	420	0	1	1	337653	692	1	hit	318	0
42	Correct	97	97	421	4	0	0	338361	692	0	correct_rejection	NA	0
42	Correct	98	98	422	6	0	0	339070	692	0	correct_rejection	NA	0
42	Correct	99	99	423	5	0	0	339779	691	0	correct_rejection	NA	0
42	Correct	100	100	424	4	0	0	340487	692	0	correct_rejection	NA	0
42	Correct	101	101	425	9	0	0	341196	691	0	correct_rejection	NA	0
42	Correct	102	102	426	0	1	1	341904	692	1	hit	360	0
42	Correct	103	103	427	8	0	0	342613	691	0	correct_rejection	NA	0
42	Correct	104	104	428	7	0	0	343321	692	0	correct_rejection	NA	0
42	Correct	105	105	429	9	0	0	344030	692	0	correct_rejection	NA	0
42	Correct	106	106	430	8	0	0	344738	692	0	correct_rejection	NA	0
42	Correct	107	107	431	7	0	0	345447	692	0	correct_rejection	NA	0
42	Correct	108	108	432	9	0	0	346156	691	0	correct_rejection	NA	0
42	Correct	109	109	433	8	0	0	346864	692	0	correct_rejection	NA	0
42	Correct	110	110	434	0	1	1	347573	691	1	hit	316	0
42	Correct	111	111	435	7	0	0	348281	692	0	correct_rejection	NA	0
42	Correct	112	112	436	7	0	0	348990	692	0	correct_rejection	NA	0
42	Correct	113	113	437	8	0	0	349698	692	0	correct_rejection	NA	0
42	Correct	114	114	438	9	0	0	350407	692	0	correct_rejection	NA	0
42	Correct	115	115	439	7	0	0	351116	691	0	correct_rejection	NA	0
42	Correct	116	116	440	8	0	0	351824	692	0	correct_rejection	NA	0
42	Correct	117	117	441	9	0	0	352533	691	0	correct_rejection	NA	0
42	Correct	118	118	442	7	0	0	353241	692	0	correct_rejection	NA	0
42	Correct	119	119	443	8	0	0	353950	692	0	correct_rejection	NA	0
42	Correct	120	120	444	0	1	1	354658	692	1	hit	306	0
42	Correct	121	121	445	9	0	0	355367	692	0	correct_rejection	NA	0
42	Correct	122	122	446	4	0	0	356076	691	0	correct_rejection	NA	0
42	Correct	123	123	447	5	0	0	356784	692	0	correct_rejection	NA	0
42	Correct	124	124	448	6	0	0	357493	691	0	correct_rejection	NA	0
42	Correct	125	125	449	4	0	0	358201	692	0	correct_rejection	NA	0
42	Correct	126	126	450	5	0	0	358910	692	0	correct_rejection	NA	0
42	Correct	127	127	451	6	0	0	359618	692	0	correct_rejection	NA	0
42	Correct	128	128	452	4	0	0	360327	692	0	correct_rejection	NA	0
42	Correct	129	129	453	5	0	0	361036	691	0	correct_rejection	NA	0
42	Correct	130	130	454	0	1	1	361744	692	1	hit	446	0
42	Correct	131	131	455	6	0	0	362453	691	0	correct_rejection	NA	0
42	Correct	132	132	456	6	0	0	363161	692	0	correct_rejection	NA	0
42	Correct	133	133	457	0	1	1	363870	692	1	hit	347	0
42	Correct	134	134	458	5	0	0	364578	692	0	correct_rejection	NA	0
42	Correct	135	135	459	4	0	0	365287	692	0	correct_rejection	NA	0
42	Correct	136	136	460	6	0	0	365996	691	0	correct_rejection	NA	0
42	Correct	137	137	461	5	0	0	366704	692	0	correct_rejection	NA	0
42	Correct	138	138	462	4	0	0	367413	691	0	correct_rejection	NA	0
42	Correct	139	139	463	0	1	2	368121	692	1	hit	353	0
42	Correct	140	140	464	6	0	0	368830	691	0	correct_rejection	NA	0
42	Correct	141	141	465	5	0	0	369538	692	0	correct_rejection	NA	0
42	Correct	142	142	466	4	0	0	370247	692	0	correct_rejection	NA	0
42	Correct	143	143	467	9	0	0	370956	691	0	correct_rejection	NA	0
42	Correct	144	144	468	8	0	0	371664	692	0	correct_rejection	NA	0
42	Correct	145	145	469	7	0	0	372373	691	0	correct_rejection	NA	0
42	Correct	146	146	470	9	0	0	373081	692	0	correct_rejection	NA	0
42	Correct	147	147	471	8	0	0	373790	691	0	correct_rejection	NA	0
42	Correct	148	148	472	7	0	0	374498	692	0	correct_rejection	NA	0
42	Correct	149	149	473	9	0	0	375207	692	0	correct_rejection	NA	0
42	Correct	150	150	474	0	1	1	375915	692	1	hit	381	0
42	Correct	151	151	475	8	0	0	376624	692	0	correct_rejection	NA	0
42	Correct	152	152	476	7	0	0	377333	691	0	correct_rejection	NA	0
42	Correct	153	153	477	7	0	0	378041	692	0	correct_rejection	NA	0
42	Correct	154	154	478	8	0	0	378750	691	0	correct_rejection	NA	0
42	Correct	155	155	479	9	0	0	379458	692	0	correct_rejection	NA	0
42	Correct	156	156	480	0	1	2	380167	692	1	hit	333	0
42	Correct	157	157	481	7	0	0	380875	692	0	correct_rejection	NA	0
42	Correct	158	158	482	8	0	0	381584	692	0	correct_rejection	NA	0
42	Correct	159	159	483	9	0	0	382293	691	0	correct_rejection	NA	0
42	Correct	160	160	484	7	0	0	383001	692	0	correct_rejection	NA	0
42	Correct	161	161	485	8	0	0	383710	691	0	correct_rejection	NA	0
42	Correct	162	162	486	9	0	0	384418	692	0	correct_rejection	NA	0
42	Triplet	1	163	487	6	0	0	394138	692	0	correct_rejection	NA	7899
42	Triplet	2	164	488	5	0	0	394847	691	0	correct_rejection	NA	0
42	Triplet	3	165	489	4	0	0	395555	692	0	correct_rejection	NA	0
42	Triplet	4	166	490	0	1	2	396264	692	1	hit	296	0
42	Triplet	5	167	491	6	0	0	396972	692	0	correct_rejection	NA	0
42	Triplet	6	168	492	5	0	0	397681	692	0	correct_rejection	NA	0
42	Triplet	7	169	493	0	1	1	398390	691	1	hit	309	0
42	Triplet	8	170	494	4	0	0	399098	692	0	correct_rejection	NA	0
42	Triplet	9	171	495	4	0	0	399807	691	0	correct_rejection	NA	0
42	Triplet	10	172	496	5	0	0	400515	692	0	correct_rejection	NA	0
42	Triplet	11	173	497	0	1	1	401224	692	1	hit	325	0
42	Triplet	12	174	498	6	0	0	401932	692	0	correct_rejection	NA	0
42	Triplet	13	175	499	9	0	0	402641	692	0	correct_rejection	NA	0
42	Triplet	14	176	500	8	0	0	403350	691	0	correct_rejection	NA	0
42	Triplet	15	177	501	7	0	0	404058	692	0	correct_rejection	NA	0
42	Triplet	16	178	502	6	0	0	404767	691	0	correct_rejection	NA	0
42	Triplet	17	179	503	0	1	1	405475	692	1	hit	371	0
42	Triplet	18	180	504	5	0	0	406184	692	0	correct_rejection	NA	0
42	Triplet	19	181	505	4	0	0	406892	692	0	correct_rejection	NA	0
42	Triplet	20	182	506	9	0	0	407601	692	0	correct_rejection	NA	0
42	Triplet	21	183	507	8	0	0	408310	691	0	correct_rejection	NA	0
42	Triplet	22	184	508	7	0	0	409018	692	0	correct_rejection	NA	0
42	Triplet	23	185	509	0	1	2	409727	691	1	hit	428	0
42	Triplet	24	186	510	7	0	0	410435	692	0	correct_rejection	NA	0
42	Triplet	25	187	511	8	0	0	411144	691	0	correct_rejection	NA	0
42	Triplet	26	188	512	9	0	0	411852	692	0	correct_rejection	NA	0
42	Triplet	27	189	513	6	0	0	412561	692	0	correct_rejection	NA	0
42	Triplet	28	190	514	5	0	0	413269	692	0	correct_rejection	NA	0
42	Triplet	29	191	515	0	1	1	413978	692	1	hit	340	0
42	Triplet	30	192	516	4	0	0	414687	691	0	correct_rejection	NA	0
42	Triplet	31	193	517	7	0	0	415395	692	0	correct_rejection	NA	0
42	Triplet	32	194	518	8	0	0	416104	691	0	correct_rejection	NA	0
42	Triplet	33	195	519	9	0	0	416812	692	0	correct_rejection	NA	0
42	Triplet	34	196	520	7	0	0	417521	692	0	correct_rejection	NA	0
42	Triplet	35	197	521	8	0	0	418229	692	0	correct_rejection	NA	0
42	Triplet	36	198	522	9	0	0	418938	692	0	correct_rejection	NA	0
42	Triplet	37	199	523	9	0	0	419647	691	0	correct_rejection	NA	0
42	Triplet	38	200	524	8	0	0	420355	692	0	correct_rejection	NA	0
42	Triplet	39	201	525	7	0	0	421064	691	0	correct_rejection	NA	0
42	Triplet	40	202	526	9	0	0	421772	692	0	correct_rejection	NA	0
42	Triplet	41	203	527	8	0	0	422481	692	0	correct_rejection	NA	0
42	Triplet	42	204	528	0	1	1	423189	692	1	hit	386	0
42	Triplet	43	205	529	7	0	0	423898	692	0	correct_rejection	NA	0
42	Triplet	44	206	530	4	0	0	424607	691	0	correct_rejection	NA	0
42	Triplet	45	207	531	5	0	0	425315	692	0	correct_rejection	NA	0
42	Triplet	46	208	532	6	0	0	426024	691	0	correct_rejection	NA	0
42	Triplet	47	209	533	4	0	0	426732	692	0	correct_rejection	NA	0
42	Triplet	48	210	534	5	0	0	427441	692	0	correct_rejection	NA	0
42	Triplet	49	211	535	6	0	0	428149	692	0	correct_rejection	NA	0
42	Triplet	50	212	536	7	0	0	428858	692	0	correct_rejection	NA	0
42	Triplet	51	213	537	8	0	0	429567	691	0	correct_rejection	NA	0
42	Triplet	52	214	538	9	0	0	430275	692	0	correct_rejection	NA	0
42	Triplet	53	215	539	4	0	0	430984	691	0	correct_rejection	NA	0
42	Triplet	54	216	540	5	0	0	431692	692	0	correct_rejection	NA	0
42	Triplet	55	217	541	6	0	0	432401	692	0	correct_rejection	NA	0
42	Triplet	56	218	542	7	0	0	433109	692	0	correct_rejection	NA	0
42	Triplet	57	219	543	0	1	1	433818	692	1	hit	440	0
42	Triplet	58	220	544	8	0	0	434527	691	0	correct_rejection	NA	0
42	Triplet	59	221	545	9	0	0	435235	692	0	correct_rejection	NA	0
42	Triplet	60	222	546	0	1	2	435944	691	1	hit	471	0
42	Triplet	61	223	547	6	0	0	436652	692	0	correct_rejection	NA	0
42	Triplet	62	224	548	5	0	0	437361	691	0	correct_rejection	NA	0
42	Triplet	63	225	549	4	0	0	438069	692	0	correct_rejection	NA	0
42	Triplet	64	226	550	6	0	0	438778	692	0	correct_rejection	NA	0
42	Triplet	65	227	551	5	0	0	439486	692	0	correct_rejection	NA	0
42	Triplet	66	228	552	4	0	0	440195	692	0	correct_rejection	NA	0
42	Triplet	67	229	553	9	0	0	440904	691	0	correct_rejection	NA	0
42	Triplet	68	230	554	8	0	0	441612	692	0	correct_rejection	NA	0
42	Triplet	69	231	555	7	0	0	442321	691	0	correct_rejection	NA	0
42	Triplet	70	232	556	4	0	0	443029	692	0	correct_rejection	NA	0
42	Triplet	71	233	557	0	1	1	443738	692	1	hit	439	0
42	Triplet	72	234	558	5	0	0	444446	692	0	correct_rejection	NA	0
42	Triplet	73	235	559	6	0	0	445155	692	0	correct_rejection	NA	0
42	Triplet	74	236	560	7	0	0	445864	691	0	correct_rejection	NA	0
42	Triplet	75	237	561	8	0	0	446572	692	0	correct_rejection	NA	0
42	Triplet	76	238	562	9	0	0	447281	691	0	correct_rejection	NA	0
42	Triplet	77	239	563	7	0	0	447989	692	0	correct_rejection	NA	0
42	Triplet	78	240	564	8	0	0	448698	692	0	correct_rejection	NA	0
42	Triplet	79	241	565	9	0	0	449406	692	0	correct_rejection	NA	0
42	Triplet	80	242	566	4	0	0	450115	692	0	correct_rejection	NA	0
42	Triplet	81	243	567	5	0	0	450824	691	0	correct_rejection	NA	0
42	Triplet	82	244	568	6	0	0	451532	692	0	correct_rejection	NA	0
42	Triplet	83	245	569	6	0	0	452241	691	0	correct_rejection	NA	0
42	Triplet	84	246	570	5	0	0	452949	692	0	correct_rejection	NA	0
42	Triplet	85	247	571	4	0	0	453658	692	0	correct_rejection	NA	0
42	Triplet	86	248	572	7	0	0	454366	692	0	correct_rejection	NA	0
42	Triplet	87	249	573	8	0	0	455075	692	0	correct_rejection	NA	0
42	Triplet	88	250	574	9	0	0	455784	691	0	correct_rejection	NA	0
42	Triplet	89	251	575	9	0	0	456492	692	0	correct_rejection	NA	0
42	Triplet	90	252	576	8	0	0	457201	691	0	correct_rejection	NA	0
42	Triplet	91	253	577	7	0	0	457909	692	0	correct_rejection	NA	0
42	Triplet	92	254	578	6	0	0	458618	692	0	correct_rejection	NA	0
42	Triplet	93	255	579	5	0	0	459326	692	0	correct_rejection	NA	0
42	Triplet	94	256	580	4	0	0	460035	692	0	correct_rejection	NA	0
42	Triplet	95	257	581	4	0	0	460744	691	0	correct_rejection	NA	0
42	Triplet	96	258	582	5	0	0	461452	692	0	correct_rejection	NA	0
42	Triplet	97	259	583	6	0	0	462161	691	0	correct_rejection	NA	0
42	Triplet	98	260	584	4	0	0	462869	692	0	correct_rejection	NA	0
42	Triplet	99	261	585	5	0	0	463578	691	0	correct_rejection	NA	0
42	Triplet	100	262	586	6	0	0	464286	692	0	correct_rejection	NA	0
42	Triplet	101	263	587	9	0	0	464995	692	0	correct_rejection	NA	0
42	Triplet	102	264	588	8	0	0	465703	692	0	correct_rejection	NA	0
42	Triplet	103	265	589	7	0	0	466412	692	0	correct_rejection	NA	0
42	Triplet	104	266	590	0	1	2	467121	691	1	hit	462	0
42	Triplet	105	267	591	9	0	0	467829	692	0	correct_rejection	NA	0
42	Triplet	106	268	592	8	0	0	468538	691	0	correct_rejection	NA	0
42	Triplet	107	269	593	7	0	0	469246	692	0	correct_rejection	NA	0
42	Triplet	108	270	594	4	0	0	469955	692	0	correct_rejection	NA	0
42	Triplet	109	271	595	5	0	0	470663	692	0	correct_rejection	NA	0
42	Triplet	110	272	596	6	0	0	471372	692	0	correct_rejection	NA	0
42	Triplet	111	273	597	4	0	0	472081	691	0	correct_rejection	NA	0
42	Triplet	112	274	598	5	0	0	472789	692	0	correct_rejection	NA	0
42	Triplet	113	275	599	6	0	0	473498	691	0	correct_rejection	NA	0
42	Triplet	114	276	600	6	0	0	474206	692	0	correct_rejection	NA	0
42	Triplet	115	277	601	0	1	1	474915	692	1	hit	494	0
42	Triplet	116	278	602	5	0	0	475623	692	0	correct_rejection	NA	0
42	Triplet	117	279	603	4	0	0	476332	692	0	correct_rejection	NA	0
42	Triplet	118	280	604	9	0	0	477041	691	0	correct_rejection	NA	0
42	Triplet	119	281	605	8	0	0	477749	692	0	correct_rejection	NA	0
42	Triplet	120	282	606	0	1	1	478458	691	1	hit	418	0
42	Triplet	121	283	607	7	0	0	479166	692	0	correct_rejection	NA	0
42	Triplet	122	284	608	9	0	0	479875	692	0	correct_rejection	NA	0
42	Triplet	123	285	609	0	1	1	480583	692	1	hit	399	0
42	Triplet	124	286	610	8	0	0	481292	692	0	correct_rejection	NA	0
42	Triplet	125	287	611	7	0	0	482001	691	0	correct_rejection	NA	0
42	Triplet	126	288	612	6	0	0	482709	692	0	correct_rejection	NA	0
42	Triplet	127	289	613	5	0	0	483418	691	0	correct_rejection	NA	0
42	Triplet	128	290	614	4	0	0	484126	692	0	correct_rejection	NA	0
42	Triplet	129	291	615	6	0	0	484835	692	0	correct_rejection	NA	0
42	Triplet	130	292	616	5	0	0	485543	692	0	correct_rejection	NA	0
42	Triplet	131	293	617	4	0	0	486252	692	0	correct_rejection	NA	0
42	Triplet	132	294	618	7	0	0	486961	691	0	correct_rejection	NA	0
42	Triplet	133	295	619	0	1	1	487669	692	1	hit	305	0
42	Triplet	134	296	620	8	0	0	488378	691	0	correct_rejection	NA	0
42	Triplet	135	297	621	9	0	0	489086	692	0	correct_rejection	NA	0
42	Triplet	136	298	622	4	0	0	489795	691	0	correct_rejection	NA	0
42	Triplet	137	299	623	5	0	0	490503	692	0	correct_rejection	NA	0
42	Triplet	138	300	624	6	0	0	491212	692	0	correct_rejection	NA	0
42	Triplet	139	301	625	7	0	0	491921	691	0	correct_rejection	NA	0
42	Triplet	140	302	626	8	0	0	492629	692	0	correct_rejection	NA	0
42	Triplet	141	303	627	0	1	1	493338	691	1	hit	307	0
42	Triplet	142	304	628	9	0	0	494046	692	0	correct_rejection	NA	0
42	Triplet	143	305	629	9	0	0	494755	691	0	correct_rejection	NA	0
42	Triplet	144	306	630	8	0	0	495463	692	0	correct_rejection	NA	0
42	Triplet	145	307	631	7	0	0	496172	692	0	correct_rejection	NA	0
42	Triplet	146	308	632	4	0	0	496880	692	0	correct_rejection	NA	0
42	Triplet	147	309	633	5	0	0	497589	692	0	correct_rejection	NA	0
42	Triplet	148	310	634	6	0	0	498298	691	0	correct_rejection	NA	0
42	Triplet	149	311	635	9	0	0	499006	692	0	correct_rejection	NA	0
42	Triplet	150	312	636	0	1	1	499715	691	1	hit	389	0
42	Triplet	151	313	637	8	0	0	500423	692	0	correct_rejection	NA	0
42	Triplet	152	314	638	7	0	0	501132	692	0	correct_rejection	NA	0
42	Triplet	153	315	639	7	0	0	501840	692	0	correct_rejection	NA	0
42	Triplet	154	316	640	8	0	0	502549	692	0	correct_rejection	NA	0
42	Triplet	155	317	641	9	0	0	503258	691	0	correct_rejection	NA	0
42	Triplet	156	318	642	7	0	0	503966	692	0	correct_rejection	NA	0
42	Triplet	157	319	643	0	1	1	504675	691	1	hit	361	0
42	Triplet	158	320	644	8	0	0	505383	692	0	correct_rejection	NA	0
42	Triplet	159	321	645	9	0	0	506092	692	0	correct_rejection	NA	0
42	Triplet	160	322	646	6	0	0	506800	692	0	correct_rejection	NA	0
42	Triplet	161	323	647	5	0	0	507509	692	0	correct_rejection	NA	0
42	Triplet	162	324	648	4	0	0	508218	691	0	correct_rejection	NA	0
42	Single	1	649	649	8	0	0	517562	692	0	correct_rejection	NA	7328
42	Single	2	650	650	9	0	0	518271	692	0	correct_rejection	NA	0
42	Single	3	651	651	8	0	0	518979	692	0	correct_rejection	NA	0
42	Single	4	652	652	5	0	0	519688	692	0	correct_rejection	NA	0
42	Single	5	653	653	4	0	0	520397	691	0	correct_rejection	NA	0
42	Single	6	654	654	4	0	0	521105	692	0	correct_rejection	NA	0
42	Single	7	655	655	9	0	0	521814	691	0	correct_rejection	NA	0
42	Single	8	656	656	9	0	0	522522	692	0	correct_rejection	NA	0
42	Single	9	657	657	4	0	0	523231	692	0	correct_rejection	NA	0
42	Single	10	658	658	7	0	0	523939	692	0	correct_rejection	NA	0
42	Single	11	659	659	4	0	0	524648	692	0	correct_rejection	NA	0
42	Single	12	660	660	5	0	0	525357	691	0	correct_rejection	NA	0
42	Single	13	661	661	7	0	0	526065	692	0	correct_rejection	NA	0
42	Single	14	662	662	6	0	0	526774	691	0	correct_rejection	NA	0
42	Single	15	663	663	8	0	0	527482	692	0	correct_rejection	NA	0
42	Single	16	664	664	7	0	0	528191	692	0	correct_rejection	NA	0
42	Single	17	665	665	5	0	0	528899	692	0	correct_rejection	NA	0
42	Single	18	666	666	5	0	0	529608	692	0	correct_rejection	NA	0
42	Single	19	667	667	9	0	0	530317	691	0	correct_rejection	NA	0
42	Single	20	668	668	5	0	0	531025	692	0	correct_rejection	NA	0
42	Single	21	669	669	0	1	1	531734	691	1	hit	551	0
42	Single	22	670	670	8	0	0	532442	692	0	correct_rejection	NA	0
42	Single	23	671	671	6	0	0	533151	692	0	correct_rejection	NA	0
42	Single	24	672	672	5	0	0	533859	692	0	correct_rejection	NA	0
42	Single	25	673	673	6	0	0	534568	692	0	correct_rejection	NA	0
42	Single	26	674	674	6	0	0	535277	691	0	correct_rejection	NA	0
42	Single	27	675	675	7	0	0	535985	692	0	correct_rejection	NA	0
42	Single	28	676	676	9	0	0	536694	691	0	correct_rejection	NA	0
42	Single	29	677	677	6	0	0	537402	692	0	correct_rejection	NA	0
42	Single	30	678	678	9	0	0	538111	691	0	correct_rejection	NA	0
42	Single	31	679	679	7	0	0	538819	692	0	correct_rejection	NA	0
42	Single	32	680	680	7	0	0	539528	692	0	correct_rejection	NA	0
42	Single	33	681	681	0	1	1	540236	692	1	hit	344	0
42	Single	34	682	682	8	0	0	540945	692	0	correct_rejection	NA	0
42	Single	35	683	683	8	0	0	541654	691	0	correct_rejection	NA	0
42	Single	36	684	684	4	0	0	542362	692	0	correct_rejection	NA	0
42	Single	37	685	685	6	0	0	543071	691	0	correct_rejection	NA	0
42	Single	38	686	686	4	0	0	543779	692	0	correct_rejection	NA	0
42	Single	39	687	687	7	0	0	544488	692	0	correct_rejection	NA	0
42	Single	40	688	688	9	0	0	545196	692	0	correct_rejection	NA	0
42	Single	41	689	689	5	0	0	545905	692	0	correct_rejection	NA	0
42	Single	42	690	690	9	0	0	546614	691	0	correct_rejection	NA	0
42	Single	43	691	691	4	0	0	547322	692	0	correct_rejection	NA	0
42	Single	44	692	692	8	0	0	548031	691	0	correct_rejection	NA	0
42	Single	45	693	693	4	0	0	548739	692	0	correct_rejection	NA	0
42	Single	46	694	694	9	0	0	549448	692	0	correct_rejection	NA	0
42	Single	47	695	695	7	0	0	550156	692	0	correct_rejection	NA	0
42	Single	48	696	696	8	0	0	550865	692	0	correct_rejection	NA	0
42	Single	49	697	697	9	0	0	551574	691	0	correct_rejection	NA	0
42	Single	50	698	698	6	0	0	552282	692	0	correct_rejection	NA	0
42	Single	51	699	699	8	0	0	552991	691	0	correct_rejection	NA	0
42	Single	52	700	700	8	0	0	553699	692	0	correct_rejection	NA	0
42	Single	53	701	701	5	0	0	554408	692	0	correct_rejection	NA	0
42	Single	54	702	702	8	0	0	555116	692	0	correct_rejection	NA	0
42	Single	55	703	703	7	0	0	555825	692	0	correct_rejection	NA	0
42	Single	56	704	704	7	0	0	556534	691	0	correct_rejection	NA	0
42	Single	57	705	705	4	0	0	557242	692	0	correct_rejection	NA	0
42	Single	58	706	706	0	1	1	557951	691	1	hit	397	0
42	Single	59	707	707	4	0	0	558659	692	0	correct_rejection	NA	0
42	Single	60	708	708	6	0	0	559368	692	0	correct_rejection	NA	0
42	Single	61	709	709	5	0	0	560076	692	0	correct_rejection	NA	0
42	Single	62	710	710	4	0	0	560785	692	0	correct_rejection	NA	0
42	Single	63	711	711	7	0	0	561494	691	0	correct_rejection	NA	0
42	Single	64	712	712	6	0	0	562202	692	0	correct_rejection	NA	0
42	Single	65	713	713	6	0	0	562911	691	0	correct_rejection	NA	0
42	Single	66	714	714	9	0	0	563619	692	0	correct_rejection	NA	0
42	Single	67	715	715	0	1	1	564328	691	1	hit	508	0
42	Single	68	716	716	9	0	0	565036	692	0	correct_rejection	NA	0
42	Single	69	717	717	8	0	0	565745	692	0	correct_rejection	NA	0
42	Single	70	718	718	0	1	1	566453	692	1	hit	442	0
42	Single	71	719	719	6	0	0	567162	692	0	correct_rejection	NA	0
42	Single	72	720	720	4	0	0	567871	691	0	correct_rejection	NA	0
42	Single	73	721	721	5	0	0	568579	692	0	correct_rejection	NA	0
42	Single	74	722	722	5	0	0	569288	691	0	correct_rejection	NA	0
42	Single	75	723	723	0	1	1	569996	692	1	hit	349	0
42	Single	76	724	724	6	0	0	570705	692	0	correct_rejection	NA	0
42	Single	77	725	725	7	0	0	571413	692	0	correct_rejection	NA	0
42	Single	78	726	726	0	1	1	572122	692	1	hit	476	0
42	Single	79	727	727	5	0	0	572831	691	0	correct_rejection	NA	0
42	Single	80	728	728	5	0	0	573539	692	0	correct_rejection	NA	0
42	Single	81	729	729	4	0	0	574248	691	0	correct_rejection	NA	0
42	Single	82	730	730	0	1	1	574956	692	1	hit	372	0
42	Single	83	731	731	9	0	0	575665	692	0	correct_rejection	NA	0
42	Single	84	732	732	5	0	0	576373	692	0	correct_rejection	NA	0
42	Single	85	733	733	6	0	0	577082	692	0	correct_rejection	NA	0
42	Single	86	734	734	4	0	0	577791	691	0	correct_rejection	NA	0
42	Single	87	735	735	0	1	1	578499	692	1	hit	314	0
42	Single	88	736	736	7	0	0	579208	691	0	correct_rejection	NA	0
42	Single	89	737	737	9	0	0	579916	692	0	correct_rejection	NA	0
42	Single	90	738	738	8	0	0	580625	692	0	correct_rejection	NA	0
42	Single	91	739	739	8	0	0	581333	692	0	correct_rejection	NA	0
42	Single	92	740	740	7	0	0	582042	692	0	correct_rejection	NA	0
42	Single	93	741	741	8	0	0	582751	691	0	correct_rejection	NA	0
42	Single	94	742	742	0	1	1	583459	692	1	hit	375	0
42	Single	95	743	743	4	0	0	584168	691	0	correct_rejection	NA	0
42	Single	96	744	744	8	0	0	584876	692	0	correct_rejection	NA	0
42	Single	97	745	745	5	0	0	585585	692	0	correct_rejection	NA	0
42	Single	98	746	746	5	0	0	586293	692	0	correct_rejection	NA	0
42	Single	99	747	747	8	0	0	587002	692	0	correct_rejection	NA	0
42	Single	100	748	748	9	0	0	587710	692	0	correct_rejection	NA	0
42	Single	101	749	749	4	0	0	588419	692	0	correct_rejection	NA	0
42	Single	102	750	750	4	0	0	589128	691	0	correct_rejection	NA	0
42	Single	103	751	751	0	1	1	589836	692	1	hit	385	0
42	Single	104	752	752	5	0	0	590545	691	0	correct_rejection	NA	0
42	Single	105	753	753	9	0	0	591253	692	0	correct_rejection	NA	0
42	Single	106	754	754	9	0	0	591962	692	0	correct_rejection	NA	0
42	Single	107	755	755	7	0	0	592670	692	0	correct_rejection	NA	0
42	Single	108	756	756	6	0	0	593379	692	0	correct_rejection	NA	0
42	Single	109	757	757	7	0	0	594088	691	0	correct_rejection	NA	0
42	Single	110	758	758	7	0	0	594796	692	0	correct_rejection	NA	0
42	Single	111	759	759	5	0	0	595505	691	0	correct_rejection	NA	0
42	Single	112	760	760	0	1	1	596213	692	1	hit	402	0
42	Single	113	761	761	7	0	0	596922	692	0	correct_rejection	NA	0
42	Single	114	762	762	4	0	0	597630	692	0	correct_rejection	NA	0
42	Single	115	763	763	6	0	0	598339	692	0	correct_rejection	NA	0
42	Single	116	764	764	9	0	0	599048	691	0	correct_rejection	NA	0
42	Single	117	765	765	6	0	0	599756	692	0	correct_rejection	NA	0
42	Single	118	766	766	6	0	0	600465	691	0	correct_rejection	NA	0
42	Single	119	767	767	8	0	0	601173	692	0	correct_rejection	NA	0
42	Single	120	768	768	6	0	0	601882	692	0	correct_rejection	NA	0
42	Single	121	769	769	0	1	1	602590	692	1	hit	306	0
42	Single	122	770	770	7	0	0	603299	692	0	correct_rejection	NA	0
42	Single	123	771	771	7	0	0	604008	691	0	correct_rejection	NA	0
42	Single	124	772	772	8	0	0	604716	692	0	correct_rejection	NA	0
42	Single	125	773	773	7	0	0	605425	691	0	correct_rejection	NA	0
42	Single	126	774	774	6	0	0	606133	692	0	correct_rejection	NA	0
42	Single	127	775	775	9	0	0	606842	692	0	correct_rejection	NA	0
42	Single	128	776	776	7	0	0	607550	692	0	correct_rejection	NA	0
42	Single	129	777	777	0	1	1	608259	692	1	hit	395	0
42	Single	130	778	778	4	0	0	608968	691	0	correct_rejection	NA	0
42	Single	131	779	779	9	0	0	609676	692	0	correct_rejection	NA	0
42	Single	132	780	780	6	0	0	610385	691	0	correct_rejection	NA	0
42	Single	133	781	781	5	0	0	611093	692	0	correct_rejection	NA	0
42	Single	134	782	782	6	0	0	611802	692	0	correct_rejection	NA	0
42	Single	135	783	783	0	1	1	612510	692	1	hit	435	0
42	Single	136	784	784	6	0	0	613219	692	0	correct_rejection	NA	0
42	Single	137	785	785	7	0	0	613928	691	0	correct_rejection	NA	0
42	Single	138	786	786	9	0	0	614636	692	0	correct_rejection	NA	0
42	Single	139	787	787	9	0	0	615345	691	0	correct_rejection	NA	0
42	Single	140	788	788	4	0	0	616053	692	0	correct_rejection	NA	0
42	Single	141	789	789	5	0	0	616762	692	0	correct_rejection	NA	0
42	Single	142	790	790	8	0	0	617470	692	0	correct_rejection	NA	0
42	Single	143	791	791	6	0	0	618179	692	0	correct_rejection	NA	0
42	Single	144	792	792	8	0	0	618887	692	0	correct_rejection	NA	0
42	Single	145	793	793	9	0	0	619596	692	0	correct_rejection	NA	0
42	Single	146	794	794	5	0	0	620305	691	0	correct_rejection	NA	0
42	Single	147	795	795	7	0	0	621013	692	0	correct_rejection	NA	0
42	Single	148	796	796	5	0	0	621722	691	0	correct_rejection	NA	0
42	Single	149	797	797	5	0	0	622430	692	0	correct_rejection	NA	0
42	Single	150	798	798	9	0	0	623139	692	0	correct_rejection	NA	0
42	Single	151	799	799	8	0	0	623847	692	0	correct_rejection	NA	0
42	Single	152	800	800	0	1	1	624556	692	1	hit	472	0
42	Single	153	801	801	5	0	0	625265	691	0	correct_rejection	NA	0
42	Single	154	802	802	4	0	0	625973	692	0	correct_rejection	NA	0
42	Single	155	803	803	6	0	0	626682	691	0	correct_rejection	NA	0
42	Single	156	804	804	0	1	1	627390	692	1	hit	582	0
42	Single	157	805	805	4	0	0	628099	692	0	correct_rejection	NA	0
42	Single	158	806	806	4	0	0	628807	692	0	correct_rejection	NA	0
42	Single	159	807	807	8	0	0	629516	692	0	correct_rejection	NA	0
42	Single	160	808	808	0	1	1	630225	691	1	hit	315	0
42	Single	161	809	809	8	0	0	630933	692	0	correct_rejection	NA	0
42	Single	162	810	810	4	0	0	631642	691	0	correct_rejection	NA	0
trigger nr 624 at 634194
trigger nr 628 at 712533
42	Correct	1	325	811	4	0	0	720371	692	0	correct_rejection	NA	7799
42	Correct	2	326	812	5	0	0	721080	691	0	correct_rejection	NA	0
42	Correct	3	327	813	6	0	0	721788	692	0	correct_rejection	NA	0
42	Correct	4	328	814	4	0	0	722497	691	0	correct_rejection	NA	0
42	Correct	5	329	815	5	0	0	723205	692	0	correct_rejection	NA	0
42	Correct	6	330	816	6	0	0	723914	692	0	correct_rejection	NA	0
42	Correct	7	331	817	4	0	0	724622	692	0	correct_rejection	NA	0
42	Correct	8	332	818	5	0	0	725331	692	0	correct_rejection	NA	0
42	Correct	9	333	819	6	0	0	726040	691	0	correct_rejection	NA	0
42	Correct	10	334	820	0	1	3	726748	692	1	hit	359	0
42	Correct	11	335	821	6	0	0	727457	691	0	correct_rejection	NA	0
42	Correct	12	336	822	5	0	0	728165	692	0	correct_rejection	NA	0
42	Correct	13	337	823	4	0	0	728874	692	0	correct_rejection	NA	0
42	Correct	14	338	824	6	0	0	729582	692	0	correct_rejection	NA	0
42	Correct	15	339	825	5	0	0	730291	692	0	correct_rejection	NA	0
42	Correct	16	340	826	4	0	0	731000	691	0	correct_rejection	NA	0
42	Correct	17	341	827	6	0	0	731708	692	0	correct_rejection	NA	0
42	Correct	18	342	828	0	1	1	732417	691	1	hit	334	0
42	Correct	19	343	829	5	0	0	733125	692	0	correct_rejection	NA	0
42	Correct	20	344	830	4	0	0	733834	692	0	correct_rejection	NA	0
42	Correct	21	345	831	9	0	0	734542	692	0	correct_rejection	NA	0
42	Correct	22	346	832	8	0	0	735251	692	0	correct_rejection	NA	0
42	Correct	23	347	833	7	0	0	735960	691	0	correct_rejection	NA	0
42	Correct	24	348	834	0	1	2	736668	692	1	hit	321	0
42	Correct	25	349	835	9	0	0	737377	691	0	correct_rejection	NA	0
42	Correct	26	350	836	8	0	0	738085	692	0	correct_rejection	NA	0
42	Correct	27	351	837	7	0	0	738794	692	0	correct_rejection	NA	0
42	Correct	28	352	838	9	0	0	739502	692	0	correct_rejection	NA	0
42	Correct	29	353	839	8	0	0	740211	692	0	correct_rejection	NA	0
42	Correct	30	354	840	7	0	0	740920	691	0	correct_rejection	NA	0
42	Correct	31	355	841	7	0	0	741628	692	0	correct_rejection	NA	0
42	Correct	32	356	842	8	0	0	742337	691	0	correct_rejection	NA	0
42	Correct	33	357	843	9	0	0	743045	692	0	correct_rejection	NA	0
42	Correct	34	358	844	7	0	0	743754	691	0	correct_rejection	NA	0
42	Correct	35	359	845	8	0	0	744462	692	0	correct_rejection	NA	0
42	Correct	36	360	846	9	0	0	745171	692	0	correct_rejection	NA	0
42	Correct	37	361	847	7	0	0	745879	692	0	correct_rejection	NA	0
42	Correct	38	362	848	0	1	1	746588	692	1	hit	441	0
42	Correct	39	363	849	8	0	0	747297	691	0	correct_rejection	NA	0
42	Correct	40	364	850	9	0	0	748005	692	0	correct_rejection	NA	0
42	Correct	41	365	851	4	0	0	748714	691	0	correct_rejection	NA	0
42	Correct	42	366	852	5	0	0	749422	692	0	correct_rejection	NA	0
42	Correct	43	367	853	6	0	0	750131	692	0	correct_rejection	NA	0
42	Correct	44	368	854	4	0	0	750839	692	0	correct_rejection	NA	0
42	Correct	45	369	855	5	0	0	751548	692	0	correct_rejection	NA	0
42	Correct	46	370	856	6	0	0	752257	691	0	correct_rejection	NA	0
42	Correct	47	371	857	4	0	0	752965	692	0	correct_rejection	NA	0
42	Correct	48	372	858	0	1	1	753674	691	1	hit	410	0
42	Correct	49	373	859	5	0	0	754382	692	0	correct_rejection	NA	0
42	Correct	50	374	860	6	0	0	755091	692	0	correct_rejection	NA	0
42	Correct	51	375	861	6	0	0	755799	692	0	correct_rejection	NA	0
42	Correct	52	376	862	5	0	0	756508	692	0	correct_rejection	NA	0
42	Correct	53	377	863	4	0	0	757217	691	0	correct_rejection	NA	0
42	Correct	54	378	864	6	0	0	757925	692	0	correct_rejection	NA	0
42	Correct	55	379	865	5	0	0	758634	691	0	correct_rejection	NA	0
42	Correct	56	380	866	4	0	0	759342	692	0	correct_rejection	NA	0
42	Correct	57	381	867	6	0	0	760051	692	0	correct_rejection	NA	0
42	Correct	58	382	868	5	0	0	760759	692	0	correct_rejection	NA	0
42	Correct	59	383	869	4	0	0	761468	692	0	correct_rejection	NA	0
42	Correct	60	384	870	9	0	0	762177	691	0	correct_rejection	NA	0
42	Correct	61	385	871	8	0	0	762885	692	0	correct_rejection	NA	0
42	Correct	62	386	872	7	0	0	763594	691	0	correct_rejection	NA	0
42	Correct	63	387	873	9	0	0	764302	692	0	correct_rejection	NA	0
42	Correct	64	388	874	8	0	0	765011	692	0	correct_rejection	NA	0
42	Correct	65	389	875	0	1	1	765719	692	1	hit	376	0
42	Correct	66	390	876	7	0	0	766428	692	0	correct_rejection	NA	0
42	Correct	67	391	877	9	0	0	767137	691	0	correct_rejection	NA	0
42	Correct	68	392	878	8	0	0	767845	692	0	correct_rejection	NA	0
42	Correct	69	393	879	7	0	0	768554	691	0	correct_rejection	NA	0
42	Correct	70	394	880	7	0	0	769262	692	0	correct_rejection	NA	0
42	Correct	71	395	881	8	0	0	769971	691	0	correct_rejection	NA	0
42	Correct	72	396	882	9	0	0	770679	692	0	correct_rejection	NA	0
42	Correct	73	397	883	0	1	2	771388	692	1	hit	444	0
42	Correct	74	398	884	7	0	0	772096	692	0	correct_rejection	NA	0
42	Correct	75	399	885	8	0	0	772805	692	0	correct_rejection	NA	0
42	Correct	76	400	886	0	1	1	773514	691	1	hit	413	0
42	Correct	77	401	887	9	0	0	774222	692	0	correct_rejection	NA	0
42	Correct	78	402	888	7	0	0	774931	691	0	correct_rejection	NA	0
42	Correct	79	403	889	8	0	0	775639	692	0	correct_rejection	NA	0
42	Correct	80	404	890	0	1	1	776348	692	1	hit	329	0
42	Correct	81	405	891	9	0	0	777056	692	0	correct_rejection	NA	0
42	Correct	82	406	892	4	0	0	777765	692	0	correct_rejection	NA	0
42	Correct	83	407	893	5	0	0	778474	691	0	correct_rejection	NA	0
42	Correct	84	408	894	0	1	1	779182	692	1	hit	379	0
42	Correct	85	409	895	6	0	0	779891	691	0	correct_rejection	NA	0
42	Correct	86	410	896	4	0	0	780599	692	0	correct_rejection	NA	0
42	Correct	87	411	897	5	0	0	781308	692	0	correct_rejection	NA	0
42	Correct	88	412	898	6	0	0	782016	692	0	correct_rejection	NA	0
42	Correct	89	413	899	4	0	0	782725	692	0	correct_rejection	NA	0
42	Correct	90	414	900	5	0	0	783434	691	0	correct_rejection	NA	0
42	Correct	91	415	901	6	0	0	784142	692	0	correct_rejection	NA	0
42	Correct	92	416	902	6	0	0	784851	691	0	correct_rejection	NA	0
42	Correct	93	417	903	5	0	0	785559	692	0	correct_rejection	NA	0
42	Correct	94	418	904	4	0	0	786268	692	0	correct_rejection	NA	0
42	Correct	95	419	905	6	0	0	786976	692	0	correct_rejection	NA	0
42	Correct	96	420	906	5	0	0	787685	692	0	correct_rejection	NA	0
42	Correct	97	421	907	4	0	0	788394	691	0	correct_rejection	NA	0
42	Correct	98	422	908	6	0	0	789102	692	0	correct_rejection	NA	0
42	Correct	99	423	909	5	0	0	789811	691	0	correct_rejection	NA	0
42	Correct	100	424	910	4	0	0	790519	692	0	correct_rejection	NA	0
42	Correct	101	425	911	9	0	0	791228	692	0	correct_rejection	NA	0
42	Correct	102	426	912	8	0	0	791936	692	0	correct_rejection	NA	0
42	Correct	103	427	913	7	0	0	792645	692	0	correct_rejection	NA	0
42	Correct	104	428	914	0	1	2	793354	691	1	hit	423	0
42	Correct	105	429	915	9	0	0	794062	692	0	correct_rejection	NA	0
42	Correct	106	430	916	8	0	0	794771	691	0	correct_rejection	NA	0
42	Correct	107	431	917	7	0	0	795479	692	0	correct_rejection	NA	0
42	Correct	108	432	918	9	0	0	796188	691	0	correct_rejection	NA	0
42	Correct	109	433	919	8	0	0	796896	692	0	correct_rejection	NA	0
42	Correct	110	434	920	7	0	0	797605	692	0	correct_rejection	NA	0
42	Correct	111	435	921	0	1	3	798313	692	1	hit	362	0
42	Correct	112	436	922	7	0	0	799022	692	0	correct_rejection	NA	0
42	Correct	113	437	923	8	0	0	799731	691	0	correct_rejection	NA	0
42	Correct	114	438	924	9	0	0	800439	692	0	correct_rejection	NA	0
42	Correct	115	439	925	7	0	0	801148	691	0	correct_rejection	NA	0
42	Correct	116	440	926	0	1	1	801856	692	1	hit	438	0
42	Correct	117	441	927	8	0	0	802565	692	0	correct_rejection	NA	0
42	Correct	118	442	928	9	0	0	803273	692	0	correct_rejection	NA	0
42	Correct	119	443	929	7	0	0	803982	692	0	correct_rejection	NA	0
42	Correct	120	444	930	0	1	1	804691	691	1	hit	330	0
42	Correct	121	445	931	8	0	0	805399	692	0	correct_rejection	NA	0
42	Correct	122	446	932	9	0	0	806108	691	0	correct_rejection	NA	0
42	Correct	123	447	933	4	0	0	806816	692	0	correct_rejection	NA	0
42	Correct	124	448	934	5	0	0	807525	692	0	correct_rejection	NA	0
42	Correct	125	449	935	6	0	0	808233	692	0	correct_rejection	NA	0
42	Correct	126	450	936	4	0	0	808942	692	0	correct_rejection	NA	0
42	Correct	127	451	937	0	1	1	809651	691	1	hit	419	0
42	Correct	128	452	938	5	0	0	810359	692	0	correct_rejection	NA	0
42	Correct	129	453	939	6	0	0	811068	691	0	correct_rejection	NA	0
42	Correct	130	454	940	4	0	0	811776	692	0	correct_rejection	NA	0
42	Correct	131	455	941	5	0	0	812485	692	0	correct_rejection	NA	0
42	Correct	132	456	942	6	0	0	813193	692	0	correct_rejection	NA	0
42	Correct	133	457	943	6	0	0	813902	692	0	correct_rejection	NA	0
42	Correct	134	458	944	5	0	0	814611	691	0	correct_rejection	NA	0
42	Correct	135	459	945	0	1	1	815319	692	1	hit	345	0
42	Correct	136	460	946	4	0	0	816028	691	0	correct_rejection	NA	0
42	Correct	137	461	947	6	0	0	816736	692	0	correct_rejection	NA	0
42	Correct	138	462	948	5	0	0	817445	692	0	correct_rejection	NA	0
42	Correct	139	463	949	4	0	0	818153	692	0	correct_rejection	NA	0
42	Correct	140	464	950	6	0	0	818862	692	0	correct_rejection	NA	0
42	Correct	141	465	951	5	0	0	819571	691	0	correct_rejection	NA	0
42	Correct	142	466	952	4	0	0	820279	692	0	correct_rejection	NA	0
42	Correct	143	467	953	9	0	0	820988	691	0	correct_rejection	NA	0
42	Correct	144	468	954	8	0	0	821696	692	0	correct_rejection	NA	0
42	Correct	145	469	955	7	0	0	822405	691	0	correct_rejection	NA	0
42	Correct	146	470	956	9	0	0	823113	692	0	correct_rejection	NA	0
42	Correct	147	471	957	0	1	1	823822	692	1	hit	378	0
42	Correct	148	472	958	8	0	0	824531	691	0	correct_rejection	NA	0
42	Correct	149	473	959	7	0	0	825239	692	0	correct_rejection	NA	0
42	Correct	150	474	960	9	0	0	825948	691	0	correct_rejection	NA	0
42	Correct	151	475	961	8	0	0	826656	692	0	correct_rejection	NA	0
42	Correct	152	476	962	7	0	0	827365	691	0	correct_rejection	NA	0
42	Correct	153	477	963	7	0	0	828073	692	0	correct_rejection	NA	0
42	Correct	154	478	964	8	0	0	828782	692	0	correct_rejection	NA	0
42	Correct	155	479	965	9	0	0	829490	692	0	correct_rejection	NA	0
42	Correct	156	480	966	0	1	2	830199	692	1	hit	324	0
42	Correct	157	481	967	7	0	0	830908	691	0	correct_rejection	NA	0
42	Correct	158	482	968	8	0	0	831616	692	0	correct_rejection	NA	0
42	Correct	159	483	969	9	0	0	832325	691	0	correct_rejection	NA	0
42	Correct	160	484	970	7	0	0	833033	692	0	correct_rejection	NA	0
42	Correct	161	485	971	8	0	0	833742	692	0	correct_rejection	NA	0
42	Correct	162	486	972	9	0	0	834450	692	0	correct_rejection	NA	0
42	Nonet	1	649	973	6	0	0	844379	691	0	correct_rejection	NA	7809
42	Nonet	2	650	974	5	0	0	845087	692	0	correct_rejection	NA	0
42	Nonet	3	651	975	4	0	0	845796	692	0	correct_rejection	NA	0
42	Nonet	4	652	976	6	0	0	846504	692	0	correct_rejection	NA	0
42	Nonet	5	653	977	5	0	0	847213	692	0	correct_rejection	NA	0
42	Nonet	6	654	978	4	0	0	847922	691	0	correct_rejection	NA	0
42	Nonet	7	655	979	6	0	0	848630	692	0	correct_rejection	NA	0
42	Nonet	8	656	980	5	0	0	849339	691	0	correct_rejection	NA	0
42	Nonet	9	657	981	4	0	0	850047	692	0	correct_rejection	NA	0
42	Nonet	10	658	982	9	0	0	850756	692	0	correct_rejection	NA	0
42	Nonet	11	659	983	8	0	0	851464	692	0	correct_rejection	NA	0
42	Nonet	12	660	984	7	0	0	852173	692	0	correct_rejection	NA	0
42	Nonet	13	661	985	9	0	0	852882	691	0	correct_rejection	NA	0
42	Nonet	14	662	986	8	0	0	853590	692	0	correct_rejection	NA	0
42	Nonet	15	663	987	7	0	0	854299	691	0	correct_rejection	NA	0
42	Nonet	16	664	988	0	1	2	855007	692	1	hit	534	0
42	Nonet	17	665	989	9	0	0	855716	692	0	correct_rejection	NA	0
42	Nonet	18	666	990	8	0	0	856424	692	0	correct_rejection	NA	0
42	Nonet	19	667	991	7	0	0	857133	692	0	correct_rejection	NA	0
42	Nonet	20	668	992	0	1	3	857842	691	1	hit	332	0
42	Nonet	21	669	993	4	0	0	858550	692	0	correct_rejection	NA	0
42	Nonet	22	670	994	5	0	0	859259	691	0	correct_rejection	NA	0
42	Nonet	23	671	995	0	1	1	859967	692	1	hit	340	0
42	Nonet	24	672	996	6	0	0	860676	691	0	correct_rejection	NA	0
42	Nonet	25	673	997	4	0	0	861384	692	0	correct_rejection	NA	0
42	Nonet	26	674	998	5	0	0	862093	692	0	correct_rejection	NA	0
42	Nonet	27	675	999	6	0	0	862801	692	0	correct_rejection	NA	0
42	Nonet	28	676	1000	4	0	0	863510	692	0	correct_rejection	NA	0
42	Nonet	29	677	1001	5	0	0	864219	691	0	correct_rejection	NA	0
42	Nonet	30	678	1002	0	1	1	864927	692	1	hit	347	0
42	Nonet	31	679	1003	6	0	0	865636	691	0	correct_rejection	NA	0
42	Nonet	32	680	1004	4	0	0	866344	692	0	correct_rejection	NA	0
42	Nonet	33	681	1005	5	0	0	867053	692	0	correct_rejection	NA	0
42	Nonet	34	682	1006	6	0	0	867761	692	0	correct_rejection	NA	0
42	Nonet	35	683	1007	4	0	0	868470	692	0	correct_rejection	NA	0
42	Nonet	36	684	1008	5	0	0	869179	691	0	correct_rejection	NA	0
42	Nonet	37	685	1009	6	0	0	869887	692	0	correct_rejection	NA	0
42	Nonet	38	686	1010	4	0	0	870596	691	0	correct_rejection	NA	0
42	Nonet	39	687	1011	5	0	0	871304	692	0	correct_rejection	NA	0
42	Nonet	40	688	1012	6	0	0	872013	692	0	correct_rejection	NA	0
42	Nonet	41	689	1013	6	0	0	872721	692	0	correct_rejection	NA	0
42	Nonet	42	690	1014	5	0	0	873430	692	0	correct_rejection	NA	0
42	Nonet	43	691	1015	4	0	0	874139	691	0	correct_rejection	NA	0
42	Nonet	44	692	1016	6	0	0	874847	692	0	correct_rejection	NA	0
42	Nonet	45	693	1017	5	0	0	875556	691	0	correct_rejection	NA	0
42	Nonet	46	694	1018	4	0	0	876264	692	0	correct_rejection	NA	0
42	Nonet	47	695	1019	6	0	0	876973	692	0	correct_rejection	NA	0
42	Nonet	48	696	1020	5	0	0	877681	692	0	correct_rejection	NA	0
42	Nonet	49	697	1021	0	1	1	878390	692	1	hit	415	0
42	Nonet	50	698	1022	4	0	0	879099	691	0	correct_rejection	NA	0
42	Nonet	51	699	1023	6	0	0	879807	692	0	correct_rejection	NA	0
42	Nonet	52	700	1024	5	0	0	880516	691	0	correct_rejection	NA	0
42	Nonet	53	701	1025	4	0	0	881224	692	0	correct_rejection	NA	0
42	Nonet	54	702	1026	6	0	0	881933	692	0	correct_rejection	NA	0
42	Nonet	55	703	1027	0	1	1	882641	692	1	hit	572	0
42	Nonet	56	704	1028	5	0	0	883350	692	0	correct_rejection	NA	0
42	Nonet	57	705	1029	4	0	0	884059	691	0	correct_rejection	NA	0
42	Nonet	58	706	1030	0	1	2	884767	692	1	hit	400	0
42	Nonet	59	707	1031	6	0	0	885476	691	0	correct_rejection	NA	0
42	Nonet	60	708	1032	5	0	0	886184	692	0	correct_rejection	NA	0
42	Nonet	61	709	1033	4	0	0	886893	691	0	correct_rejection	NA	0
42	Nonet	62	710	1034	4	0	0	887601	692	0	correct_rejection	NA	0
42	Nonet	63	711	1035	5	0	0	888310	692	0	correct_rejection	NA	0
42	Nonet	64	712	1036	6	0	0	889019	691	0	correct_rejection	NA	0
42	Nonet	65	713	1037	4	0	0	889727	692	0	correct_rejection	NA	0
42	Nonet	66	714	1038	5	0	0	890436	691	0	correct_rejection	NA	0
42	Nonet	67	715	1039	6	0	0	891144	692	0	correct_rejection	NA	0
42	Nonet	68	716	1040	4	0	0	891853	691	0	correct_rejection	NA	0
42	Nonet	69	717	1041	5	0	0	892561	692	0	correct_rejection	NA	0
42	Nonet	70	718	1042	6	0	0	893270	692	0	correct_rejection	NA	0
42	Nonet	71	719	1043	7	0	0	893978	692	0	correct_rejection	NA	0
42	Nonet	72	720	1044	8	0	0	894687	692	0	correct_rejection	NA	0
42	Nonet	73	721	1045	9	0	0	895396	691	0	correct_rejection	NA	0
42	Nonet	74	722	1046	0	1	2	896104	692	1	hit	364	0
42	Nonet	75	723	1047	7	0	0	896813	691	0	correct_rejection	NA	0
42	Nonet	76	724	1048	8	0	0	897521	692	0	correct_rejection	NA	0
42	Nonet	77	725	1049	0	1	1	898230	692	1	hit	433	0
42	Nonet	78	726	1050	9	0	0	898938	692	0	correct_rejection	NA	0
42	Nonet	79	727	1051	7	0	0	899647	692	0	correct_rejection	NA	0
42	Nonet	80	728	1052	8	0	0	900356	691	0	correct_rejection	NA	0
42	Nonet	81	729	1053	9	0	0	901064	692	0	correct_rejection	NA	0
42	Nonet	82	730	1054	6	0	0	901773	691	0	correct_rejection	NA	0
42	Nonet	83	731	1055	5	0	0	902481	692	0	correct_rejection	NA	0
42	Nonet	84	732	1056	4	0	0	903190	692	0	correct_rejection	NA	0
42	Nonet	85	733	1057	6	0	0	903898	692	0	correct_rejection	NA	0
42	Nonet	86	734	1058	5	0	0	904607	692	0	correct_rejection	NA	0
42	Nonet	87	735	1059	4	0	0	905316	691	0	correct_rejection	NA	0
42	Nonet	88	736	1060	0	1	2	906024	692	1	hit	441	0
42	Nonet	89	737	1061	6	0	0	906733	691	0	correct_rejection	NA	0
42	Nonet	90	738	1062	5	0	0	907441	692	0	correct_rejection	NA	0
42	Nonet	91	739	1063	4	0	0	908150	692	0	correct_rejection	NA	0
42	Nonet	92	740	1064	7	0	0	908858	692	0	correct_rejection	NA	0
42	Nonet	93	741	1065	8	0	0	909567	692	0	correct_rejection	NA	0
42	Nonet	94	742	1066	9	0	0	910276	691	0	correct_rejection	NA	0
42	Nonet	95	743	1067	7	0	0	910984	692	0	correct_rejection	NA	0
42	Nonet	96	744	1068	8	0	0	911693	691	0	correct_rejection	NA	0
42	Nonet	97	745	1069	9	0	0	912401	692	0	correct_rejection	NA	0
42	Nonet	98	746	1070	7	0	0	913110	691	0	correct_rejection	NA	0
42	Nonet	99	747	1071	0	1	1	913818	692	1	hit	350	0
42	Nonet	100	748	1072	8	0	0	914527	692	0	correct_rejection	NA	0
42	Nonet	101	749	1073	9	0	0	915236	691	0	correct_rejection	NA	0
42	Nonet	102	750	1074	4	0	0	915944	692	0	correct_rejection	NA	0
42	Nonet	103	751	1075	0	1	1	916653	691	1	hit	323	0
42	Nonet	104	752	1076	5	0	0	917361	692	0	correct_rejection	NA	0
42	Nonet	105	753	1077	6	0	0	918070	691	0	correct_rejection	NA	0
42	Nonet	106	754	1078	0	1	2	918778	692	1	hit	382	0
42	Nonet	107	755	1079	4	0	0	919487	692	0	correct_rejection	NA	0
42	Nonet	108	756	1080	5	0	0	920195	692	0	correct_rejection	NA	0
42	Nonet	109	757	1081	6	0	0	920904	692	0	correct_rejection	NA	0
42	Nonet	110	758	1082	4	0	0	921613	691	0	correct_rejection	NA	0
42	Nonet	111	759	1083	5	0	0	922321	692	0	correct_rejection	NA	0
42	Nonet	112	760	1084	6	0	0	923030	691	0	correct_rejection	NA	0
42	Nonet	113	761	1085	9	0	0	923738	692	0	correct_rejection	NA	0
42	Nonet	114	762	1086	8	0	0	924447	692	0	correct_rejection	NA	0
42	Nonet	115	763	1087	7	0	0	925155	692	0	correct_rejection	NA	0
42	Nonet	116	764	1088	9	0	0	925864	692	0	correct_rejection	NA	0
42	Nonet	117	765	1089	0	1	1	926573	691	1	hit	298	0
42	Nonet	118	766	1090	8	0	0	927281	692	0	correct_rejection	NA	0
42	Nonet	119	767	1091	7	0	0	927990	691	0	correct_rejection	NA	0
42	Nonet	120	768	1092	9	0	0	928698	692	0	correct_rejection	NA	0
42	Nonet	121	769	1093	8	0	0	929407	692	0	correct_rejection	NA	0
42	Nonet	122	770	1094	0	1	1	930115	692	1	hit	356	0
42	Nonet	123	771	1095	7	0	0	930824	692	0	correct_rejection	NA	0
42	Nonet	124	772	1096	9	0	0	931533	691	0	correct_rejection	NA	0
42	Nonet	125	773	1097	8	0	0	932241	692	0	correct_rejection	NA	0
42	Nonet	126	774	1098	7	0	0	932950	691	0	correct_rejection	NA	0
42	Nonet	127	775	1099	0	1	2	933658	692	1	hit	340	0
42	Nonet	128	776	1100	9	0	0	934367	692	0	correct_rejection	NA	0
42	Nonet	129	777	1101	8	0	0	935075	692	0	correct_rejection	NA	0
42	Nonet	130	778	1102	0	1	1	935784	692	1	hit	461	0
42	Nonet	131	779	1103	7	0	0	936493	691	0	correct_rejection	NA	0
42	Nonet	132	780	1104	9	0	0	937201	692	0	correct_rejection	NA	0
42	Nonet	133	781	1105	8	0	0	937910	691	0	correct_rejection	NA	0
42	Nonet	134	782	1106	7	0	0	938618	692	0	correct_rejection	NA	0
42	Nonet	135	783	1107	7	0	0	939327	692	0	correct_rejection	NA	0
42	Nonet	136	784	1108	8	0	0	940035	692	0	correct_rejection	NA	0
42	Nonet	137	785	1109	9	0	0	940744	692	0	correct_rejection	NA	0
42	Nonet	138	786	1110	7	0	0	941453	691	0	correct_rejection	NA	0
42	Nonet	139	787	1111	8	0	0	942161	692	0	correct_rejection	NA	0
42	Nonet	140	788	1112	9	0	0	942870	691	0	correct_rejection	NA	0
42	Nonet	141	789	1113	7	0	0	943578	692	0	correct_rejection	NA	0
42	Nonet	142	790	1114	8	0	0	944287	691	0	correct_rejection	NA	0
42	Nonet	143	791	1115	9	0	0	944995	692	0	correct_rejection	NA	0
42	Nonet	144	792	1116	0	1	3	945704	692	1	hit	314	0
42	Nonet	145	793	1117	7	0	0	946412	692	0	correct_rejection	NA	0
42	Nonet	146	794	1118	8	0	0	947121	692	0	correct_rejection	NA	0
42	Nonet	147	795	1119	9	0	0	947830	691	0	correct_rejection	NA	0
42	Nonet	148	796	1120	7	0	0	948538	692	0	correct_rejection	NA	0
42	Nonet	149	797	1121	8	0	0	949247	691	0	correct_rejection	NA	0
42	Nonet	150	798	1122	9	0	0	949955	692	0	correct_rejection	NA	0
42	Nonet	151	799	1123	7	0	0	950664	692	0	correct_rejection	NA	0
42	Nonet	152	800	1124	8	0	0	951372	692	0	correct_rejection	NA	0
42	Nonet	153	801	1125	9	0	0	952081	692	0	correct_rejection	NA	0
42	Nonet	154	802	1126	9	0	0	952790	691	0	correct_rejection	NA	0
42	Nonet	155	803	1127	8	0	0	953498	692	0	correct_rejection	NA	0
42	Nonet	156	804	1128	7	0	0	954207	691	0	correct_rejection	NA	0
42	Nonet	157	805	1129	9	0	0	954915	692	0	correct_rejection	NA	0
42	Nonet	158	806	1130	8	0	0	955624	692	0	correct_rejection	NA	0
42	Nonet	159	807	1131	7	0	0	956332	692	0	correct_rejection	NA	0
42	Nonet	160	808	1132	9	0	0	957041	692	0	correct_rejection	NA	0
42	Nonet	161	809	1133	8	0	0	957750	691	0	correct_rejection	NA	0
42	Nonet	162	810	1134	7	0	0	958458	692	0	correct_rejection	NA	0
42	Single	1	487	1135	7	0	0	967711	692	0	correct_rejection	NA	7149
42	Single	2	488	1136	4	0	0	968420	691	0	correct_rejection	NA	0
42	Single	3	489	1137	5	0	0	969128	692	0	correct_rejection	NA	0
42	Single	4	490	1138	0	1	1	969837	692	1	hit	407	0
42	Single	5	491	1139	5	0	0	970545	692	0	correct_rejection	NA	0
42	Single	6	492	1140	7	0	0	971254	692	0	correct_rejection	NA	0
42	Single	7	493	1141	6	0	0	971963	691	0	correct_rejection	NA	0
42	Single	8	494	1142	4	0	0	972671	692	0	correct_rejection	NA	0
42	Single	9	495	1143	9	0	0	973380	691	0	correct_rejection	NA	0
42	Single	10	496	1144	0	1	1	974088	692	1	hit	386	0
42	Single	11	497	1145	5	0	0	974797	692	0	correct_rejection	NA	0
42	Single	12	498	1146	9	0	0	975505	692	0	correct_rejection	NA	0
42	Single	13	499	1147	0	1	1	976214	692	1	hit	340	0
42	Single	14	500	1148	4	0	0	976923	691	0	correct_rejection	NA	0
42	Single	15	501	1149	8	0	0	977631	692	0	correct_rejection	NA	0
42	Single	16	502	1150	5	0	0	978340	691	0	correct_rejection	NA	0
42	Single	17	503	1151	8	0	0	979048	692	0	correct_rejection	NA	0
42	Single	18	504	1152	4	0	0	979757	692	0	correct_rejection	NA	0
42	Single	19	505	1153	7	0	0	980465	692	0	correct_rejection	NA	0
42	Single	20	506	1154	8	0	0	981174	692	0	correct_rejection	NA	0
42	Single	21	507	1155	6	0	0	981883	691	0	correct_rejection	NA	0
42	Single	22	508	1156	8	0	0	982591	692	0	correct_rejection	NA	0
42	Single	23	509	1157	9	0	0	983300	691	0	correct_rejection	NA	0
42	Single	24	510	1158	7	0	0	984008	692	0	correct_rejection	NA	0
42	Single	25	511	1159	0	1	1	984717	691	1	hit	388	0
42	Single	26	512	1160	5	0	0	985425	692	0	correct_rejection	NA	0
42	Single	27	513	1161	6	0	0	986134	692	0	correct_rejection	NA	0
42	Single	28	514	1162	9	0	0	986843	691	0	correct_rejection	NA	0
42	Single	29	515	1163	6	0	0	987551	692	0	correct_rejection	NA	0
42	Single	30	516	1164	6	0	0	988260	691	0	correct_rejection	NA	0
42	Single	31	517	1165	5	0	0	988968	692	0	correct_rejection	NA	0
42	Single	32	518	1166	4	0	0	989677	691	0	correct_rejection	NA	0
42	Single	33	519	1167	4	0	0	990385	692	0	correct_rejection	NA	0
42	Single	34	520	1168	0	1	1	991094	692	1	hit	371	0
42	Single	35	521	1169	6	0	0	991802	692	0	correct_rejection	NA	0
42	Single	36	522	1170	7	0	0	992511	692	0	correct_rejection	NA	0
42	Single	37	523	1171	7	0	0	993220	691	0	correct_rejection	NA	0
42	Single	38	524	1172	9	0	0	993928	692	0	correct_rejection	NA	0
42	Single	39	525	1173	9	0	0	994637	691	0	correct_rejection	NA	0
42	Single	40	526	1174	8	0	0	995345	692	0	correct_rejection	NA	0
42	Single	41	527	1175	8	0	0	996054	692	0	correct_rejection	NA	0
42	Single	42	528	1176	5	0	0	996762	692	0	correct_rejection	NA	0
42	Single	43	529	1177	9	0	0	997471	692	0	correct_rejection	NA	0
42	Single	44	530	1178	9	0	0	998180	691	0	correct_rejection	NA	0
42	Single	45	531	1179	7	0	0	998888	692	0	correct_rejection	NA	0
42	Single	46	532	1180	0	1	1	999597	691	1	hit	300	0
42	Single	47	533	1181	9	0	0	1000305	692	0	correct_rejection	NA	0
42	Single	48	534	1182	5	0	0	1001014	692	0	correct_rejection	NA	0
42	Single	49	535	1183	5	0	0	1001722	692	0	correct_rejection	NA	0
42	Single	50	536	1184	0	1	1	1002431	692	1	hit	283	0
42	Single	51	537	1185	8	0	0	1003140	691	0	correct_rejection	NA	0
42	Single	52	538	1186	7	0	0	1003848	692	0	correct_rejection	NA	0
42	Single	53	539	1187	5	0	0	1004557	691	0	correct_rejection	NA	0
42	Single	54	540	1188	4	0	0	1005265	692	0	correct_rejection	NA	0
42	Single	55	541	1189	5	0	0	1005974	692	0	correct_rejection	NA	0
42	Single	56	542	1190	7	0	0	1006682	692	0	correct_rejection	NA	0
42	Single	57	543	1191	7	0	0	1007391	692	0	correct_rejection	NA	0
42	Single	58	544	1192	4	0	0	1008100	691	0	correct_rejection	NA	0
42	Single	59	545	1193	9	0	0	1008808	692	0	correct_rejection	NA	0
42	Single	60	546	1194	6	0	0	1009517	691	0	correct_rejection	NA	0
42	Single	61	547	1195	7	0	0	1010225	692	0	correct_rejection	NA	0
42	Single	62	548	1196	8	0	0	1010934	692	0	correct_rejection	NA	0
42	Single	63	549	1197	4	0	0	1011642	692	0	correct_rejection	NA	0
42	Single	64	550	1198	6	0	0	1012351	692	0	correct_rejection	NA	0
42	Single	65	551	1199	5	0	0	1013060	691	0	correct_rejection	NA	0
42	Single	66	552	1200	6	0	0	1013768	692	0	correct_rejection	NA	0
42	Single	67	553	1201	6	0	0	1014477	691	0	correct_rejection	NA	0
42	Single	68	554	1202	9	0	0	1015185	692	0	correct_rejection	NA	0
42	Single	69	555	1203	8	0	0	1015894	691	0	correct_rejection	NA	0
42	Single	70	556	1204	9	0	0	1016602	692	0	correct_rejection	NA	0
42	Single	71	557	1205	4	0	0	1017311	692	0	correct_rejection	NA	0
42	Single	72	558	1206	4	0	0	1018019	692	0	correct_rejection	NA	0
42	Single	73	559	1207	8	0	0	1018728	692	0	correct_rejection	NA	0
42	Single	74	560	1208	6	0	0	1019437	691	0	correct_rejection	NA	0
42	Single	75	561	1209	4	0	0	1020145	692	0	correct_rejection	NA	0
42	Single	76	562	1210	7	0	0	1020854	691	0	correct_rejection	NA	0
42	Single	77	563	1211	6	0	0	1021562	692	0	correct_rejection	NA	0
42	Single	78	564	1212	8	0	0	1022271	692	0	correct_rejection	NA	0
42	Single	79	565	1213	8	0	0	1022979	692	0	correct_rejection	NA	0
42	Single	80	566	1214	4	0	0	1023688	692	0	correct_rejection	NA	0
42	Single	81	567	1215	7	0	0	1024397	691	0	correct_rejection	NA	0
42	Single	82	568	1216	5	0	0	1025105	692	0	correct_rejection	NA	0
42	Single	83	569	1217	5	0	0	1025814	691	0	correct_rejection	NA	0
42	Single	84	570	1218	4	0	0	1026522	692	0	correct_rejection	NA	0
42	Single	85	571	1219	0	1	1	1027231	692	1	hit	495	0
42	Single	86	572	1220	8	0	0	1027939	692	0	correct_rejection	NA	0
42	Single	87	573	1221	9	0	0	1028648	692	0	correct_rejection	NA	0
42	Single	88	574	1222	0	1	1	1029357	691	1	hit	429	0
42	Single	89	575	1223	6	0	0	1030065	692	0	correct_rejection	NA	0
42	Single	90	576	1224	9	0	0	1030774	691	0	correct_rejection	NA	0
42	Single	91	577	1225	9	0	0	1031482	692	0	correct_rejection	NA	0
42	Single	92	578	1226	5	0	0	1032191	692	0	correct_rejection	NA	0
42	Single	93	579	1227	8	0	0	1032899	692	0	correct_rejection	NA	0
42	Single	94	580	1228	5	0	0	1033608	692	0	correct_rejection	NA	0
42	Single	95	581	1229	6	0	0	1034317	691	0	correct_rejection	NA	0
42	Single	96	582	1230	7	0	0	1035025	692	0	correct_rejection	NA	0
42	Single	97	583	1231	9	0	0	1035734	691	0	correct_rejection	NA	0
42	Single	98	584	1232	4	0	0	1036442	692	0	correct_rejection	NA	0
42	Single	99	585	1233	6	0	0	1037151	692	0	correct_rejection	NA	0
42	Single	100	586	1234	8	0	0	1037859	692	0	correct_rejection	NA	0
42	Single	101	587	1235	0	1	1	1038568	692	1	hit	313	0
42	Single	102	588	1236	4	0	0	1039277	691	0	correct_rejection	NA	0
42	Single	103	589	1237	5	0	0	1039985	692	0	correct_rejection	NA	0
42	Single	104	590	1238	9	0	0	1040694	691	0	correct_rejection	NA	0
42	Single	105	591	1239	8	0	0	1041402	692	0	correct_rejection	NA	0
42	Single	106	592	1240	7	0	0	1042111	691	0	correct_rejection	NA	0
42	Single	107	593	1241	0	1	1	1042819	692	1	hit	339	0
42	Single	108	594	1242	6	0	0	1043528	692	0	correct_rejection	NA	0
42	Single	109	595	1243	6	0	0	1044236	692	0	correct_rejection	NA	0
42	Single	110	596	1244	4	0	0	1044945	692	0	correct_rejection	NA	0
42	Single	111	597	1245	0	1	1	1045654	691	1	hit	452	0
42	Single	112	598	1246	4	0	0	1046362	692	0	correct_rejection	NA	0
42	Single	113	599	1247	9	0	0	1047071	691	0	correct_rejection	NA	0
42	Single	114	600	1248	7	0	0	1047779	692	0	correct_rejection	NA	0
42	Single	115	601	1249	7	0	0	1048488	692	0	correct_rejection	NA	0
42	Single	116	602	1250	0	1	1	1049196	692	1	hit	414	0
42	Single	117	603	1251	8	0	0	1049905	692	0	correct_rejection	NA	0
42	Single	118	604	1252	8	0	0	1050614	691	0	correct_rejection	NA	0
42	Single	119	605	1253	6	0	0	1051322	692	0	correct_rejection	NA	0
42	Single	120	606	1254	5	0	0	1052031	691	0	correct_rejection	NA	0
42	Single	121	607	1255	7	0	0	1052739	692	0	correct_rejection	NA	0
42	Single	122	608	1256	0	1	1	1053448	692	1	hit	340	0
42	Single	123	609	1257	7	0	0	1054156	692	0	correct_rejection	NA	0
42	Single	124	610	1258	8	0	0	1054865	692	0	correct_rejection	NA	0
42	Single	125	611	1259	5	0	0	1055574	691	0	correct_rejection	NA	0
42	Single	126	612	1260	0	1	1	1056282	692	1	hit	385	0
42	Single	127	613	1261	7	0	0	1056991	691	0	correct_rejection	NA	0
42	Single	128	614	1262	6	0	0	1057699	692	0	correct_rejection	NA	0
42	Single	129	615	1263	4	0	0	1058408	692	0	correct_rejection	NA	0
42	Single	130	616	1264	5	0	0	1059116	692	0	correct_rejection	NA	0
42	Single	131	617	1265	5	0	0	1059825	692	0	correct_rejection	NA	0
42	Single	132	618	1266	6	0	0	1060534	691	0	correct_rejection	NA	0
42	Single	133	619	1267	8	0	0	1061242	692	0	correct_rejection	NA	0
42	Single	134	620	1268	0	1	1	1061951	691	1	hit	343	0
42	Single	135	621	1269	6	0	0	1062659	692	0	correct_rejection	NA	0
42	Single	136	622	1270	9	0	0	1063368	692	0	correct_rejection	NA	0
42	Single	137	623	1271	4	0	0	1064076	692	0	correct_rejection	NA	0
42	Single	138	624	1272	8	0	0	1064785	692	0	correct_rejection	NA	0
42	Single	139	625	1273	7	0	0	1065494	691	0	correct_rejection	NA	0
42	Single	140	626	1274	0	1	1	1066202	692	1	hit	493	0
42	Single	141	627	1275	4	0	0	1066911	691	0	correct_rejection	NA	0
42	Single	142	628	1276	6	0	0	1067619	692	0	correct_rejection	NA	0
42	Single	143	629	1277	6	0	0	1068328	691	0	correct_rejection	NA	0
42	Single	144	630	1278	7	0	0	1069036	692	0	correct_rejection	NA	0
42	Single	145	631	1279	5	0	0	1069745	692	0	correct_rejection	NA	0
42	Single	146	632	1280	8	0	0	1070454	691	0	correct_rejection	NA	0
42	Single	147	633	1281	9	0	0	1071162	692	0	correct_rejection	NA	0
42	Single	148	634	1282	8	0	0	1071871	691	0	correct_rejection	NA	0
42	Single	149	635	1283	8	0	0	1072579	692	0	correct_rejection	NA	0
42	Single	150	636	1284	4	0	0	1073288	691	0	correct_rejection	NA	0
42	Single	151	637	1285	9	0	0	1073996	692	0	correct_rejection	NA	0
42	Single	152	638	1286	5	0	0	1074705	692	0	correct_rejection	NA	0
42	Single	153	639	1287	4	0	0	1075413	692	0	correct_rejection	NA	0
42	Single	154	640	1288	4	0	0	1076122	692	0	correct_rejection	NA	0
42	Single	155	641	1289	7	0	0	1076831	691	0	correct_rejection	NA	0
42	Single	156	642	1290	9	0	0	1077539	692	0	correct_rejection	NA	0
42	Single	157	643	1291	9	0	0	1078248	691	0	correct_rejection	NA	0
42	Single	158	644	1292	6	0	0	1078956	692	0	correct_rejection	NA	0
42	Single	159	645	1293	5	0	0	1079665	692	0	correct_rejection	NA	0
42	Single	160	646	1294	0	1	1	1080373	692	1	hit	589	0
42	Single	161	647	1295	9	0	0	1081082	692	0	correct_rejection	NA	0
42	Single	162	648	1296	7	0	0	1081791	691	0	correct_rejection	NA	0
42	Triplet	1	487	1297	6	0	0	1090785	692	0	correct_rejection	NA	7218
42	Triplet	2	488	1298	5	0	0	1091494	691	0	correct_rejection	NA	0
42	Triplet	3	489	1299	4	0	0	1092202	692	0	correct_rejection	NA	0
42	Triplet	4	490	1300	4	0	0	1092911	692	0	correct_rejection	NA	0
42	Triplet	5	491	1301	5	0	0	1093619	692	0	correct_rejection	NA	0
42	Triplet	6	492	1302	6	0	0	1094328	692	0	correct_rejection	NA	0
42	Triplet	7	493	1303	9	0	0	1095037	691	0	correct_rejection	NA	0
42	Triplet	8	494	1304	8	0	0	1095745	692	0	correct_rejection	NA	0
42	Triplet	9	495	1305	7	0	0	1096454	691	0	correct_rejection	NA	0
42	Triplet	10	496	1306	0	1	2	1097162	692	1	hit	381	0
42	Triplet	11	497	1307	4	0	0	1097871	692	0	correct_rejection	NA	0
42	Triplet	12	498	1308	5	0	0	1098579	692	0	correct_rejection	NA	0
42	Triplet	13	499	1309	0	1	1	1099288	692	1	hit	422	0
42	Triplet	14	500	1310	6	0	0	1099997	691	0	correct_rejection	NA	0
42	Triplet	15	501	1311	6	0	0	1100705	692	0	correct_rejection	NA	0
42	Triplet	16	502	1312	5	0	0	1101414	691	0	correct_rejection	NA	0
42	Triplet	17	503	1313	0	1	1	1102122	692	1	hit	396	0
42	Triplet	18	504	1314	4	0	0	1102831	692	0	correct_rejection	NA	0
42	Triplet	19	505	1315	6	0	0	1103539	692	0	correct_rejection	NA	0
42	Triplet	20	506	1316	5	0	0	1104248	692	0	correct_rejection	NA	0
42	Triplet	21	507	1317	4	0	0	1104957	691	0	correct_rejection	NA	0
42	Triplet	22	508	1318	7	0	0	1105665	692	0	correct_rejection	NA	0
42	Triplet	23	509	1319	0	1	1	1106374	691	1	hit	363	0
42	Triplet	24	510	1320	8	0	0	1107082	692	0	correct_rejection	NA	0
42	Triplet	25	511	1321	9	0	0	1107791	692	0	correct_rejection	NA	0
42	Triplet	26	512	1322	6	0	0	1108499	692	0	correct_rejection	NA	0
42	Triplet	27	513	1323	0	1	1	1109208	692	1	hit	340	0
42	Triplet	28	514	1324	5	0	0	1109917	691	0	correct_rejection	NA	0
42	Triplet	29	515	1325	4	0	0	1110625	692	0	correct_rejection	NA	0
42	Triplet	30	516	1326	9	0	0	1111334	691	0	correct_rejection	NA	0
42	Triplet	31	517	1327	0	1	1	1112042	692	1	hit	357	0
42	Triplet	32	518	1328	8	0	0	1112751	692	0	correct_rejection	NA	0
42	Triplet	33	519	1329	7	0	0	1113459	692	0	correct_rejection	NA	0
42	Triplet	34	520	1330	9	0	0	1114168	692	0	correct_rejection	NA	0
42	Triplet	35	521	1331	8	0	0	1114877	691	0	correct_rejection	NA	0
42	Triplet	36	522	1332	0	1	1	1115585	692	1	hit	380	0
42	Triplet	37	523	1333	7	0	0	1116294	691	0	correct_rejection	NA	0
42	Triplet	38	524	1334	7	0	0	1117002	692	0	correct_rejection	NA	0
42	Triplet	39	525	1335	8	0	0	1117711	691	0	correct_rejection	NA	0
42	Triplet	40	526	1336	9	0	0	1118419	692	0	correct_rejection	NA	0
42	Triplet	41	527	1337	0	1	2	1119128	692	1	hit	348	0
42	Triplet	42	528	1338	4	0	0	1119836	692	0	correct_rejection	NA	0
42	Triplet	43	529	1339	5	0	0	1120545	692	0	correct_rejection	NA	0
42	Triplet	44	530	1340	6	0	0	1121254	691	0	correct_rejection	NA	0
42	Triplet	45	531	1341	4	0	0	1121962	692	0	correct_rejection	NA	0
42	Triplet	46	532	1342	5	0	0	1122671	691	0	correct_rejection	NA	0
42	Triplet	47	533	1343	6	0	0	1123379	692	0	correct_rejection	NA	0
42	Triplet	48	534	1344	7	0	0	1124088	692	0	correct_rejection	NA	0
42	Triplet	49	535	1345	8	0	0	1124796	692	0	correct_rejection	NA	0
42	Triplet	50	536	1346	9	0	0	1125505	692	0	correct_rejection	NA	0
42	Triplet	51	537	1347	7	0	0	1126214	691	0	correct_rejection	NA	0
42	Triplet	52	538	1348	8	0	0	1126922	692	0	correct_rejection	NA	0
42	Triplet	53	539	1349	0	1	1	1127631	691	1	hit	406	0
42	Triplet	54	540	1350	9	0	0	1128339	692	0	correct_rejection	NA	0
42	Triplet	55	541	1351	9	0	0	1129048	692	0	correct_rejection	NA	0
42	Triplet	56	542	1352	8	0	0	1129756	692	0	correct_rejection	NA	0
42	Triplet	57	543	1353	7	0	0	1130465	692	0	correct_rejection	NA	0
42	Triplet	58	544	1354	4	0	0	1131174	691	0	correct_rejection	NA	0
42	Triplet	59	545	1355	5	0	0	1131882	692	0	correct_rejection	NA	0
42	Triplet	60	546	1356	0	1	1	1132591	691	1	hit	373	0
42	Triplet	61	547	1357	6	0	0	1133299	692	0	correct_rejection	NA	0
42	Triplet	62	548	1358	7	0	0	1134008	692	0	correct_rejection	NA	0
42	Triplet	63	549	1359	8	0	0	1134716	692	0	correct_rejection	NA	0
42	Triplet	64	550	1360	9	0	0	1135425	692	0	correct_rejection	NA	0
42	Triplet	65	551	1361	6	0	0	1136134	691	0	correct_rejection	NA	0
42	Triplet	66	552	1362	0	1	1	1136842	692	1	hit	666	0
42	Triplet	67	553	1363	5	0	0	1137551	691	0	correct_rejection	NA	0
42	Triplet	68	554	1364	4	0	0	1138259	692	0	correct_rejection	NA	0
42	Triplet	69	555	1365	6	0	0	1138968	692	0	correct_rejection	NA	0
42	Triplet	70	556	1366	5	0	0	1139676	692	0	correct_rejection	NA	0
42	Triplet	71	557	1367	4	0	0	1140385	692	0	correct_rejection	NA	0
42	Triplet	72	558	1368	4	0	0	1141094	691	0	correct_rejection	NA	0
42	Triplet	73	559	1369	5	0	0	1141802	692	0	correct_rejection	NA	0
42	Triplet	74	560	1370	6	0	0	1142511	691	0	correct_rejection	NA	0
42	Triplet	75	561	1371	4	0	0	1143219	692	0	correct_rejection	NA	0
42	Triplet	76	562	1372	5	0	0	1143928	691	0	correct_rejection	NA	0
42	Triplet	77	563	1373	6	0	0	1144636	692	0	correct_rejection	NA	0
42	Triplet	78	564	1374	0	1	2	1145345	692	1	hit	454	0
42	Triplet	79	565	1375	6	0	0	1146053	692	0	correct_rejection	NA	0
42	Triplet	80	566	1376	5	0	0	1146762	692	0	correct_rejection	NA	0
42	Triplet	81	567	1377	4	0	0	1147471	691	0	correct_rejection	NA	0
42	Triplet	82	568	1378	7	0	0	1148179	692	0	correct_rejection	NA	0
42	Triplet	83	569	1379	0	1	1	1148888	691	1	hit	428	0
42	Triplet	84	570	1380	8	0	0	1149596	692	0	correct_rejection	NA	0
42	Triplet	85	571	1381	9	0	0	1150305	692	0	correct_rejection	NA	0
42	Triplet	86	572	1382	0	1	2	1151013	692	1	hit	324	0
42	Triplet	87	573	1383	9	0	0	1151722	692	0	correct_rejection	NA	0
42	Triplet	88	574	1384	8	0	0	1152431	691	0	correct_rejection	NA	0
42	Triplet	89	575	1385	0	1	1	1153139	692	1	hit	326	0
42	Triplet	90	576	1386	7	0	0	1153848	691	0	correct_rejection	NA	0
42	Triplet	91	577	1387	4	0	0	1154556	692	0	correct_rejection	NA	0
42	Triplet	92	578	1388	5	0	0	1155265	692	0	correct_rejection	NA	0
42	Triplet	93	579	1389	6	0	0	1155973	692	0	correct_rejection	NA	0
42	Triplet	94	580	1390	9	0	0	1156682	692	0	correct_rejection	NA	0
42	Triplet	95	581	1391	8	0	0	1157391	691	0	correct_rejection	NA	0
42	Triplet	96	582	1392	7	0	0	1158099	692	0	correct_rejection	NA	0
42	Triplet	97	583	1393	9	0	0	1158808	691	0	correct_rejection	NA	0
42	Triplet	98	584	1394	8	0	0	1159516	692	0	correct_rejection	NA	0
42	Triplet	99	585	1395	0	1	1	1160225	692	1	hit	300	0
42	Triplet	100	586	1396	7	0	0	1160933	692	0	correct_rejection	NA	0
42	Triplet	101	587	1397	6	0	0	1161642	692	0	correct_rejection	NA	0
42	Triplet	102	588	1398	5	0	0	1162351	691	0	correct_rejection	NA	0
42	Triplet	103	589	1399	4	0	0	1163059	692	0	correct_rejection	NA	0
42	Triplet	104	590	1400	9	0	0	1163768	691	0	correct_rejection	NA	0
42	Triplet	105	591	1401	8	0	0	1164476	692	0	correct_rejection	NA	0
42	Triplet	106	592	1402	7	0	0	1165185	692	0	correct_rejection	NA	0
42	Triplet	107	593	1403	7	0	0	1165893	692	0	correct_rejection	NA	0
42	Triplet	108	594	1404	8	0	0	1166602	692	0	correct_rejection	NA	0
42	Triplet	109	595	1405	9	0	0	1167311	691	0	correct_rejection	NA	0
42	Triplet	110	596	1406	7	0	0	1168019	692	0	correct_rejection	NA	0
42	Triplet	111	597	1407	8	0	0	1168728	691	0	correct_rejection	NA	0
42	Triplet	112	598	1408	9	0	0	1169436	692	0	correct_rejection	NA	0
42	Triplet	113	599	1409	6	0	0	1170145	691	0	correct_rejection	NA	0
42	Triplet	114	600	1410	5	0	0	1170853	692	0	correct_rejection	NA	0
42	Triplet	115	601	1411	4	0	0	1171562	692	0	correct_rejection	NA	0
42	Triplet	116	602	1412	0	1	2	1172271	691	1	hit	403	0
42	Triplet	117	603	1413	9	0	0	1172979	692	0	correct_rejection	NA	0
42	Triplet	118	604	1414	8	0	0	1173688	691	0	correct_rejection	NA	0
42	Triplet	119	605	1415	7	0	0	1174396	692	0	correct_rejection	NA	0
42	Triplet	120	606	1416	6	0	0	1175105	691	0	correct_rejection	NA	0
42	Triplet	121	607	1417	5	0	0	1175813	692	0	correct_rejection	NA	0
42	Triplet	122	608	1418	4	0	0	1176522	692	0	correct_rejection	NA	0
42	Triplet	123	609	1419	7	0	0	1177230	692	0	correct_rejection	NA	0
42	Triplet	124	610	1420	8	0	0	1177939	692	0	correct_rejection	NA	0
42	Triplet	125	611	1421	9	0	0	1178648	691	0	correct_rejection	NA	0
42	Triplet	126	612	1422	7	0	0	1179356	692	0	correct_rejection	NA	0
42	Triplet	127	613	1423	8	0	0	1180065	691	0	correct_rejection	NA	0
42	Triplet	128	614	1424	9	0	0	1180773	692	0	correct_rejection	NA	0
42	Triplet	129	615	1425	4	0	0	1181482	692	0	correct_rejection	NA	0
42	Triplet	130	616	1426	5	0	0	1182190	692	0	correct_rejection	NA	0
42	Triplet	131	617	1427	6	0	0	1182899	692	0	correct_rejection	NA	0
42	Triplet	132	618	1428	6	0	0	1183608	691	0	correct_rejection	NA	0
42	Triplet	133	619	1429	5	0	0	1184316	692	0	correct_rejection	NA	0
42	Triplet	134	620	1430	4	0	0	1185025	691	0	correct_rejection	NA	0
42	Triplet	135	621	1431	4	0	0	1185733	692	0	correct_rejection	NA	0
42	Triplet	136	622	1432	5	0	0	1186442	692	0	correct_rejection	NA	0
42	Triplet	137	623	1433	6	0	0	1187150	692	0	correct_rejection	NA	0
42	Triplet	138	624	1434	7	0	0	1187859	692	0	correct_rejection	NA	0
42	Triplet	139	625	1435	8	0	0	1188568	691	0	correct_rejection	NA	0
42	Triplet	140	626	1436	9	0	0	1189276	692	0	correct_rejection	NA	0
42	Triplet	141	627	1437	9	0	0	1189985	691	0	correct_rejection	NA	0
42	Triplet	142	628	1438	8	0	0	1190693	692	0	correct_rejection	NA	0
42	Triplet	143	629	1439	7	0	0	1191402	692	0	correct_rejection	NA	0
42	Triplet	144	630	1440	0	1	2	1192110	692	1	hit	642	0
42	Triplet	145	631	1441	9	0	0	1192819	692	0	correct_rejection	NA	0
42	Triplet	146	632	1442	8	0	0	1193528	691	0	correct_rejection	NA	0
42	Triplet	147	633	1443	7	0	0	1194236	692	0	correct_rejection	NA	0
42	Triplet	148	634	1444	4	0	0	1194945	691	0	correct_rejection	NA	0
42	Triplet	149	635	1445	5	0	0	1195653	692	0	correct_rejection	NA	0
42	Triplet	150	636	1446	6	0	0	1196362	691	0	correct_rejection	NA	0
42	Triplet	151	637	1447	4	0	0	1197070	692	0	correct_rejection	NA	0
42	Triplet	152	638	1448	5	0	0	1197779	692	0	correct_rejection	NA	0
42	Triplet	153	639	1449	6	0	0	1198488	691	0	correct_rejection	NA	0
42	Triplet	154	640	1450	9	0	0	1199196	692	0	correct_rejection	NA	0
42	Triplet	155	641	1451	8	0	0	1199905	691	0	correct_rejection	NA	0
42	Triplet	156	642	1452	7	0	0	1200613	692	0	correct_rejection	NA	0
42	Triplet	157	643	1453	7	0	0	1201322	691	0	correct_rejection	NA	0
42	Triplet	158	644	1454	8	0	0	1202030	692	0	correct_rejection	NA	0
42	Triplet	159	645	1455	9	0	0	1202739	692	0	correct_rejection	NA	0
42	Triplet	160	646	1456	6	0	0	1203447	692	0	correct_rejection	NA	0
42	Triplet	161	647	1457	5	0	0	1204156	692	0	correct_rejection	NA	0
42	Triplet	162	648	1458	4	0	0	1204865	691	0	correct_rejection	NA	0
42	Single	1	1	1459	9	0	0	1215518	692	0	correct_rejection	NA	7959
42	Single	2	2	1460	5	0	0	1216227	691	0	correct_rejection	NA	0
42	Single	3	3	1461	4	0	0	1216935	692	0	correct_rejection	NA	0
42	Single	4	4	1462	7	0	0	1217644	692	0	correct_rejection	NA	0
42	Single	5	5	1463	9	0	0	1218352	692	0	correct_rejection	NA	0
42	Single	6	6	1464	4	0	0	1219061	692	0	correct_rejection	NA	0
42	Single	7	7	1465	4	0	0	1219770	691	0	correct_rejection	NA	0
42	Single	8	8	1466	5	0	0	1220478	692	0	correct_rejection	NA	0
42	Single	9	9	1467	0	1	1	1221187	691	1	hit	457	0
42	Single	10	10	1468	8	0	0	1221895	692	0	correct_rejection	NA	0
42	Single	11	11	1469	7	0	0	1222604	692	0	correct_rejection	NA	0
42	Single	12	12	1470	5	0	0	1223312	692	0	correct_rejection	NA	0
42	Single	13	13	1471	7	0	0	1224021	692	0	correct_rejection	NA	0
42	Single	14	14	1472	0	1	1	1224730	691	1	hit	354	0
42	Single	15	15	1473	7	0	0	1225438	692	0	correct_rejection	NA	0
42	Single	16	16	1474	8	0	0	1226147	691	0	correct_rejection	NA	0
42	Single	17	17	1475	9	0	0	1226855	692	0	correct_rejection	NA	0
42	Single	18	18	1476	8	0	0	1227564	691	0	correct_rejection	NA	0
42	Single	19	19	1477	6	0	0	1228272	692	0	correct_rejection	NA	0
42	Single	20	20	1478	4	0	0	1228981	692	0	correct_rejection	NA	0
42	Single	21	21	1479	0	1	1	1229689	692	1	hit	433	0
42	Single	22	22	1480	9	0	0	1230398	692	0	correct_rejection	NA	0
42	Single	23	23	1481	9	0	0	1231107	691	0	correct_rejection	NA	0
42	Single	24	24	1482	7	0	0	1231815	692	0	correct_rejection	NA	0
42	Single	25	25	1483	0	1	1	1232524	691	1	hit	332	0
42	Single	26	26	1484	6	0	0	1233232	692	0	correct_rejection	NA	0
42	Single	27	27	1485	6	0	0	1233941	692	0	correct_rejection	NA	0
42	Single	28	28	1486	8	0	0	1234649	692	0	correct_rejection	NA	0
42	Single	29	29	1487	5	0	0	1235358	692	0	correct_rejection	NA	0
42	Single	30	30	1488	6	0	0	1236067	691	0	correct_rejection	NA	0
42	Single	31	31	1489	0	1	1	1236775	692	1	hit	375	0
42	Single	32	32	1490	7	0	0	1237484	691	0	correct_rejection	NA	0
42	Single	33	33	1491	4	0	0	1238192	692	0	correct_rejection	NA	0
42	Single	34	34	1492	8	0	0	1238901	692	0	correct_rejection	NA	0
42	Single	35	35	1493	8	0	0	1239609	692	0	correct_rejection	NA	0
42	Single	36	36	1494	4	0	0	1240318	692	0	correct_rejection	NA	0
42	Single	37	37	1495	6	0	0	1241027	691	0	correct_rejection	NA	0
42	Single	38	38	1496	5	0	0	1241735	692	0	correct_rejection	NA	0
42	Single	39	39	1497	5	0	0	1242444	691	0	correct_rejection	NA	0
42	Single	40	40	1498	9	0	0	1243152	692	0	correct_rejection	NA	0
42	Single	41	41	1499	6	0	0	1243861	692	0	correct_rejection	NA	0
42	Single	42	42	1500	4	0	0	1244569	692	0	correct_rejection	NA	0
42	Single	43	43	1501	9	0	0	1245278	692	0	correct_rejection	NA	0
42	Single	44	44	1502	8	0	0	1245987	691	0	correct_rejection	NA	0
42	Single	45	45	1503	8	0	0	1246695	692	0	correct_rejection	NA	0
42	Single	46	46	1504	6	0	0	1247404	691	0	correct_rejection	NA	0
42	Single	47	47	1505	9	0	0	1248112	692	0	correct_rejection	NA	0
42	Single	48	48	1506	6	0	0	1248821	692	0	correct_rejection	NA	0
42	Single	49	49	1507	6	0	0	1249529	692	0	correct_rejection	NA	0
42	Single	50	50	1508	7	0	0	1250238	692	0	correct_rejection	NA	0
42	Single	51	51	1509	5	0	0	1250947	691	0	correct_rejection	NA	0
42	Single	52	52	1510	6	0	0	1251655	692	0	correct_rejection	NA	0
42	Single	53	53	1511	5	0	0	1252364	691	0	correct_rejection	NA	0
42	Single	54	54	1512	8	0	0	1253072	692	0	correct_rejection	NA	0
42	Single	55	55	1513	4	0	0	1253781	691	0	correct_rejection	NA	0
42	Single	56	56	1514	5	0	0	1254489	692	0	correct_rejection	NA	0
42	Single	57	57	1515	4	0	0	1255198	692	0	correct_rejection	NA	0
42	Single	58	58	1516	8	0	0	1255906	692	0	correct_rejection	NA	0
42	Single	59	59	1517	7	0	0	1256615	692	0	correct_rejection	NA	0
42	Single	60	60	1518	7	0	0	1257324	691	0	correct_rejection	NA	0
42	Single	61	61	1519	6	0	0	1258032	692	0	correct_rejection	NA	0
42	Single	62	62	1520	8	0	0	1258741	691	0	correct_rejection	NA	0
42	Single	63	63	1521	9	0	0	1259449	692	0	correct_rejection	NA	0
42	Single	64	64	1522	7	0	0	1260158	692	0	correct_rejection	NA	0
42	Single	65	65	1523	9	0	0	1260866	692	0	correct_rejection	NA	0
42	Single	66	66	1524	5	0	0	1261575	692	0	correct_rejection	NA	0
42	Single	67	67	1525	5	0	0	1262284	691	0	correct_rejection	NA	0
42	Single	68	68	1526	7	0	0	1262992	692	0	correct_rejection	NA	0
42	Single	69	69	1527	4	0	0	1263701	691	0	correct_rejection	NA	0
42	Single	70	70	1528	6	0	0	1264409	692	0	correct_rejection	NA	0
42	Single	71	71	1529	4	0	0	1265118	692	0	correct_rejection	NA	0
42	Single	72	72	1530	0	1	1	1265826	692	1	hit	487	0
42	Single	73	73	1531	4	0	0	1266535	692	0	correct_rejection	NA	0
42	Single	74	74	1532	7	0	0	1267244	691	0	correct_rejection	NA	0
42	Single	75	75	1533	0	1	1	1267952	692	0	miss	NA	0
42	Single	76	76	1534	8	0	0	1268661	691	0	correct_rejection	NA	0
42	Single	77	77	1535	5	0	0	1269369	692	0	correct_rejection	NA	0
42	Single	78	78	1536	9	0	0	1270078	692	0	correct_rejection	NA	0
42	Single	79	79	1537	9	0	0	1270786	692	0	correct_rejection	NA	0
42	Single	80	80	1538	4	0	0	1271495	692	0	correct_rejection	NA	0
42	Single	81	81	1539	9	0	0	1272204	691	0	correct_rejection	NA	0
42	Single	82	82	1540	0	1	1	1272912	692	1	hit	394	0
42	Single	83	83	1541	6	0	0	1273621	691	0	correct_rejection	NA	0
42	Single	84	84	1542	4	0	0	1274329	692	0	correct_rejection	NA	0
42	Single	85	85	1543	6	0	0	1275038	692	0	correct_rejection	NA	0
42	Single	86	86	1544	8	0	0	1275746	692	0	correct_rejection	NA	0
42	Single	87	87	1545	0	1	1	1276455	692	1	hit	420	0
42	Single	88	88	1546	8	0	0	1277164	691	0	correct_rejection	NA	0
42	Single	89	89	1547	5	0	0	1277872	692	0	correct_rejection	NA	0
42	Single	90	90	1548	7	0	0	1278581	691	0	correct_rejection	NA	0
42	Single	91	91	1549	8	0	0	1279289	692	0	correct_rejection	NA	0
42	Single	92	92	1550	6	0	0	1279998	691	0	correct_rejection	NA	0
42	Single	93	93	1551	7	0	0	1280706	692	0	correct_rejection	NA	0
42	Single	94	94	1552	9	0	0	1281415	692	0	correct_rejection	NA	0
42	Single	95	95	1553	8	0	0	1282124	691	0	correct_rejection	NA	0
42	Single	96	96	1554	7	0	0	1282832	692	0	correct_rejection	NA	0
42	Single	97	97	1555	6	0	0	1283541	691	0	correct_rejection	NA	0
42	Single	98	98	1556	9	0	0	1284249	692	0	correct_rejection	NA	0
42	Single	99	99	1557	0	1	1	1284958	691	1	hit	301	0
42	Single	100	100	1558	7	0	0	1285666	692	0	correct_rejection	NA	0
42	Single	101	101	1559	7	0	0	1286375	692	0	correct_rejection	NA	0
42	Single	102	102	1560	4	0	0	1287083	692	0	correct_rejection	NA	0
42	Single	103	103	1561	5	0	0	1287792	692	0	correct_rejection	NA	0
42	Single	104	104	1562	5	0	0	1288501	691	0	correct_rejection	NA	0
42	Single	105	105	1563	8	0	0	1289209	692	0	correct_rejection	NA	0
42	Single	106	106	1564	9	0	0	1289918	691	0	correct_rejection	NA	0
42	Single	107	107	1565	0	1	1	1290626	692	1	hit	320	0
42	Single	108	108	1566	9	0	0	1291335	692	0	correct_rejection	NA	0
42	Single	109	109	1567	4	0	0	1292043	692	0	correct_rejection	NA	0
42	Single	110	110	1568	0	1	1	1292752	692	1	hit	315	0
42	Single	111	111	1569	8	0	0	1293461	691	0	correct_rejection	NA	0
42	Single	112	112	1570	4	0	0	1294169	692	0	correct_rejection	NA	0
42	Single	113	113	1571	0	1	1	1294878	691	1	hit	324	0
42	Single	114	114	1572	7	0	0	1295586	692	0	correct_rejection	NA	0
42	Single	115	115	1573	5	0	0	1296295	692	0	correct_rejection	NA	0
42	Single	116	116	1574	9	0	0	1297003	692	0	correct_rejection	NA	0
42	Single	117	117	1575	5	0	0	1297712	692	0	correct_rejection	NA	0
42	Single	118	118	1576	6	0	0	1298421	691	0	correct_rejection	NA	0
42	Single	119	119	1577	6	0	0	1299129	692	0	correct_rejection	NA	0
42	Single	120	120	1578	5	0	0	1299838	691	0	correct_rejection	NA	0
42	Single	121	121	1579	0	1	1	1300546	692	1	hit	374	0
42	Single	122	122	1580	4	0	0	1301255	692	0	correct_rejection	NA	0
42	Single	123	123	1581	9	0	0	1301963	692	0	correct_rejection	NA	0
42	Single	124	124	1582	7	0	0	1302672	692	0	correct_rejection	NA	0
42	Single	125	125	1583	6	0	0	1303381	691	0	correct_rejection	NA	0
42	Single	126	126	1584	4	0	0	1304089	692	0	correct_rejection	NA	0
42	Single	127	127	1585	9	0	0	1304798	691	0	correct_rejection	NA	0
42	Single	128	128	1586	4	0	0	1305506	692	0	correct_rejection	NA	0
42	Single	129	129	1587	4	0	0	1306215	691	0	correct_rejection	NA	0
42	Single	130	130	1588	8	0	0	1306923	692	0	correct_rejection	NA	0
42	Single	131	131	1589	5	0	0	1307632	692	0	correct_rejection	NA	0
42	Single	132	132	1590	8	0	0	1308341	691	0	correct_rejection	NA	0
42	Single	133	133	1591	6	0	0	1309049	692	0	correct_rejection	NA	0
42	Single	134	134	1592	8	0	0	1309758	691	0	correct_rejection	NA	0
42	Single	135	135	1593	4	0	0	1310466	692	0	correct_rejection	NA	0
42	Single	136	136	1594	6	0	0	1311175	691	0	correct_rejection	NA	0
