ID	block	trial_block	trial_cat	trial_total	number	violation	level_violation	onset	duration	Response	Hit_Miss	RT	pre_trial_fixcross_ISI
first_trigger_at: 11175
trigger nr 10 at 20175
43	Nonet	1	325	1	4	0	0	27742	692	0	correct_rejection	NA	7529
43	Nonet	2	326	2	5	0	0	28450	692	0	correct_rejection	NA	0
43	Nonet	3	327	3	6	0	0	29159	692	0	correct_rejection	NA	0
43	Nonet	4	328	4	4	0	0	29868	691	0	correct_rejection	NA	0
43	Nonet	5	329	5	5	0	0	30576	692	0	correct_rejection	NA	0
43	Nonet	6	330	6	6	0	0	31285	691	0	correct_rejection	NA	0
43	Nonet	7	331	7	0	1	2	31993	692	1	hit	435	0
43	Nonet	8	332	8	4	0	0	32702	692	0	correct_rejection	NA	0
43	Nonet	9	333	9	5	0	0	33410	692	0	correct_rejection	NA	0
43	Nonet	10	334	10	6	0	0	34119	692	0	correct_rejection	NA	0
43	Nonet	11	335	11	6	0	0	34828	691	0	correct_rejection	NA	0
43	Nonet	12	336	12	0	1	1	35536	692	1	hit	407	0
43	Nonet	13	337	13	5	0	0	36245	691	0	correct_rejection	NA	0
43	Nonet	14	338	14	4	0	0	36953	692	0	correct_rejection	NA	0
43	Nonet	15	339	15	6	0	0	37662	692	0	correct_rejection	NA	0
43	Nonet	16	340	16	5	0	0	38370	692	0	correct_rejection	NA	0
43	Nonet	17	341	17	4	0	0	39079	692	0	correct_rejection	NA	0
43	Nonet	18	342	18	6	0	0	39788	691	0	correct_rejection	NA	0
43	Nonet	19	343	19	5	0	0	40496	692	0	correct_rejection	NA	0
43	Nonet	20	344	20	4	0	0	41205	691	0	correct_rejection	NA	0
43	Nonet	21	345	21	4	0	0	41913	692	0	correct_rejection	NA	0
43	Nonet	22	346	22	5	0	0	42622	692	0	correct_rejection	NA	0
43	Nonet	23	347	23	6	0	0	43330	692	0	correct_rejection	NA	0
43	Nonet	24	348	24	4	0	0	44039	692	0	correct_rejection	NA	0
43	Nonet	25	349	25	0	1	1	44748	691	1	hit	399	0
43	Nonet	26	350	26	5	0	0	45456	692	0	correct_rejection	NA	0
43	Nonet	27	351	27	6	0	0	46165	691	0	correct_rejection	NA	0
43	Nonet	28	352	28	4	0	0	46873	692	0	correct_rejection	NA	0
43	Nonet	29	353	29	5	0	0	47582	691	0	correct_rejection	NA	0
43	Nonet	30	354	30	6	0	0	48290	692	0	correct_rejection	NA	0
43	Nonet	31	355	31	9	0	0	48999	692	0	correct_rejection	NA	0
43	Nonet	32	356	32	8	0	0	49707	692	0	correct_rejection	NA	0
43	Nonet	33	357	33	7	0	0	50416	692	0	correct_rejection	NA	0
43	Nonet	34	358	34	9	0	0	51125	691	0	correct_rejection	NA	0
43	Nonet	35	359	35	8	0	0	51833	692	0	correct_rejection	NA	0
43	Nonet	36	360	36	7	0	0	52542	691	0	correct_rejection	NA	0
43	Nonet	37	361	37	9	0	0	53250	692	0	correct_rejection	NA	0
43	Nonet	38	362	38	8	0	0	53959	692	0	correct_rejection	NA	0
43	Nonet	39	363	39	7	0	0	54667	692	0	correct_rejection	NA	0
43	Nonet	40	364	40	4	0	0	55376	692	0	correct_rejection	NA	0
43	Nonet	41	365	41	5	0	0	56085	691	0	correct_rejection	NA	0
43	Nonet	42	366	42	6	0	0	56793	692	0	correct_rejection	NA	0
43	Nonet	43	367	43	4	0	0	57502	691	0	correct_rejection	NA	0
43	Nonet	44	368	44	5	0	0	58210	692	0	correct_rejection	NA	0
43	Nonet	45	369	45	0	1	1	58919	692	1	hit	355	0
43	Nonet	46	370	46	6	0	0	59627	692	0	correct_rejection	NA	0
43	Nonet	47	371	47	4	0	0	60336	692	0	correct_rejection	NA	0
43	Nonet	48	372	48	5	0	0	61045	691	0	correct_rejection	NA	0
43	Nonet	49	373	49	6	0	0	61753	692	0	correct_rejection	NA	0
43	Nonet	50	374	50	7	0	0	62462	691	0	correct_rejection	NA	0
43	Nonet	51	375	51	0	1	1	63170	692	1	hit	452	0
43	Nonet	52	376	52	8	0	0	63879	692	0	correct_rejection	NA	0
43	Nonet	53	377	53	9	0	0	64587	692	0	correct_rejection	NA	0
43	Nonet	54	378	54	7	0	0	65296	692	0	correct_rejection	NA	0
43	Nonet	55	379	55	8	0	0	66005	691	0	correct_rejection	NA	0
43	Nonet	56	380	56	9	0	0	66713	692	0	correct_rejection	NA	0
43	Nonet	57	381	57	7	0	0	67422	691	0	correct_rejection	NA	0
43	Nonet	58	382	58	8	0	0	68130	692	0	correct_rejection	NA	0
43	Nonet	59	383	59	9	0	0	68839	691	0	correct_rejection	NA	0
43	Nonet	60	384	60	9	0	0	69547	692	0	correct_rejection	NA	0
43	Nonet	61	385	61	8	0	0	70256	692	0	correct_rejection	NA	0
43	Nonet	62	386	62	7	0	0	70964	692	0	correct_rejection	NA	0
43	Nonet	63	387	63	9	0	0	71673	692	0	correct_rejection	NA	0
43	Nonet	64	388	64	8	0	0	72382	691	0	correct_rejection	NA	0
43	Nonet	65	389	65	0	1	1	73090	692	1	hit	398	0
43	Nonet	66	390	66	7	0	0	73799	691	0	correct_rejection	NA	0
43	Nonet	67	391	67	9	0	0	74507	692	0	correct_rejection	NA	0
43	Nonet	68	392	68	8	0	0	75216	692	0	correct_rejection	NA	0
43	Nonet	69	393	69	7	0	0	75924	692	0	correct_rejection	NA	0
43	Nonet	70	394	70	0	1	3	76633	692	1	hit	425	0
43	Nonet	71	395	71	9	0	0	77342	691	0	correct_rejection	NA	0
43	Nonet	72	396	72	8	0	0	78050	692	0	correct_rejection	NA	0
43	Nonet	73	397	73	7	0	0	78759	691	0	correct_rejection	NA	0
43	Nonet	74	398	74	9	0	0	79467	692	0	correct_rejection	NA	0
43	Nonet	75	399	75	8	0	0	80176	692	0	correct_rejection	NA	0
43	Nonet	76	400	76	7	0	0	80884	692	0	correct_rejection	NA	0
43	Nonet	77	401	77	9	0	0	81593	692	0	correct_rejection	NA	0
43	Nonet	78	402	78	0	1	1	82302	691	1	hit	481	0
43	Nonet	79	403	79	8	0	0	83010	692	0	correct_rejection	NA	0
43	Nonet	80	404	80	7	0	0	83719	691	0	correct_rejection	NA	0
43	Nonet	81	405	81	6	0	0	84427	692	0	correct_rejection	NA	0
43	Nonet	82	406	82	5	0	0	85136	691	0	correct_rejection	NA	0
43	Nonet	83	407	83	4	0	0	85844	692	0	correct_rejection	NA	0
43	Nonet	84	408	84	0	1	2	86553	692	1	hit	472	0
43	Nonet	85	409	85	6	0	0	87262	691	0	correct_rejection	NA	0
43	Nonet	86	410	86	5	0	0	87970	692	0	correct_rejection	NA	0
43	Nonet	87	411	87	4	0	0	88679	691	0	correct_rejection	NA	0
43	Nonet	88	412	88	6	0	0	89387	692	0	correct_rejection	NA	0
43	Nonet	89	413	89	5	0	0	90096	691	0	correct_rejection	NA	0
43	Nonet	90	414	90	4	0	0	90804	692	0	correct_rejection	NA	0
43	Nonet	91	415	91	7	0	0	91513	692	0	correct_rejection	NA	0
43	Nonet	92	416	92	8	0	0	92221	692	0	correct_rejection	NA	0
43	Nonet	93	417	93	9	0	0	92930	692	0	correct_rejection	NA	0
43	Nonet	94	418	94	7	0	0	93639	691	0	correct_rejection	NA	0
43	Nonet	95	419	95	8	0	0	94347	692	0	correct_rejection	NA	0
43	Nonet	96	420	96	9	0	0	95056	691	0	correct_rejection	NA	0
43	Nonet	97	421	97	7	0	0	95764	692	0	correct_rejection	NA	0
43	Nonet	98	422	98	8	0	0	96473	692	0	correct_rejection	NA	0
43	Nonet	99	423	99	9	0	0	97181	692	0	correct_rejection	NA	0
43	Nonet	100	424	100	6	0	0	97890	692	0	correct_rejection	NA	0
43	Nonet	101	425	101	0	1	1	98599	691	1	hit	312	0
43	Nonet	102	426	102	5	0	0	99307	692	0	correct_rejection	NA	0
43	Nonet	103	427	103	4	0	0	100016	691	0	correct_rejection	NA	0
43	Nonet	104	428	104	6	0	0	100724	692	0	correct_rejection	NA	0
43	Nonet	105	429	105	5	0	0	101433	692	0	correct_rejection	NA	0
43	Nonet	106	430	106	4	0	0	102141	692	0	correct_rejection	NA	0
43	Nonet	107	431	107	6	0	0	102850	692	0	correct_rejection	NA	0
43	Nonet	108	432	108	5	0	0	103559	691	0	correct_rejection	NA	0
43	Nonet	109	433	109	4	0	0	104267	692	0	correct_rejection	NA	0
43	Nonet	110	434	110	0	1	3	104976	691	1	hit	396	0
43	Nonet	111	435	111	6	0	0	105684	692	0	correct_rejection	NA	0
43	Nonet	112	436	112	5	0	0	106393	691	0	correct_rejection	NA	0
43	Nonet	113	437	113	0	1	1	107101	692	1	hit	366	0
43	Nonet	114	438	114	4	0	0	107810	692	0	correct_rejection	NA	0
43	Nonet	115	439	115	6	0	0	108518	692	0	correct_rejection	NA	0
43	Nonet	116	440	116	5	0	0	109227	692	0	correct_rejection	NA	0
43	Nonet	117	441	117	4	0	0	109936	691	0	correct_rejection	NA	0
43	Nonet	118	442	118	6	0	0	110644	692	0	correct_rejection	NA	0
43	Nonet	119	443	119	5	0	0	111353	691	0	correct_rejection	NA	0
43	Nonet	120	444	120	4	0	0	112061	692	0	correct_rejection	NA	0
43	Nonet	121	445	121	9	0	0	112770	692	0	correct_rejection	NA	0
43	Nonet	122	446	122	8	0	0	113478	692	0	correct_rejection	NA	0
43	Nonet	123	447	123	0	1	1	114187	692	1	hit	537	0
43	Nonet	124	448	124	7	0	0	114896	691	0	correct_rejection	NA	0
43	Nonet	125	449	125	9	0	0	115604	692	0	correct_rejection	NA	0
43	Nonet	126	450	126	8	0	0	116313	691	0	correct_rejection	NA	0
43	Nonet	127	451	127	7	0	0	117021	692	0	correct_rejection	NA	0
43	Nonet	128	452	128	9	0	0	117730	692	0	correct_rejection	NA	0
43	Nonet	129	453	129	8	0	0	118438	692	0	correct_rejection	NA	0
43	Nonet	130	454	130	7	0	0	119147	692	0	correct_rejection	NA	0
43	Nonet	131	455	131	0	1	3	119856	691	1	hit	394	0
43	Nonet	132	456	132	7	0	0	120564	692	0	correct_rejection	NA	0
43	Nonet	133	457	133	8	0	0	121273	691	0	correct_rejection	NA	0
43	Nonet	134	458	134	9	0	0	121981	692	0	correct_rejection	NA	0
43	Nonet	135	459	135	7	0	0	122690	692	0	correct_rejection	NA	0
43	Nonet	136	460	136	8	0	0	123398	692	0	correct_rejection	NA	0
43	Nonet	137	461	137	0	1	1	124107	692	1	hit	427	0
43	Nonet	138	462	138	9	0	0	124816	691	0	correct_rejection	NA	0
43	Nonet	139	463	139	7	0	0	125524	692	0	correct_rejection	NA	0
43	Nonet	140	464	140	8	0	0	126233	691	0	correct_rejection	NA	0
43	Nonet	141	465	141	9	0	0	126941	692	0	correct_rejection	NA	0
43	Nonet	142	466	142	0	1	3	127650	691	1	hit	299	0
43	Nonet	143	467	143	7	0	0	128358	692	0	correct_rejection	NA	0
43	Nonet	144	468	144	8	0	0	129067	692	0	correct_rejection	NA	0
43	Nonet	145	469	145	9	0	0	129775	692	0	correct_rejection	NA	0
43	Nonet	146	470	146	7	0	0	130484	692	0	correct_rejection	NA	0
43	Nonet	147	471	147	8	0	0	131193	691	0	correct_rejection	NA	0
43	Nonet	148	472	148	9	0	0	131901	692	0	correct_rejection	NA	0
43	Nonet	149	473	149	7	0	0	132610	691	0	correct_rejection	NA	0
43	Nonet	150	474	150	8	0	0	133318	692	0	correct_rejection	NA	0
43	Nonet	151	475	151	9	0	0	134027	692	0	correct_rejection	NA	0
43	Nonet	152	476	152	4	0	0	134735	692	0	correct_rejection	NA	0
43	Nonet	153	477	153	5	0	0	135444	692	0	correct_rejection	NA	0
43	Nonet	154	478	154	0	1	1	136153	691	1	hit	314	0
43	Nonet	155	479	155	6	0	0	136861	692	0	correct_rejection	NA	0
43	Nonet	156	480	156	4	0	0	137570	691	0	correct_rejection	NA	0
43	Nonet	157	481	157	0	1	1	138278	692	1	hit	469	0
43	Nonet	158	482	158	5	0	0	138987	692	0	correct_rejection	NA	0
43	Nonet	159	483	159	6	0	0	139695	692	0	correct_rejection	NA	0
43	Nonet	160	484	160	4	0	0	140404	692	0	correct_rejection	NA	0
43	Nonet	161	485	161	5	0	0	141113	691	0	correct_rejection	NA	0
43	Nonet	162	486	162	6	0	0	141821	692	0	correct_rejection	NA	0
43	Triplet	1	649	163	4	0	0	151933	691	0	correct_rejection	NA	7719
43	Triplet	2	650	164	5	0	0	152641	692	0	correct_rejection	NA	0
43	Triplet	3	651	165	6	0	0	153350	692	0	correct_rejection	NA	0
43	Triplet	4	652	166	6	0	0	154058	692	0	correct_rejection	NA	0
43	Triplet	5	653	167	5	0	0	154767	692	0	correct_rejection	NA	0
43	Triplet	6	654	168	4	0	0	155476	691	0	correct_rejection	NA	0
43	Triplet	7	655	169	4	0	0	156184	692	0	correct_rejection	NA	0
43	Triplet	8	656	170	5	0	0	156893	691	0	correct_rejection	NA	0
43	Triplet	9	657	171	6	0	0	157601	692	0	correct_rejection	NA	0
43	Triplet	10	658	172	9	0	0	158310	692	0	correct_rejection	NA	0
43	Triplet	11	659	173	0	1	1	159018	692	1	hit	456	0
43	Triplet	12	660	174	8	0	0	159727	692	0	correct_rejection	NA	0
43	Triplet	13	661	175	7	0	0	160436	691	0	correct_rejection	NA	0
43	Triplet	14	662	176	6	0	0	161144	692	0	correct_rejection	NA	0
43	Triplet	15	663	177	0	1	1	161853	691	1	hit	401	0
43	Triplet	16	664	178	5	0	0	162561	692	0	correct_rejection	NA	0
43	Triplet	17	665	179	4	0	0	163270	692	0	correct_rejection	NA	0
43	Triplet	18	666	180	6	0	0	163978	692	0	correct_rejection	NA	0
43	Triplet	19	667	181	5	0	0	164687	692	0	correct_rejection	NA	0
43	Triplet	20	668	182	4	0	0	165396	691	0	correct_rejection	NA	0
43	Triplet	21	669	183	7	0	0	166104	692	0	correct_rejection	NA	0
43	Triplet	22	670	184	8	0	0	166813	691	0	correct_rejection	NA	0
43	Triplet	23	671	185	9	0	0	167521	692	0	correct_rejection	NA	0
43	Triplet	24	672	186	6	0	0	168230	691	0	correct_rejection	NA	0
43	Triplet	25	673	187	0	1	1	168938	692	1	hit	590	0
43	Triplet	26	674	188	5	0	0	169647	692	0	correct_rejection	NA	0
43	Triplet	27	675	189	4	0	0	170355	692	0	correct_rejection	NA	0
43	Triplet	28	676	190	9	0	0	171064	692	0	correct_rejection	NA	0
43	Triplet	29	677	191	8	0	0	171773	691	0	correct_rejection	NA	0
43	Triplet	30	678	192	7	0	0	172481	692	0	correct_rejection	NA	0
43	Triplet	31	679	193	7	0	0	173190	691	0	correct_rejection	NA	0
43	Triplet	32	680	194	8	0	0	173898	692	0	correct_rejection	NA	0
43	Triplet	33	681	195	9	0	0	174607	692	0	correct_rejection	NA	0
43	Triplet	34	682	196	4	0	0	175315	692	0	correct_rejection	NA	0
43	Triplet	35	683	197	5	0	0	176024	692	0	correct_rejection	NA	0
43	Triplet	36	684	198	6	0	0	176733	691	0	correct_rejection	NA	0
43	Triplet	37	685	199	4	0	0	177441	692	0	correct_rejection	NA	0
43	Triplet	38	686	200	5	0	0	178150	691	0	correct_rejection	NA	0
43	Triplet	39	687	201	0	1	1	178858	692	1	hit	387	0
43	Triplet	40	688	202	6	0	0	179567	692	0	correct_rejection	NA	0
43	Triplet	41	689	203	7	0	0	180275	692	0	correct_rejection	NA	0
43	Triplet	42	690	204	8	0	0	180984	692	0	correct_rejection	NA	0
43	Triplet	43	691	205	9	0	0	181693	691	0	correct_rejection	NA	0
43	Triplet	44	692	206	7	0	0	182401	692	0	correct_rejection	NA	0
43	Triplet	45	693	207	8	0	0	183110	691	0	correct_rejection	NA	0
43	Triplet	46	694	208	9	0	0	183818	692	0	correct_rejection	NA	0
43	Triplet	47	695	209	9	0	0	184527	691	0	correct_rejection	NA	0
43	Triplet	48	696	210	8	0	0	185235	692	0	correct_rejection	NA	0
43	Triplet	49	697	211	0	1	1	185944	692	1	hit	402	0
43	Triplet	50	698	212	7	0	0	186653	691	0	correct_rejection	NA	0
43	Triplet	51	699	213	9	0	0	187361	692	0	correct_rejection	NA	0
43	Triplet	52	700	214	8	0	0	188070	691	0	correct_rejection	NA	0
43	Triplet	53	701	215	7	0	0	188778	692	0	correct_rejection	NA	0
43	Triplet	54	702	216	7	0	0	189487	691	0	correct_rejection	NA	0
43	Triplet	55	703	217	0	1	1	190195	692	1	hit	341	0
43	Triplet	56	704	218	8	0	0	190904	692	0	correct_rejection	NA	0
43	Triplet	57	705	219	9	0	0	191612	692	0	correct_rejection	NA	0
43	Triplet	58	706	220	7	0	0	192321	692	0	correct_rejection	NA	0
43	Triplet	59	707	221	8	0	0	193030	691	0	correct_rejection	NA	0
43	Triplet	60	708	222	0	1	1	193738	692	1	hit	451	0
43	Triplet	61	709	223	9	0	0	194447	691	0	correct_rejection	NA	0
43	Triplet	62	710	224	6	0	0	195155	692	0	correct_rejection	NA	0
43	Triplet	63	711	225	5	0	0	195864	692	0	correct_rejection	NA	0
43	Triplet	64	712	226	4	0	0	196572	692	0	correct_rejection	NA	0
43	Triplet	65	713	227	6	0	0	197281	692	0	correct_rejection	NA	0
43	Triplet	66	714	228	5	0	0	197990	691	0	correct_rejection	NA	0
43	Triplet	67	715	229	4	0	0	198698	692	0	correct_rejection	NA	0
43	Triplet	68	716	230	0	1	2	199407	691	1	hit	350	0
43	Triplet	69	717	231	4	0	0	200115	692	0	correct_rejection	NA	0
43	Triplet	70	718	232	5	0	0	200824	692	0	correct_rejection	NA	0
43	Triplet	71	719	233	6	0	0	201532	692	0	correct_rejection	NA	0
43	Triplet	72	720	234	4	0	0	202241	692	0	correct_rejection	NA	0
43	Triplet	73	721	235	5	0	0	202950	691	0	correct_rejection	NA	0
43	Triplet	74	722	236	6	0	0	203658	692	0	correct_rejection	NA	0
43	Triplet	75	723	237	6	0	0	204367	691	0	correct_rejection	NA	0
43	Triplet	76	724	238	5	0	0	205075	692	0	correct_rejection	NA	0
43	Triplet	77	725	239	0	1	1	205784	691	1	hit	533	0
43	Triplet	78	726	240	4	0	0	206492	692	0	correct_rejection	NA	0
43	Triplet	79	727	241	7	0	0	207201	692	0	correct_rejection	NA	0
43	Triplet	80	728	242	8	0	0	207909	692	0	correct_rejection	NA	0
43	Triplet	81	729	243	9	0	0	208618	692	0	correct_rejection	NA	0
43	Triplet	82	730	244	4	0	0	209327	691	0	correct_rejection	NA	0
43	Triplet	83	731	245	5	0	0	210035	692	0	correct_rejection	NA	0
43	Triplet	84	732	246	6	0	0	210744	691	0	correct_rejection	NA	0
43	Triplet	85	733	247	9	0	0	211452	692	0	correct_rejection	NA	0
43	Triplet	86	734	248	8	0	0	212161	692	0	correct_rejection	NA	0
43	Triplet	87	735	249	7	0	0	212869	692	0	correct_rejection	NA	0
43	Triplet	88	736	250	9	0	0	213578	692	0	correct_rejection	NA	0
43	Triplet	89	737	251	8	0	0	214287	691	0	correct_rejection	NA	0
43	Triplet	90	738	252	7	0	0	214995	692	0	correct_rejection	NA	0
43	Triplet	91	739	253	7	0	0	215704	691	0	correct_rejection	NA	0
43	Triplet	92	740	254	8	0	0	216412	692	0	correct_rejection	NA	0
43	Triplet	93	741	255	9	0	0	217121	692	0	correct_rejection	NA	0
43	Triplet	94	742	256	9	0	0	217829	692	0	correct_rejection	NA	0
43	Triplet	95	743	257	8	0	0	218538	692	0	correct_rejection	NA	0
43	Triplet	96	744	258	7	0	0	219247	691	0	correct_rejection	NA	0
43	Triplet	97	745	259	6	0	0	219955	692	0	correct_rejection	NA	0
43	Triplet	98	746	260	5	0	0	220664	691	0	correct_rejection	NA	0
43	Triplet	99	747	261	4	0	0	221372	692	0	correct_rejection	NA	0
43	Triplet	100	748	262	9	0	0	222081	692	0	correct_rejection	NA	0
43	Triplet	101	749	263	8	0	0	222789	692	0	correct_rejection	NA	0
43	Triplet	102	750	264	0	1	1	223498	692	1	hit	371	0
43	Triplet	103	751	265	7	0	0	224207	691	0	correct_rejection	NA	0
43	Triplet	104	752	266	4	0	0	224915	692	0	correct_rejection	NA	0
43	Triplet	105	753	267	5	0	0	225624	691	0	correct_rejection	NA	0
43	Triplet	106	754	268	6	0	0	226332	692	0	correct_rejection	NA	0
43	Triplet	107	755	269	7	0	0	227041	691	0	correct_rejection	NA	0
43	Triplet	108	756	270	8	0	0	227749	692	0	correct_rejection	NA	0
43	Triplet	109	757	271	9	0	0	228458	692	0	correct_rejection	NA	0
43	Triplet	110	758	272	0	1	2	229166	692	1	hit	410	0
43	Triplet	111	759	273	9	0	0	229875	692	0	correct_rejection	NA	0
43	Triplet	112	760	274	8	0	0	230584	691	0	correct_rejection	NA	0
43	Triplet	113	761	275	7	0	0	231292	692	0	correct_rejection	NA	0
43	Triplet	114	762	276	4	0	0	232001	691	0	correct_rejection	NA	0
43	Triplet	115	763	277	5	0	0	232709	692	0	correct_rejection	NA	0
43	Triplet	116	764	278	6	0	0	233418	692	0	correct_rejection	NA	0
43	Triplet	117	765	279	0	1	2	234126	692	1	hit	413	0
43	Triplet	118	766	280	4	0	0	234835	692	0	correct_rejection	NA	0
43	Triplet	119	767	281	5	0	0	235544	691	0	correct_rejection	NA	0
43	Triplet	120	768	282	6	0	0	236252	692	0	correct_rejection	NA	0
43	Triplet	121	769	283	9	0	0	236961	691	0	correct_rejection	NA	0
43	Triplet	122	770	284	8	0	0	237669	692	0	correct_rejection	NA	0
43	Triplet	123	771	285	0	1	1	238378	692	1	hit	564	0
43	Triplet	124	772	286	7	0	0	239086	692	0	correct_rejection	NA	0
43	Triplet	125	773	287	7	0	0	239795	692	0	correct_rejection	NA	0
43	Triplet	126	774	288	8	0	0	240504	691	0	correct_rejection	NA	0
43	Triplet	127	775	289	9	0	0	241212	692	0	correct_rejection	NA	0
43	Triplet	128	776	290	0	1	2	241921	691	1	hit	442	0
43	Triplet	129	777	291	6	0	0	242629	692	0	correct_rejection	NA	0
43	Triplet	130	778	292	5	0	0	243338	692	0	correct_rejection	NA	0
43	Triplet	131	779	293	4	0	0	244046	692	0	correct_rejection	NA	0
43	Triplet	132	780	294	7	0	0	244755	692	0	correct_rejection	NA	0
43	Triplet	133	781	295	8	0	0	245464	691	0	correct_rejection	NA	0
43	Triplet	134	782	296	9	0	0	246172	692	0	correct_rejection	NA	0
43	Triplet	135	783	297	7	0	0	246881	691	0	correct_rejection	NA	0
43	Triplet	136	784	298	8	0	0	247589	692	0	correct_rejection	NA	0
43	Triplet	137	785	299	9	0	0	248298	691	0	correct_rejection	NA	0
43	Triplet	138	786	300	4	0	0	249006	692	0	correct_rejection	NA	0
43	Triplet	139	787	301	0	1	1	249715	692	1	hit	549	0
43	Triplet	140	788	302	5	0	0	250423	692	0	correct_rejection	NA	0
43	Triplet	141	789	303	6	0	0	251132	692	0	correct_rejection	NA	0
43	Triplet	142	790	304	0	1	2	251841	691	1	hit	401	0
43	Triplet	143	791	305	6	0	0	252549	692	0	correct_rejection	NA	0
43	Triplet	144	792	306	5	0	0	253258	691	0	correct_rejection	NA	0
43	Triplet	145	793	307	4	0	0	253966	692	0	correct_rejection	NA	0
43	Triplet	146	794	308	6	0	0	254675	692	0	correct_rejection	NA	0
43	Triplet	147	795	309	5	0	0	255383	692	0	correct_rejection	NA	0
43	Triplet	148	796	310	4	0	0	256092	692	0	correct_rejection	NA	0
43	Triplet	149	797	311	0	1	2	256801	691	1	hit	495	0
43	Triplet	150	798	312	9	0	0	257509	692	0	correct_rejection	NA	0
43	Triplet	151	799	313	8	0	0	258218	691	0	correct_rejection	NA	0
43	Triplet	152	800	314	7	0	0	258926	692	0	correct_rejection	NA	0
43	Triplet	153	801	315	0	1	2	259635	692	1	hit	330	0
43	Triplet	154	802	316	9	0	0	260343	692	0	correct_rejection	NA	0
43	Triplet	155	803	317	8	0	0	261052	692	0	correct_rejection	NA	0
43	Triplet	156	804	318	7	0	0	261761	691	0	correct_rejection	NA	0
43	Triplet	157	805	319	6	0	0	262469	692	0	correct_rejection	NA	0
43	Triplet	158	806	320	5	0	0	263178	691	0	correct_rejection	NA	0
43	Triplet	159	807	321	4	0	0	263886	692	0	correct_rejection	NA	0
43	Triplet	160	808	322	4	0	0	264595	691	0	correct_rejection	NA	0
43	Triplet	161	809	323	5	0	0	265303	692	0	correct_rejection	NA	0
43	Triplet	162	810	324	6	0	0	266012	692	0	correct_rejection	NA	0
43	Correct	1	1	325	4	0	0	275298	692	0	correct_rejection	NA	7098
43	Correct	2	2	326	5	0	0	276007	692	0	correct_rejection	NA	0
43	Correct	3	3	327	6	0	0	276715	692	0	correct_rejection	NA	0
43	Correct	4	4	328	0	1	2	277424	692	1	hit	451	0
43	Correct	5	5	329	4	0	0	278133	691	0	correct_rejection	NA	0
43	Correct	6	6	330	5	0	0	278841	692	0	correct_rejection	NA	0
43	Correct	7	7	331	6	0	0	279550	691	0	correct_rejection	NA	0
43	Correct	8	8	332	4	0	0	280258	692	0	correct_rejection	NA	0
43	Correct	9	9	333	5	0	0	280967	692	0	correct_rejection	NA	0
43	Correct	10	10	334	6	0	0	281675	692	0	correct_rejection	NA	0
43	Correct	11	11	335	0	1	3	282384	692	1	hit	506	0
43	Correct	12	12	336	6	0	0	283093	691	0	correct_rejection	NA	0
43	Correct	13	13	337	5	0	0	283801	692	0	correct_rejection	NA	0
43	Correct	14	14	338	4	0	0	284510	691	0	correct_rejection	NA	0
43	Correct	15	15	339	6	0	0	285218	692	0	correct_rejection	NA	0
43	Correct	16	16	340	0	1	1	285927	692	1	hit	407	0
43	Correct	17	17	341	5	0	0	286635	692	0	correct_rejection	NA	0
43	Correct	18	18	342	4	0	0	287344	692	0	correct_rejection	NA	0
43	Correct	19	19	343	6	0	0	288053	691	0	correct_rejection	NA	0
43	Correct	20	20	344	5	0	0	288761	692	0	correct_rejection	NA	0
43	Correct	21	21	345	4	0	0	289470	691	0	correct_rejection	NA	0
43	Correct	22	22	346	9	0	0	290178	692	0	correct_rejection	NA	0
43	Correct	23	23	347	8	0	0	290887	691	0	correct_rejection	NA	0
43	Correct	24	24	348	7	0	0	291595	692	0	correct_rejection	NA	0
43	Correct	25	25	349	9	0	0	292304	692	0	correct_rejection	NA	0
43	Correct	26	26	350	8	0	0	293012	692	0	correct_rejection	NA	0
43	Correct	27	27	351	7	0	0	293721	692	0	correct_rejection	NA	0
43	Correct	28	28	352	0	1	2	294430	691	1	hit	523	0
43	Correct	29	29	353	9	0	0	295138	692	0	correct_rejection	NA	0
43	Correct	30	30	354	8	0	0	295847	691	0	correct_rejection	NA	0
43	Correct	31	31	355	7	0	0	296555	692	0	correct_rejection	NA	0
43	Correct	32	32	356	7	0	0	297264	692	0	correct_rejection	NA	0
43	Correct	33	33	357	8	0	0	297972	692	0	correct_rejection	NA	0
43	Correct	34	34	358	9	0	0	298681	692	0	correct_rejection	NA	0
43	Correct	35	35	359	7	0	0	299390	691	0	correct_rejection	NA	0
43	Correct	36	36	360	8	0	0	300098	692	0	correct_rejection	NA	0
43	Correct	37	37	361	9	0	0	300807	691	0	correct_rejection	NA	0
43	Correct	38	38	362	7	0	0	301515	692	0	correct_rejection	NA	0
43	Correct	39	39	363	8	0	0	302224	692	0	correct_rejection	NA	0
43	Correct	40	40	364	9	0	0	302932	692	0	correct_rejection	NA	0
43	Correct	41	41	365	0	1	4	303641	692	1	hit	453	0
43	Correct	42	42	366	4	0	0	304350	691	0	correct_rejection	NA	0
43	Correct	43	43	367	5	0	0	305058	692	0	correct_rejection	NA	0
43	Correct	44	44	368	0	1	1	305767	691	1	hit	475	0
43	Correct	45	45	369	6	0	0	306475	692	0	correct_rejection	NA	0
43	Correct	46	46	370	4	0	0	307184	691	0	correct_rejection	NA	0
43	Correct	47	47	371	5	0	0	307892	692	0	correct_rejection	NA	0
43	Correct	48	48	372	6	0	0	308601	692	0	correct_rejection	NA	0
43	Correct	49	49	373	4	0	0	309310	691	0	correct_rejection	NA	0
43	Correct	50	50	374	5	0	0	310018	692	0	correct_rejection	NA	0
43	Correct	51	51	375	6	0	0	310727	691	0	correct_rejection	NA	0
43	Correct	52	52	376	6	0	0	311435	692	0	correct_rejection	NA	0
43	Correct	53	53	377	5	0	0	312144	691	0	correct_rejection	NA	0
43	Correct	54	54	378	4	0	0	312852	692	0	correct_rejection	NA	0
43	Correct	55	55	379	6	0	0	313561	692	0	correct_rejection	NA	0
43	Correct	56	56	380	5	0	0	314269	692	0	correct_rejection	NA	0
43	Correct	57	57	381	4	0	0	314978	692	0	correct_rejection	NA	0
43	Correct	58	58	382	6	0	0	315687	691	0	correct_rejection	NA	0
43	Correct	59	59	383	5	0	0	316395	692	0	correct_rejection	NA	0
43	Correct	60	60	384	4	0	0	317104	691	0	correct_rejection	NA	0
43	Correct	61	61	385	9	0	0	317812	692	0	correct_rejection	NA	0
43	Correct	62	62	386	8	0	0	318521	692	0	correct_rejection	NA	0
43	Correct	63	63	387	7	0	0	319229	692	0	correct_rejection	NA	0
43	Correct	64	64	388	9	0	0	319938	692	0	correct_rejection	NA	0
43	Correct	65	65	389	8	0	0	320647	691	0	correct_rejection	NA	0
43	Correct	66	66	390	7	0	0	321355	692	0	correct_rejection	NA	0
43	Correct	67	67	391	9	0	0	322064	691	0	correct_rejection	NA	0
43	Correct	68	68	392	8	0	0	322772	692	0	correct_rejection	NA	0
43	Correct	69	69	393	7	0	0	323481	692	0	correct_rejection	NA	0
43	Correct	70	70	394	7	0	0	324189	692	0	correct_rejection	NA	0
43	Correct	71	71	395	8	0	0	324898	692	0	correct_rejection	NA	0
43	Correct	72	72	396	9	0	0	325607	691	0	correct_rejection	NA	0
43	Correct	73	73	397	7	0	0	326315	692	0	correct_rejection	NA	0
43	Correct	74	74	398	8	0	0	327024	691	0	correct_rejection	NA	0
43	Correct	75	75	399	9	0	0	327732	692	0	correct_rejection	NA	0
43	Correct	76	76	400	7	0	0	328441	691	0	correct_rejection	NA	0
43	Correct	77	77	401	8	0	0	329149	692	0	correct_rejection	NA	0
43	Correct	78	78	402	9	0	0	329858	692	0	correct_rejection	NA	0
43	Correct	79	79	403	4	0	0	330566	692	0	correct_rejection	NA	0
43	Correct	80	80	404	0	1	1	331275	692	1	hit	520	0
43	Correct	81	81	405	5	0	0	331984	691	0	correct_rejection	NA	0
43	Correct	82	82	406	6	0	0	332692	692	0	correct_rejection	NA	0
43	Correct	83	83	407	4	0	0	333401	691	0	correct_rejection	NA	0
43	Correct	84	84	408	5	0	0	334109	692	0	correct_rejection	NA	0
43	Correct	85	85	409	6	0	0	334818	692	0	correct_rejection	NA	0
43	Correct	86	86	410	4	0	0	335526	692	0	correct_rejection	NA	0
43	Correct	87	87	411	0	1	1	336235	692	1	hit	467	0
43	Correct	88	88	412	5	0	0	336944	691	0	correct_rejection	NA	0
43	Correct	89	89	413	6	0	0	337652	692	0	correct_rejection	NA	0
43	Correct	90	90	414	6	0	0	338361	691	0	correct_rejection	NA	0
43	Correct	91	91	415	5	0	0	339069	692	0	correct_rejection	NA	0
43	Correct	92	92	416	0	1	1	339778	692	1	hit	344	0
43	Correct	93	93	417	4	0	0	340486	692	0	correct_rejection	NA	0
43	Correct	94	94	418	6	0	0	341195	692	0	correct_rejection	NA	0
43	Correct	95	95	419	5	0	0	341904	691	0	correct_rejection	NA	0
43	Correct	96	96	420	0	1	1	342612	692	1	hit	400	0
43	Correct	97	97	421	4	0	0	343321	691	0	correct_rejection	NA	0
43	Correct	98	98	422	6	0	0	344029	692	0	correct_rejection	NA	0
43	Correct	99	99	423	5	0	0	344738	692	0	correct_rejection	NA	0
43	Correct	100	100	424	4	0	0	345446	692	0	correct_rejection	NA	0
43	Correct	101	101	425	9	0	0	346155	692	0	correct_rejection	NA	0
43	Correct	102	102	426	0	1	1	346864	691	1	hit	384	0
43	Correct	103	103	427	8	0	0	347572	692	0	correct_rejection	NA	0
43	Correct	104	104	428	7	0	0	348281	691	0	correct_rejection	NA	0
43	Correct	105	105	429	9	0	0	348989	692	0	correct_rejection	NA	0
43	Correct	106	106	430	8	0	0	349698	691	0	correct_rejection	NA	0
43	Correct	107	107	431	7	0	0	350406	692	0	correct_rejection	NA	0
43	Correct	108	108	432	9	0	0	351115	692	0	correct_rejection	NA	0
43	Correct	109	109	433	8	0	0	351823	692	0	correct_rejection	NA	0
43	Correct	110	110	434	0	1	1	352532	692	1	hit	412	0
43	Correct	111	111	435	7	0	0	353241	691	0	correct_rejection	NA	0
43	Correct	112	112	436	7	0	0	353949	692	0	correct_rejection	NA	0
43	Correct	113	113	437	8	0	0	354658	691	0	correct_rejection	NA	0
43	Correct	114	114	438	9	0	0	355366	692	0	correct_rejection	NA	0
43	Correct	115	115	439	7	0	0	356075	692	0	correct_rejection	NA	0
43	Correct	116	116	440	8	0	0	356783	692	0	correct_rejection	NA	0
43	Correct	117	117	441	9	0	0	357492	692	0	correct_rejection	NA	0
43	Correct	118	118	442	7	0	0	358201	691	0	correct_rejection	NA	0
43	Correct	119	119	443	8	0	0	358909	692	0	correct_rejection	NA	0
43	Correct	120	120	444	0	1	1	359618	691	1	hit	403	0
43	Correct	121	121	445	9	0	0	360326	692	0	correct_rejection	NA	0
43	Correct	122	122	446	4	0	0	361035	692	0	correct_rejection	NA	0
43	Correct	123	123	447	5	0	0	361743	692	0	correct_rejection	NA	0
43	Correct	124	124	448	6	0	0	362452	692	0	correct_rejection	NA	0
43	Correct	125	125	449	4	0	0	363161	691	0	correct_rejection	NA	0
43	Correct	126	126	450	5	0	0	363869	692	0	correct_rejection	NA	0
43	Correct	127	127	451	6	0	0	364578	691	0	correct_rejection	NA	0
43	Correct	128	128	452	4	0	0	365286	692	0	correct_rejection	NA	0
43	Correct	129	129	453	5	0	0	365995	691	0	correct_rejection	NA	0
43	Correct	130	130	454	0	1	1	366703	692	1	hit	472	0
43	Correct	131	131	455	6	0	0	367412	692	0	correct_rejection	NA	0
43	Correct	132	132	456	6	0	0	368121	691	0	correct_rejection	NA	0
43	Correct	133	133	457	0	1	1	368829	692	0	miss	NA	0
43	Correct	134	134	458	5	0	0	369538	691	0	correct_rejection	NA	0
43	Correct	135	135	459	4	0	0	370246	692	0	correct_rejection	NA	0
43	Correct	136	136	460	6	0	0	370955	691	0	correct_rejection	NA	0
43	Correct	137	137	461	5	0	0	371663	692	0	correct_rejection	NA	0
43	Correct	138	138	462	4	0	0	372372	692	0	correct_rejection	NA	0
43	Correct	139	139	463	0	1	2	373080	692	1	hit	454	0
43	Correct	140	140	464	6	0	0	373789	692	0	correct_rejection	NA	0
43	Correct	141	141	465	5	0	0	374498	691	0	correct_rejection	NA	0
43	Correct	142	142	466	4	0	0	375206	692	0	correct_rejection	NA	0
43	Correct	143	143	467	9	0	0	375915	691	0	correct_rejection	NA	0
43	Correct	144	144	468	8	0	0	376623	692	0	correct_rejection	NA	0
43	Correct	145	145	469	7	0	0	377332	692	0	correct_rejection	NA	0
43	Correct	146	146	470	9	0	0	378040	692	0	correct_rejection	NA	0
43	Correct	147	147	471	8	0	0	378749	692	0	correct_rejection	NA	0
43	Correct	148	148	472	7	0	0	379458	691	0	correct_rejection	NA	0
43	Correct	149	149	473	9	0	0	380166	692	0	correct_rejection	NA	0
43	Correct	150	150	474	0	1	1	380875	691	1	hit	418	0
43	Correct	151	151	475	8	0	0	381583	692	0	correct_rejection	NA	0
43	Correct	152	152	476	7	0	0	382292	692	0	correct_rejection	NA	0
43	Correct	153	153	477	7	0	0	383000	692	0	correct_rejection	NA	0
43	Correct	154	154	478	8	0	0	383709	692	0	correct_rejection	NA	0
43	Correct	155	155	479	9	0	0	384418	691	0	correct_rejection	NA	0
43	Correct	156	156	480	0	1	2	385126	692	1	hit	379	0
43	Correct	157	157	481	7	0	0	385835	691	0	correct_rejection	NA	0
43	Correct	158	158	482	8	0	0	386543	692	0	correct_rejection	NA	0
43	Correct	159	159	483	9	0	0	387252	691	0	correct_rejection	NA	0
43	Correct	160	160	484	7	0	0	387960	692	0	correct_rejection	NA	0
43	Correct	161	161	485	8	0	0	388669	692	0	correct_rejection	NA	0
43	Correct	162	162	486	9	0	0	389377	692	0	correct_rejection	NA	0
43	Nonet	1	487	487	7	0	0	398822	692	0	correct_rejection	NA	7618
43	Nonet	2	488	488	8	0	0	399531	692	0	correct_rejection	NA	0
43	Nonet	3	489	489	9	0	0	400239	692	0	correct_rejection	NA	0
43	Nonet	4	490	490	0	1	2	400948	692	1	hit	474	0
43	Nonet	5	491	491	7	0	0	401657	691	0	correct_rejection	NA	0
43	Nonet	6	492	492	8	0	0	402365	692	0	correct_rejection	NA	0
43	Nonet	7	493	493	9	0	0	403074	691	0	correct_rejection	NA	0
43	Nonet	8	494	494	7	0	0	403782	692	0	correct_rejection	NA	0
43	Nonet	9	495	495	8	0	0	404491	691	0	correct_rejection	NA	0
43	Nonet	10	496	496	9	0	0	405199	692	0	correct_rejection	NA	0
43	Nonet	11	497	497	7	0	0	405908	692	0	correct_rejection	NA	0
43	Nonet	12	498	498	8	0	0	406616	692	0	correct_rejection	NA	0
43	Nonet	13	499	499	0	1	1	407325	692	0	miss	NA	0
43	Nonet	14	500	500	9	0	0	408034	691	1	false_alarm	71	0
43	Nonet	15	501	501	7	0	0	408742	692	0	correct_rejection	NA	0
43	Nonet	16	502	502	0	1	1	409451	691	1	hit	425	0
43	Nonet	17	503	503	8	0	0	410159	692	0	correct_rejection	NA	0
43	Nonet	18	504	504	9	0	0	410868	692	0	correct_rejection	NA	0
43	Nonet	19	505	505	7	0	0	411576	692	0	correct_rejection	NA	0
43	Nonet	20	506	506	8	0	0	412285	692	0	correct_rejection	NA	0
43	Nonet	21	507	507	9	0	0	412994	691	0	correct_rejection	NA	0
43	Nonet	22	508	508	9	0	0	413702	692	0	correct_rejection	NA	0
43	Nonet	23	509	509	8	0	0	414411	691	0	correct_rejection	NA	0
43	Nonet	24	510	510	7	0	0	415119	692	0	correct_rejection	NA	0
43	Nonet	25	511	511	9	0	0	415828	692	0	correct_rejection	NA	0
43	Nonet	26	512	512	8	0	0	416536	692	0	correct_rejection	NA	0
43	Nonet	27	513	513	7	0	0	417245	692	0	correct_rejection	NA	0
43	Nonet	28	514	514	9	0	0	417954	691	0	correct_rejection	NA	0
43	Nonet	29	515	515	0	1	1	418662	692	1	hit	605	0
43	Nonet	30	516	516	8	0	0	419371	691	0	correct_rejection	NA	0
43	Nonet	31	517	517	7	0	0	420079	692	0	correct_rejection	NA	0
43	Nonet	32	518	518	9	0	0	420788	691	0	correct_rejection	NA	0
43	Nonet	33	519	519	8	0	0	421496	692	0	correct_rejection	NA	0
43	Nonet	34	520	520	7	0	0	422205	692	0	correct_rejection	NA	0
43	Nonet	35	521	521	9	0	0	422914	691	0	correct_rejection	NA	0
43	Nonet	36	522	522	0	1	1	423622	692	1	hit	606	0
43	Nonet	37	523	523	8	0	0	424331	691	0	correct_rejection	NA	0
43	Nonet	38	524	524	7	0	0	425039	692	0	correct_rejection	NA	0
43	Nonet	39	525	525	9	0	0	425748	691	0	correct_rejection	NA	0
43	Nonet	40	526	526	8	0	0	426456	692	0	correct_rejection	NA	0
43	Nonet	41	527	527	7	0	0	427165	692	0	correct_rejection	NA	0
43	Nonet	42	528	528	4	0	0	427873	692	0	correct_rejection	NA	0
43	Nonet	43	529	529	5	0	0	428582	692	0	correct_rejection	NA	0
43	Nonet	44	530	530	6	0	0	429291	691	0	correct_rejection	NA	0
43	Nonet	45	531	531	4	0	0	429999	692	0	correct_rejection	NA	0
43	Nonet	46	532	532	5	0	0	430708	691	0	correct_rejection	NA	0
43	Nonet	47	533	533	0	1	1	431416	692	1	hit	442	0
43	Nonet	48	534	534	6	0	0	432125	692	0	correct_rejection	NA	0
43	Nonet	49	535	535	4	0	0	432833	692	0	correct_rejection	NA	0
43	Nonet	50	536	536	5	0	0	433542	692	0	correct_rejection	NA	0
43	Nonet	51	537	537	6	0	0	434251	691	0	correct_rejection	NA	0
43	Nonet	52	538	538	6	0	0	434959	692	0	correct_rejection	NA	0
43	Nonet	53	539	539	5	0	0	435668	691	0	correct_rejection	NA	0
43	Nonet	54	540	540	4	0	0	436376	692	0	correct_rejection	NA	0
43	Nonet	55	541	541	6	0	0	437085	692	0	correct_rejection	NA	0
43	Nonet	56	542	542	5	0	0	437793	692	0	correct_rejection	NA	0
43	Nonet	57	543	543	4	0	0	438502	692	0	correct_rejection	NA	0
43	Nonet	58	544	544	6	0	0	439211	691	0	correct_rejection	NA	0
43	Nonet	59	545	545	5	0	0	439919	692	0	correct_rejection	NA	0
43	Nonet	60	546	546	4	0	0	440628	691	0	correct_rejection	NA	0
43	Nonet	61	547	547	4	0	0	441336	692	0	correct_rejection	NA	0
43	Nonet	62	548	548	5	0	0	442045	691	0	correct_rejection	NA	0
43	Nonet	63	549	549	6	0	0	442753	692	0	correct_rejection	NA	0
43	Nonet	64	550	550	4	0	0	443462	692	0	correct_rejection	NA	0
43	Nonet	65	551	551	5	0	0	444170	692	0	correct_rejection	NA	0
43	Nonet	66	552	552	6	0	0	444879	692	0	correct_rejection	NA	0
43	Nonet	67	553	553	0	1	2	445588	691	1	hit	441	0
43	Nonet	68	554	554	4	0	0	446296	692	0	correct_rejection	NA	0
43	Nonet	69	555	555	5	0	0	447005	691	0	correct_rejection	NA	0
43	Nonet	70	556	556	6	0	0	447713	692	0	correct_rejection	NA	0
43	Nonet	71	557	557	7	0	0	448422	692	0	correct_rejection	NA	0
43	Nonet	72	558	558	8	0	0	449130	692	0	correct_rejection	NA	0
43	Nonet	73	559	559	9	0	0	449839	692	0	correct_rejection	NA	0
43	Nonet	74	560	560	7	0	0	450548	691	0	correct_rejection	NA	0
43	Nonet	75	561	561	8	0	0	451256	692	0	correct_rejection	NA	0
43	Nonet	76	562	562	9	0	0	451965	691	0	correct_rejection	NA	0
43	Nonet	77	563	563	7	0	0	452673	692	0	correct_rejection	NA	0
43	Nonet	78	564	564	8	0	0	453382	692	0	correct_rejection	NA	0
43	Nonet	79	565	565	9	0	0	454090	692	0	correct_rejection	NA	0
43	Nonet	80	566	566	6	0	0	454799	692	0	correct_rejection	NA	0
43	Nonet	81	567	567	5	0	0	455508	691	0	correct_rejection	NA	0
43	Nonet	82	568	568	0	1	1	456216	692	1	hit	447	0
43	Nonet	83	569	569	4	0	0	456925	691	0	correct_rejection	NA	0
43	Nonet	84	570	570	6	0	0	457633	692	0	correct_rejection	NA	0
43	Nonet	85	571	571	5	0	0	458342	692	0	correct_rejection	NA	0
43	Nonet	86	572	572	4	0	0	459050	692	0	correct_rejection	NA	0
43	Nonet	87	573	573	0	1	2	459759	692	1	hit	561	0
43	Nonet	88	574	574	6	0	0	460468	691	0	correct_rejection	NA	0
43	Nonet	89	575	575	5	0	0	461176	692	0	correct_rejection	NA	0
43	Nonet	90	576	576	4	0	0	461885	691	0	correct_rejection	NA	0
43	Nonet	91	577	577	9	0	0	462593	692	0	correct_rejection	NA	0
43	Nonet	92	578	578	8	0	0	463302	691	0	correct_rejection	NA	0
43	Nonet	93	579	579	7	0	0	464010	692	0	correct_rejection	NA	0
43	Nonet	94	580	580	9	0	0	464719	692	0	correct_rejection	NA	0
43	Nonet	95	581	581	8	0	0	465427	692	0	correct_rejection	NA	0
43	Nonet	96	582	582	7	0	0	466136	692	0	correct_rejection	NA	0
43	Nonet	97	583	583	0	1	2	466845	691	1	hit	372	0
43	Nonet	98	584	584	9	0	0	467553	692	0	correct_rejection	NA	0
43	Nonet	99	585	585	8	0	0	468262	691	0	correct_rejection	NA	0
43	Nonet	100	586	586	7	0	0	468970	692	0	correct_rejection	NA	0
43	Nonet	101	587	587	6	0	0	469679	692	0	correct_rejection	NA	0
43	Nonet	102	588	588	5	0	0	470387	692	0	correct_rejection	NA	0
43	Nonet	103	589	589	0	1	1	471096	692	1	hit	499	0
43	Nonet	104	590	590	4	0	0	471805	691	0	correct_rejection	NA	0
43	Nonet	105	591	591	6	0	0	472513	692	0	correct_rejection	NA	0
43	Nonet	106	592	592	5	0	0	473222	691	0	correct_rejection	NA	0
43	Nonet	107	593	593	4	0	0	473930	692	0	correct_rejection	NA	0
43	Nonet	108	594	594	6	0	0	474639	692	0	correct_rejection	NA	0
43	Nonet	109	595	595	5	0	0	475347	692	0	correct_rejection	NA	0
43	Nonet	110	596	596	4	0	0	476056	692	0	correct_rejection	NA	0
43	Nonet	111	597	597	6	0	0	476765	691	0	correct_rejection	NA	0
43	Nonet	112	598	598	5	0	0	477473	692	0	correct_rejection	NA	0
43	Nonet	113	599	599	4	0	0	478182	691	0	correct_rejection	NA	0
43	Nonet	114	600	600	6	0	0	478890	692	0	correct_rejection	NA	0
43	Nonet	115	601	601	5	0	0	479599	691	0	correct_rejection	NA	0
43	Nonet	116	602	602	4	0	0	480307	692	0	correct_rejection	NA	0
43	Nonet	117	603	603	6	0	0	481016	692	0	correct_rejection	NA	0
43	Nonet	118	604	604	0	1	1	481725	691	1	hit	528	0
43	Nonet	119	605	605	5	0	0	482433	692	0	correct_rejection	NA	0
43	Nonet	120	606	606	4	0	0	483142	691	0	correct_rejection	NA	0
43	Nonet	121	607	607	7	0	0	483850	692	0	correct_rejection	NA	0
43	Nonet	122	608	608	8	0	0	484559	691	0	correct_rejection	NA	0
43	Nonet	123	609	609	0	1	1	485267	692	1	hit	380	0
43	Nonet	124	610	610	9	0	0	485976	692	0	correct_rejection	NA	0
43	Nonet	125	611	611	7	0	0	486684	692	0	correct_rejection	NA	0
43	Nonet	126	612	612	0	1	1	487393	692	1	hit	354	0
43	Nonet	127	613	613	8	0	0	488102	691	0	correct_rejection	NA	0
43	Nonet	128	614	614	9	0	0	488810	692	0	correct_rejection	NA	0
43	Nonet	129	615	615	0	1	2	489519	691	1	hit	580	0
43	Nonet	130	616	616	7	0	0	490227	692	0	correct_rejection	NA	0
43	Nonet	131	617	617	8	0	0	490936	692	0	correct_rejection	NA	0
43	Nonet	132	618	618	9	0	0	491644	692	0	correct_rejection	NA	0
43	Nonet	133	619	619	4	0	0	492353	692	0	correct_rejection	NA	0
43	Nonet	134	620	620	5	0	0	493062	691	0	correct_rejection	NA	0
43	Nonet	135	621	621	6	0	0	493770	692	0	correct_rejection	NA	0
43	Nonet	136	622	622	4	0	0	494479	691	0	correct_rejection	NA	0
43	Nonet	137	623	623	5	0	0	495187	692	0	correct_rejection	NA	0
43	Nonet	138	624	624	6	0	0	495896	692	0	correct_rejection	NA	0
43	Nonet	139	625	625	4	0	0	496604	692	0	correct_rejection	NA	0
43	Nonet	140	626	626	5	0	0	497313	692	0	correct_rejection	NA	0
43	Nonet	141	627	627	6	0	0	498022	691	0	correct_rejection	NA	0
43	Nonet	142	628	628	4	0	0	498730	692	0	correct_rejection	NA	0
43	Nonet	143	629	629	5	0	0	499439	691	0	correct_rejection	NA	0
43	Nonet	144	630	630	6	0	0	500147	692	0	correct_rejection	NA	0
43	Nonet	145	631	631	4	0	0	500856	691	0	correct_rejection	NA	0
43	Nonet	146	632	632	0	1	1	501564	692	1	hit	344	0
43	Nonet	147	633	633	5	0	0	502273	692	0	correct_rejection	NA	0
43	Nonet	148	634	634	6	0	0	502981	692	0	correct_rejection	NA	0
43	Nonet	149	635	635	0	1	2	503690	692	1	hit	535	0
43	Nonet	150	636	636	4	0	0	504399	691	0	correct_rejection	NA	0
43	Nonet	151	637	637	5	0	0	505107	692	0	correct_rejection	NA	0
43	Nonet	152	638	638	6	0	0	505816	691	0	correct_rejection	NA	0
43	Nonet	153	639	639	9	0	0	506524	692	0	correct_rejection	NA	0
43	Nonet	154	640	640	8	0	0	507233	692	0	correct_rejection	NA	0
43	Nonet	155	641	641	7	0	0	507941	692	0	correct_rejection	NA	0
43	Nonet	156	642	642	9	0	0	508650	692	0	correct_rejection	NA	0
43	Nonet	157	643	643	8	0	0	509359	691	0	correct_rejection	NA	0
43	Nonet	158	644	644	7	0	0	510067	692	0	correct_rejection	NA	0
43	Nonet	159	645	645	9	0	0	510776	691	0	correct_rejection	NA	0
43	Nonet	160	646	646	8	0	0	511484	692	0	correct_rejection	NA	0
43	Nonet	161	647	647	0	1	1	512193	692	1	hit	460	0
43	Nonet	162	648	648	7	0	0	512901	692	0	correct_rejection	NA	0
43	Single	1	325	649	9	0	0	522813	692	0	correct_rejection	NA	7609
43	Single	2	326	650	5	0	0	523522	691	0	correct_rejection	NA	0
43	Single	3	327	651	7	0	0	524230	692	0	correct_rejection	NA	0
43	Single	4	328	652	6	0	0	524939	691	0	correct_rejection	NA	0
43	Single	5	329	653	0	1	1	525647	692	1	hit	313	0
43	Single	6	330	654	9	0	0	526356	692	0	correct_rejection	NA	0
43	Single	7	331	655	4	0	0	527064	692	0	correct_rejection	NA	0
43	Single	8	332	656	4	0	0	527773	692	0	correct_rejection	NA	0
43	Single	9	333	657	7	0	0	528482	691	0	correct_rejection	NA	0
43	Single	10	334	658	8	0	0	529190	692	0	correct_rejection	NA	0
43	Single	11	335	659	5	0	0	529899	691	0	correct_rejection	NA	0
43	Single	12	336	660	9	0	0	530607	692	0	correct_rejection	NA	0
43	Single	13	337	661	0	1	1	531316	692	1	hit	476	0
43	Single	14	338	662	8	0	0	532024	692	0	correct_rejection	NA	0
43	Single	15	339	663	6	0	0	532733	692	0	correct_rejection	NA	0
43	Single	16	340	664	7	0	0	533442	691	0	correct_rejection	NA	0
43	Single	17	341	665	4	0	0	534150	692	0	correct_rejection	NA	0
43	Single	18	342	666	0	1	1	534859	691	1	hit	469	0
43	Single	19	343	667	5	0	0	535567	692	0	correct_rejection	NA	0
43	Single	20	344	668	8	0	0	536276	691	0	correct_rejection	NA	0
43	Single	21	345	669	8	0	0	536984	692	0	correct_rejection	NA	0
43	Single	22	346	670	9	0	0	537693	692	0	correct_rejection	NA	0
43	Single	23	347	671	7	0	0	538401	692	0	correct_rejection	NA	0
43	Single	24	348	672	5	0	0	539110	692	0	correct_rejection	NA	0
43	Single	25	349	673	5	0	0	539819	691	0	correct_rejection	NA	0
43	Single	26	350	674	4	0	0	540527	692	0	correct_rejection	NA	0
43	Single	27	351	675	9	0	0	541236	691	0	correct_rejection	NA	0
43	Single	28	352	676	9	0	0	541944	692	0	correct_rejection	NA	0
43	Single	29	353	677	6	0	0	542653	692	0	correct_rejection	NA	0
43	Single	30	354	678	8	0	0	543361	692	0	correct_rejection	NA	0
43	Single	31	355	679	4	0	0	544070	692	0	correct_rejection	NA	0
43	Single	32	356	680	6	0	0	544779	691	0	correct_rejection	NA	0
43	Single	33	357	681	0	1	1	545487	692	1	hit	414	0
43	Single	34	358	682	6	0	0	546196	691	0	correct_rejection	NA	0
43	Single	35	359	683	5	0	0	546904	692	0	correct_rejection	NA	0
43	Single	36	360	684	6	0	0	547613	692	0	correct_rejection	NA	0
43	Single	37	361	685	4	0	0	548321	692	0	correct_rejection	NA	0
43	Single	38	362	686	8	0	0	549030	692	0	correct_rejection	NA	0
43	Single	39	363	687	7	0	0	549739	691	0	correct_rejection	NA	0
43	Single	40	364	688	7	0	0	550447	692	0	correct_rejection	NA	0
43	Single	41	365	689	5	0	0	551156	691	0	correct_rejection	NA	0
43	Single	42	366	690	8	0	0	551864	692	0	correct_rejection	NA	0
43	Single	43	367	691	4	0	0	552573	691	0	correct_rejection	NA	0
43	Single	44	368	692	5	0	0	553281	692	0	correct_rejection	NA	0
43	Single	45	369	693	6	0	0	553990	692	0	correct_rejection	NA	0
43	Single	46	370	694	8	0	0	554698	692	0	correct_rejection	NA	0
43	Single	47	371	695	6	0	0	555407	692	0	correct_rejection	NA	0
43	Single	48	372	696	6	0	0	556116	691	0	correct_rejection	NA	0
43	Single	49	373	697	0	1	1	556824	692	0	miss	NA	0
43	Single	50	374	698	4	0	0	557533	691	0	correct_rejection	NA	0
43	Single	51	375	699	7	0	0	558241	692	0	correct_rejection	NA	0
43	Single	52	376	700	9	0	0	558950	692	0	correct_rejection	NA	0
43	Single	53	377	701	0	1	1	559658	692	1	hit	472	0
43	Single	54	378	702	7	0	0	560367	692	0	correct_rejection	NA	0
43	Single	55	379	703	7	0	0	561076	691	0	correct_rejection	NA	0
43	Single	56	380	704	8	0	0	561784	692	0	correct_rejection	NA	0
43	Single	57	381	705	0	1	1	562493	691	0	miss	NA	0
43	Single	58	382	706	7	0	0	563201	692	1	false_alarm	79	0
43	Single	59	383	707	4	0	0	563910	692	0	correct_rejection	NA	0
43	Single	60	384	708	0	1	1	564618	692	1	hit	416	0
43	Single	61	385	709	9	0	0	565327	692	0	correct_rejection	NA	0
43	Single	62	386	710	8	0	0	566036	691	0	correct_rejection	NA	0
43	Single	63	387	711	9	0	0	566744	692	0	correct_rejection	NA	0
43	Single	64	388	712	5	0	0	567453	691	0	correct_rejection	NA	0
43	Single	65	389	713	5	0	0	568161	692	0	correct_rejection	NA	0
43	Single	66	390	714	7	0	0	568870	692	0	correct_rejection	NA	0
43	Single	67	391	715	5	0	0	569578	692	0	correct_rejection	NA	0
43	Single	68	392	716	9	0	0	570287	692	0	correct_rejection	NA	0
43	Single	69	393	717	6	0	0	570996	691	0	correct_rejection	NA	0
43	Single	70	394	718	9	0	0	571704	692	0	correct_rejection	NA	0
43	Single	71	395	719	9	0	0	572413	691	0	correct_rejection	NA	0
43	Single	72	396	720	4	0	0	573121	692	0	correct_rejection	NA	0
43	Single	73	397	721	6	0	0	573830	691	0	correct_rejection	NA	0
43	Single	74	398	722	7	0	0	574538	692	0	correct_rejection	NA	0
43	Single	75	399	723	6	0	0	575247	692	0	correct_rejection	NA	0
43	Single	76	400	724	5	0	0	575955	692	0	correct_rejection	NA	0
43	Single	77	401	725	0	1	1	576664	692	0	miss	NA	0
43	Single	78	402	726	4	0	0	577373	691	0	correct_rejection	NA	0
43	Single	79	403	727	4	0	0	578081	692	0	correct_rejection	NA	0
43	Single	80	404	728	8	0	0	578790	691	0	correct_rejection	NA	0
43	Single	81	405	729	8	0	0	579498	692	0	correct_rejection	NA	0
43	Single	82	406	730	0	1	1	580207	692	1	hit	455	0
43	Single	83	407	731	8	0	0	580915	692	0	correct_rejection	NA	0
43	Single	84	408	732	4	0	0	581624	692	0	correct_rejection	NA	0
43	Single	85	409	733	9	0	0	582333	691	0	correct_rejection	NA	0
43	Single	86	410	734	7	0	0	583041	692	0	correct_rejection	NA	0
43	Single	87	411	735	4	0	0	583750	691	0	correct_rejection	NA	0
43	Single	88	412	736	8	0	0	584458	692	0	correct_rejection	NA	0
43	Single	89	413	737	9	0	0	585167	692	0	correct_rejection	NA	0
43	Single	90	414	738	4	0	0	585875	692	0	correct_rejection	NA	0
43	Single	91	415	739	7	0	0	586584	692	0	correct_rejection	NA	0
43	Single	92	416	740	6	0	0	587293	691	0	correct_rejection	NA	0
43	Single	93	417	741	6	0	0	588001	692	0	correct_rejection	NA	0
43	Single	94	418	742	0	1	1	588710	691	0	miss	NA	0
43	Single	95	419	743	8	0	0	589418	692	1	false_alarm	0	0
43	Single	96	420	744	8	0	0	590127	692	0	correct_rejection	NA	0
43	Single	97	421	745	5	0	0	590835	692	0	correct_rejection	NA	0
43	Single	98	422	746	5	0	0	591544	692	0	correct_rejection	NA	0
43	Single	99	423	747	6	0	0	592253	691	0	correct_rejection	NA	0
43	Single	100	424	748	0	1	1	592961	692	1	hit	473	0
43	Single	101	425	749	7	0	0	593670	691	0	correct_rejection	NA	0
43	Single	102	426	750	9	0	0	594378	692	0	correct_rejection	NA	0
43	Single	103	427	751	6	0	0	595087	691	0	correct_rejection	NA	0
43	Single	104	428	752	4	0	0	595795	692	0	correct_rejection	NA	0
43	Single	105	429	753	4	0	0	596504	692	0	correct_rejection	NA	0
43	Single	106	430	754	6	0	0	597212	692	0	correct_rejection	NA	0
43	Single	107	431	755	9	0	0	597921	692	0	correct_rejection	NA	0
43	Single	108	432	756	5	0	0	598630	691	0	correct_rejection	NA	0
43	Single	109	433	757	4	0	0	599338	692	0	correct_rejection	NA	0
43	Single	110	434	758	5	0	0	600047	691	0	correct_rejection	NA	0
43	Single	111	435	759	9	0	0	600755	692	0	correct_rejection	NA	0
43	Single	112	436	760	9	0	0	601464	692	0	correct_rejection	NA	0
43	Single	113	437	761	8	0	0	602172	692	0	correct_rejection	NA	0
43	Single	114	438	762	7	0	0	602881	692	0	correct_rejection	NA	0
43	Single	115	439	763	8	0	0	603590	691	0	correct_rejection	NA	0
43	Single	116	440	764	6	0	0	604298	692	0	correct_rejection	NA	0
43	Single	117	441	765	5	0	0	605007	691	0	correct_rejection	NA	0
43	Single	118	442	766	7	0	0	605715	692	0	correct_rejection	NA	0
43	Single	119	443	767	7	0	0	606424	692	0	correct_rejection	NA	0
43	Single	120	444	768	5	0	0	607132	692	0	correct_rejection	NA	0
43	Single	121	445	769	8	0	0	607841	692	0	correct_rejection	NA	0
43	Single	122	446	770	7	0	0	608550	691	0	correct_rejection	NA	0
43	Single	123	447	771	9	0	0	609258	692	0	correct_rejection	NA	0
43	Single	124	448	772	0	1	1	609967	691	0	miss	NA	0
43	Single	125	449	773	9	0	0	610675	692	1	false_alarm	68	0
43	Single	126	450	774	6	0	0	611384	691	0	correct_rejection	NA	0
43	Single	127	451	775	0	1	1	612092	692	1	hit	400	0
43	Single	128	452	776	5	0	0	612801	692	0	correct_rejection	NA	0
43	Single	129	453	777	5	0	0	613509	692	0	correct_rejection	NA	0
43	Single	130	454	778	9	0	0	614218	692	0	correct_rejection	NA	0
43	Single	131	455	779	4	0	0	614927	691	0	correct_rejection	NA	0
43	Single	132	456	780	9	0	0	615635	692	0	correct_rejection	NA	0
43	Single	133	457	781	5	0	0	616344	691	0	correct_rejection	NA	0
43	Single	134	458	782	7	0	0	617052	692	0	correct_rejection	NA	0
43	Single	135	459	783	4	0	0	617761	692	0	correct_rejection	NA	0
43	Single	136	460	784	4	0	0	618469	692	0	correct_rejection	NA	0
43	Single	137	461	785	5	0	0	619178	692	0	correct_rejection	NA	0
43	Single	138	462	786	8	0	0	619887	691	0	correct_rejection	NA	0
43	Single	139	463	787	8	0	0	620595	692	0	correct_rejection	NA	0
43	Single	140	464	788	0	1	1	621304	691	1	hit	464	0
43	Single	141	465	789	9	0	0	622012	692	0	correct_rejection	NA	0
43	Single	142	466	790	7	0	0	622721	692	0	correct_rejection	NA	0
43	Single	143	467	791	8	0	0	623429	692	0	correct_rejection	NA	0
43	Single	144	468	792	4	0	0	624138	692	0	correct_rejection	NA	0
43	Single	145	469	793	8	0	0	624847	691	0	correct_rejection	NA	0
43	Single	146	470	794	6	0	0	625555	692	0	correct_rejection	NA	0
43	Single	147	471	795	9	0	0	626264	691	0	correct_rejection	NA	0
43	Single	148	472	796	8	0	0	626972	692	0	correct_rejection	NA	0
43	Single	149	473	797	0	1	1	627681	692	1	hit	428	0
43	Single	150	474	798	5	0	0	628389	692	0	correct_rejection	NA	0
43	Single	151	475	799	4	0	0	629098	692	0	correct_rejection	NA	0
43	Single	152	476	800	0	1	1	629807	691	0	miss	NA	0
43	Single	153	477	801	7	0	0	630515	692	0	correct_rejection	NA	0
43	Single	154	478	802	5	0	0	631224	691	0	correct_rejection	NA	0
43	Single	155	479	803	0	1	1	631932	692	1	hit	441	0
43	Single	156	480	804	6	0	0	632641	691	0	correct_rejection	NA	0
43	Single	157	481	805	6	0	0	633349	692	0	correct_rejection	NA	0
43	Single	158	482	806	7	0	0	634058	692	0	correct_rejection	NA	0
43	Single	159	483	807	7	0	0	634766	692	0	correct_rejection	NA	0
43	Single	160	484	808	6	0	0	635475	692	0	correct_rejection	NA	0
43	Single	161	485	809	4	0	0	636184	691	0	correct_rejection	NA	0
43	Single	162	486	810	6	0	0	636892	692	0	correct_rejection	NA	0
trigger nr 629 at 639159
trigger nr 634 at 714955
43	Correct	1	649	811	4	0	0	722937	692	0	correct_rejection	NA	7949
43	Correct	2	650	812	5	0	0	723646	691	0	correct_rejection	NA	0
43	Correct	3	651	813	6	0	0	724354	692	0	correct_rejection	NA	0
43	Correct	4	652	814	4	0	0	725063	692	0	correct_rejection	NA	0
43	Correct	5	653	815	5	0	0	725771	692	0	correct_rejection	NA	0
43	Correct	6	654	816	6	0	0	726480	692	0	correct_rejection	NA	0
43	Correct	7	655	817	4	0	0	727189	691	0	correct_rejection	NA	0
43	Correct	8	656	818	5	0	0	727897	692	0	correct_rejection	NA	0
43	Correct	9	657	819	6	0	0	728606	691	0	correct_rejection	NA	0
43	Correct	10	658	820	6	0	0	729314	692	0	correct_rejection	NA	0
43	Correct	11	659	821	5	0	0	730023	691	0	correct_rejection	NA	0
43	Correct	12	660	822	4	0	0	730731	692	0	correct_rejection	NA	0
43	Correct	13	661	823	6	0	0	731440	692	0	correct_rejection	NA	0
43	Correct	14	662	824	5	0	0	732148	692	0	correct_rejection	NA	0
43	Correct	15	663	825	4	0	0	732857	692	0	correct_rejection	NA	0
43	Correct	16	664	826	6	0	0	733566	691	0	correct_rejection	NA	0
43	Correct	17	665	827	5	0	0	734274	692	0	correct_rejection	NA	0
43	Correct	18	666	828	4	0	0	734983	691	0	correct_rejection	NA	0
43	Correct	19	667	829	9	0	0	735691	692	0	correct_rejection	NA	0
43	Correct	20	668	830	8	0	0	736400	692	0	correct_rejection	NA	0
43	Correct	21	669	831	7	0	0	737108	692	0	correct_rejection	NA	0
43	Correct	22	670	832	0	1	2	737817	692	1	hit	316	0
43	Correct	23	671	833	9	0	0	738526	691	0	correct_rejection	NA	0
43	Correct	24	672	834	8	0	0	739234	692	0	correct_rejection	NA	0
43	Correct	25	673	835	7	0	0	739943	691	0	correct_rejection	NA	0
43	Correct	26	674	836	9	0	0	740651	692	0	correct_rejection	NA	0
43	Correct	27	675	837	8	0	0	741360	692	0	correct_rejection	NA	0
43	Correct	28	676	838	7	0	0	742068	692	0	correct_rejection	NA	0
43	Correct	29	677	839	7	0	0	742777	692	0	correct_rejection	NA	0
43	Correct	30	678	840	8	0	0	743486	691	0	correct_rejection	NA	0
43	Correct	31	679	841	9	0	0	744194	692	0	correct_rejection	NA	0
43	Correct	32	680	842	7	0	0	744903	691	0	correct_rejection	NA	0
43	Correct	33	681	843	8	0	0	745611	692	0	correct_rejection	NA	0
43	Correct	34	682	844	9	0	0	746320	692	0	correct_rejection	NA	0
43	Correct	35	683	845	0	1	2	747028	692	1	hit	436	0
43	Correct	36	684	846	7	0	0	747737	692	0	correct_rejection	NA	0
43	Correct	37	685	847	8	0	0	748446	691	0	correct_rejection	NA	0
43	Correct	38	686	848	9	0	0	749154	692	0	correct_rejection	NA	0
43	Correct	39	687	849	0	1	4	749863	691	1	hit	383	0
43	Correct	40	688	850	4	0	0	750571	692	0	correct_rejection	NA	0
43	Correct	41	689	851	5	0	0	751280	691	0	correct_rejection	NA	0
43	Correct	42	690	852	6	0	0	751988	692	0	correct_rejection	NA	0
43	Correct	43	691	853	4	0	0	752697	692	0	correct_rejection	NA	0
43	Correct	44	692	854	0	1	1	753405	692	1	hit	350	0
43	Correct	45	693	855	5	0	0	754114	692	0	correct_rejection	NA	0
43	Correct	46	694	856	6	0	0	754823	691	0	correct_rejection	NA	0
43	Correct	47	695	857	4	0	0	755531	692	0	correct_rejection	NA	0
43	Correct	48	696	858	5	0	0	756240	691	0	correct_rejection	NA	0
43	Correct	49	697	859	6	0	0	756948	692	0	correct_rejection	NA	0
43	Correct	50	698	860	6	0	0	757657	692	0	correct_rejection	NA	0
43	Correct	51	699	861	5	0	0	758365	692	0	correct_rejection	NA	0
43	Correct	52	700	862	4	0	0	759074	692	0	correct_rejection	NA	0
43	Correct	53	701	863	6	0	0	759783	691	0	correct_rejection	NA	0
43	Correct	54	702	864	5	0	0	760491	692	0	correct_rejection	NA	0
43	Correct	55	703	865	4	0	0	761200	691	0	correct_rejection	NA	0
43	Correct	56	704	866	6	0	0	761908	692	0	correct_rejection	NA	0
43	Correct	57	705	867	5	0	0	762617	692	0	correct_rejection	NA	0
43	Correct	58	706	868	0	1	1	763325	692	1	hit	477	0
43	Correct	59	707	869	4	0	0	764034	692	0	correct_rejection	NA	0
43	Correct	60	708	870	9	0	0	764743	691	0	correct_rejection	NA	0
43	Correct	61	709	871	8	0	0	765451	692	0	correct_rejection	NA	0
43	Correct	62	710	872	7	0	0	766160	691	0	correct_rejection	NA	0
43	Correct	63	711	873	9	0	0	766868	692	0	correct_rejection	NA	0
43	Correct	64	712	874	0	1	1	767577	692	1	hit	450	0
43	Correct	65	713	875	8	0	0	768285	692	0	correct_rejection	NA	0
43	Correct	66	714	876	7	0	0	768994	692	0	correct_rejection	NA	0
43	Correct	67	715	877	9	0	0	769703	691	0	correct_rejection	NA	0
43	Correct	68	716	878	8	0	0	770411	692	0	correct_rejection	NA	0
43	Correct	69	717	879	7	0	0	771120	691	0	correct_rejection	NA	0
43	Correct	70	718	880	7	0	0	771828	692	0	correct_rejection	NA	0
43	Correct	71	719	881	8	0	0	772537	691	0	correct_rejection	NA	0
43	Correct	72	720	882	9	0	0	773245	692	0	correct_rejection	NA	0
43	Correct	73	721	883	7	0	0	773954	692	0	correct_rejection	NA	0
43	Correct	74	722	884	8	0	0	774662	692	0	correct_rejection	NA	0
43	Correct	75	723	885	9	0	0	775371	692	0	correct_rejection	NA	0
43	Correct	76	724	886	7	0	0	776080	691	0	correct_rejection	NA	0
43	Correct	77	725	887	0	1	1	776788	692	1	hit	600	0
43	Correct	78	726	888	8	0	0	777497	691	0	correct_rejection	NA	0
43	Correct	79	727	889	9	0	0	778205	692	0	correct_rejection	NA	0
43	Correct	80	728	890	4	0	0	778914	692	0	correct_rejection	NA	0
43	Correct	81	729	891	5	0	0	779622	692	0	correct_rejection	NA	0
43	Correct	82	730	892	6	0	0	780331	692	0	correct_rejection	NA	0
43	Correct	83	731	893	4	0	0	781040	691	0	correct_rejection	NA	0
43	Correct	84	732	894	5	0	0	781748	692	0	correct_rejection	NA	0
43	Correct	85	733	895	6	0	0	782457	691	0	correct_rejection	NA	0
43	Correct	86	734	896	4	0	0	783165	692	0	correct_rejection	NA	0
43	Correct	87	735	897	5	0	0	783874	692	0	correct_rejection	NA	0
43	Correct	88	736	898	6	0	0	784582	692	0	correct_rejection	NA	0
43	Correct	89	737	899	6	0	0	785291	692	0	correct_rejection	NA	0
43	Correct	90	738	900	5	0	0	786000	691	0	correct_rejection	NA	0
43	Correct	91	739	901	4	0	0	786708	692	0	correct_rejection	NA	0
43	Correct	92	740	902	6	0	0	787417	691	0	correct_rejection	NA	0
43	Correct	93	741	903	0	1	1	788125	692	1	hit	536	0
43	Correct	94	742	904	5	0	0	788834	691	0	correct_rejection	NA	0
43	Correct	95	743	905	4	0	0	789542	692	0	correct_rejection	NA	0
43	Correct	96	744	906	6	0	0	790251	692	0	correct_rejection	NA	0
43	Correct	97	745	907	5	0	0	790959	692	0	correct_rejection	NA	0
43	Correct	98	746	908	4	0	0	791668	692	0	correct_rejection	NA	0
43	Correct	99	747	909	0	1	3	792377	691	1	hit	613	0
43	Correct	100	748	910	9	0	0	793085	692	0	correct_rejection	NA	0
43	Correct	101	749	911	8	0	0	793794	691	0	correct_rejection	NA	0
43	Correct	102	750	912	7	0	0	794502	692	0	correct_rejection	NA	0
43	Correct	103	751	913	9	0	0	795211	692	0	correct_rejection	NA	0
43	Correct	104	752	914	8	0	0	795919	692	0	correct_rejection	NA	0
43	Correct	105	753	915	7	0	0	796628	692	0	correct_rejection	NA	0
43	Correct	106	754	916	9	0	0	797337	691	0	correct_rejection	NA	0
43	Correct	107	755	917	8	0	0	798045	692	0	correct_rejection	NA	0
43	Correct	108	756	918	7	0	0	798754	691	0	correct_rejection	NA	0
43	Correct	109	757	919	0	1	3	799462	692	1	hit	390	0
43	Correct	110	758	920	7	0	0	800171	692	0	correct_rejection	NA	0
43	Correct	111	759	921	8	0	0	800879	692	0	correct_rejection	NA	0
43	Correct	112	760	922	9	0	0	801588	692	0	correct_rejection	NA	0
43	Correct	113	761	923	0	1	2	802297	691	1	hit	433	0
43	Correct	114	762	924	7	0	0	803005	692	0	correct_rejection	NA	0
43	Correct	115	763	925	8	0	0	803714	691	0	correct_rejection	NA	0
43	Correct	116	764	926	9	0	0	804422	692	0	correct_rejection	NA	0
43	Correct	117	765	927	7	0	0	805131	692	0	correct_rejection	NA	0
43	Correct	118	766	928	8	0	0	805839	692	0	correct_rejection	NA	0
43	Correct	119	767	929	9	0	0	806548	692	0	correct_rejection	NA	0
43	Correct	120	768	930	4	0	0	807257	691	0	correct_rejection	NA	0
43	Correct	121	769	931	0	1	1	807965	692	1	hit	415	0
43	Correct	122	770	932	5	0	0	808674	691	0	correct_rejection	NA	0
43	Correct	123	771	933	6	0	0	809382	692	0	correct_rejection	NA	0
43	Correct	124	772	934	4	0	0	810091	691	0	correct_rejection	NA	0
43	Correct	125	773	935	5	0	0	810799	692	0	correct_rejection	NA	0
43	Correct	126	774	936	0	1	1	811508	692	1	hit	441	0
43	Correct	127	775	937	6	0	0	812216	692	0	correct_rejection	NA	0
43	Correct	128	776	938	4	0	0	812925	692	0	correct_rejection	NA	0
43	Correct	129	777	939	5	0	0	813634	691	0	correct_rejection	NA	0
43	Correct	130	778	940	6	0	0	814342	692	0	correct_rejection	NA	0
43	Correct	131	779	941	6	0	0	815051	691	0	correct_rejection	NA	0
43	Correct	132	780	942	5	0	0	815759	692	0	correct_rejection	NA	0
43	Correct	133	781	943	0	1	1	816468	692	1	hit	471	0
43	Correct	134	782	944	4	0	0	817176	692	0	correct_rejection	NA	0
43	Correct	135	783	945	6	0	0	817885	692	0	correct_rejection	NA	0
43	Correct	136	784	946	0	1	1	818594	691	1	hit	492	0
43	Correct	137	785	947	5	0	0	819302	692	0	correct_rejection	NA	0
43	Correct	138	786	948	4	0	0	820011	691	0	correct_rejection	NA	0
43	Correct	139	787	949	6	0	0	820719	692	0	correct_rejection	NA	0
43	Correct	140	788	950	5	0	0	821428	692	0	correct_rejection	NA	0
43	Correct	141	789	951	4	0	0	822136	692	0	correct_rejection	NA	0
43	Correct	142	790	952	9	0	0	822845	692	0	correct_rejection	NA	0
43	Correct	143	791	953	8	0	0	823554	691	0	correct_rejection	NA	0
43	Correct	144	792	954	0	1	1	824262	692	1	hit	593	0
43	Correct	145	793	955	7	0	0	824971	691	0	correct_rejection	NA	0
43	Correct	146	794	956	9	0	0	825679	692	0	correct_rejection	NA	0
43	Correct	147	795	957	8	0	0	826388	692	0	correct_rejection	NA	0
43	Correct	148	796	958	7	0	0	827096	692	0	correct_rejection	NA	0
43	Correct	149	797	959	9	0	0	827805	692	0	correct_rejection	NA	0
43	Correct	150	798	960	8	0	0	828514	691	0	correct_rejection	NA	0
43	Correct	151	799	961	7	0	0	829222	692	0	correct_rejection	NA	0
43	Correct	152	800	962	7	0	0	829931	691	0	correct_rejection	NA	0
43	Correct	153	801	963	8	0	0	830639	692	0	correct_rejection	NA	0
43	Correct	154	802	964	9	0	0	831348	691	0	correct_rejection	NA	0
43	Correct	155	803	965	7	0	0	832056	692	0	correct_rejection	NA	0
43	Correct	156	804	966	8	0	0	832765	692	0	correct_rejection	NA	0
43	Correct	157	805	967	0	1	1	833473	692	1	hit	504	0
43	Correct	158	806	968	9	0	0	834182	692	0	correct_rejection	NA	0
43	Correct	159	807	969	7	0	0	834891	691	0	correct_rejection	NA	0
43	Correct	160	808	970	8	0	0	835599	692	0	correct_rejection	NA	0
43	Correct	161	809	971	0	1	1	836308	691	1	hit	685	0
43	Correct	162	810	972	9	0	0	837016	692	0	correct_rejection	NA	0
43	Single	1	649	973	8	0	0	846319	692	0	correct_rejection	NA	7328
43	Single	2	650	974	9	0	0	847028	692	0	correct_rejection	NA	0
43	Single	3	651	975	8	0	0	847736	692	0	correct_rejection	NA	0
43	Single	4	652	976	5	0	0	848445	692	0	correct_rejection	NA	0
43	Single	5	653	977	4	0	0	849154	691	0	correct_rejection	NA	0
43	Single	6	654	978	4	0	0	849862	692	0	correct_rejection	NA	0
43	Single	7	655	979	9	0	0	850571	691	0	correct_rejection	NA	0
43	Single	8	656	980	9	0	0	851279	692	0	correct_rejection	NA	0
43	Single	9	657	981	4	0	0	851988	692	0	correct_rejection	NA	0
43	Single	10	658	982	7	0	0	852696	692	0	correct_rejection	NA	0
43	Single	11	659	983	4	0	0	853405	692	0	correct_rejection	NA	0
43	Single	12	660	984	5	0	0	854114	691	0	correct_rejection	NA	0
43	Single	13	661	985	7	0	0	854822	692	0	correct_rejection	NA	0
43	Single	14	662	986	6	0	0	855531	691	0	correct_rejection	NA	0
43	Single	15	663	987	8	0	0	856239	692	0	correct_rejection	NA	0
43	Single	16	664	988	7	0	0	856948	692	0	correct_rejection	NA	0
43	Single	17	665	989	5	0	0	857656	692	0	correct_rejection	NA	0
43	Single	18	666	990	5	0	0	858365	692	0	correct_rejection	NA	0
43	Single	19	667	991	9	0	0	859074	691	0	correct_rejection	NA	0
43	Single	20	668	992	5	0	0	859782	692	0	correct_rejection	NA	0
43	Single	21	669	993	0	1	1	860491	691	1	hit	433	0
43	Single	22	670	994	8	0	0	861199	692	0	correct_rejection	NA	0
43	Single	23	671	995	6	0	0	861908	692	0	correct_rejection	NA	0
43	Single	24	672	996	5	0	0	862616	692	0	correct_rejection	NA	0
43	Single	25	673	997	6	0	0	863325	692	0	correct_rejection	NA	0
43	Single	26	674	998	6	0	0	864034	691	0	correct_rejection	NA	0
43	Single	27	675	999	7	0	0	864742	692	0	correct_rejection	NA	0
43	Single	28	676	1000	9	0	0	865451	691	0	correct_rejection	NA	0
43	Single	29	677	1001	6	0	0	866159	692	0	correct_rejection	NA	0
43	Single	30	678	1002	9	0	0	866868	691	0	correct_rejection	NA	0
43	Single	31	679	1003	7	0	0	867576	692	0	correct_rejection	NA	0
43	Single	32	680	1004	7	0	0	868285	692	0	correct_rejection	NA	0
43	Single	33	681	1005	0	1	1	868993	692	1	hit	423	0
43	Single	34	682	1006	8	0	0	869702	692	0	correct_rejection	NA	0
43	Single	35	683	1007	8	0	0	870411	691	0	correct_rejection	NA	0
43	Single	36	684	1008	4	0	0	871119	692	0	correct_rejection	NA	0
43	Single	37	685	1009	6	0	0	871828	691	0	correct_rejection	NA	0
43	Single	38	686	1010	4	0	0	872536	692	0	correct_rejection	NA	0
43	Single	39	687	1011	7	0	0	873245	692	0	correct_rejection	NA	0
43	Single	40	688	1012	9	0	0	873953	692	0	correct_rejection	NA	0
43	Single	41	689	1013	5	0	0	874662	692	0	correct_rejection	NA	0
43	Single	42	690	1014	9	0	0	875371	691	0	correct_rejection	NA	0
43	Single	43	691	1015	4	0	0	876079	692	0	correct_rejection	NA	0
43	Single	44	692	1016	8	0	0	876788	691	0	correct_rejection	NA	0
43	Single	45	693	1017	4	0	0	877496	692	0	correct_rejection	NA	0
43	Single	46	694	1018	9	0	0	878205	692	0	correct_rejection	NA	0
43	Single	47	695	1019	7	0	0	878913	692	0	correct_rejection	NA	0
43	Single	48	696	1020	8	0	0	879622	692	0	correct_rejection	NA	0
43	Single	49	697	1021	9	0	0	880331	691	0	correct_rejection	NA	0
43	Single	50	698	1022	6	0	0	881039	692	0	correct_rejection	NA	0
43	Single	51	699	1023	8	0	0	881748	691	0	correct_rejection	NA	0
43	Single	52	700	1024	8	0	0	882456	692	0	correct_rejection	NA	0
43	Single	53	701	1025	5	0	0	883165	691	0	correct_rejection	NA	0
43	Single	54	702	1026	8	0	0	883873	692	0	correct_rejection	NA	0
43	Single	55	703	1027	7	0	0	884582	692	0	correct_rejection	NA	0
43	Single	56	704	1028	7	0	0	885290	692	0	correct_rejection	NA	0
43	Single	57	705	1029	4	0	0	885999	692	0	correct_rejection	NA	0
43	Single	58	706	1030	0	1	1	886708	691	0	miss	NA	0
43	Single	59	707	1031	4	0	0	887416	692	1	false_alarm	129	0
43	Single	60	708	1032	6	0	0	888125	691	0	correct_rejection	NA	0
43	Single	61	709	1033	5	0	0	888833	692	0	correct_rejection	NA	0
43	Single	62	710	1034	4	0	0	889542	692	0	correct_rejection	NA	0
43	Single	63	711	1035	7	0	0	890250	692	0	correct_rejection	NA	0
43	Single	64	712	1036	6	0	0	890959	692	0	correct_rejection	NA	0
43	Single	65	713	1037	6	0	0	891668	691	0	correct_rejection	NA	0
43	Single	66	714	1038	9	0	0	892376	692	0	correct_rejection	NA	0
43	Single	67	715	1039	0	1	1	893085	691	1	hit	428	0
43	Single	68	716	1040	9	0	0	893793	692	0	correct_rejection	NA	0
43	Single	69	717	1041	8	0	0	894502	692	0	correct_rejection	NA	0
43	Single	70	718	1042	0	1	1	895210	692	1	hit	358	0
43	Single	71	719	1043	6	0	0	895919	692	0	correct_rejection	NA	0
43	Single	72	720	1044	4	0	0	896628	691	0	correct_rejection	NA	0
43	Single	73	721	1045	5	0	0	897336	692	0	correct_rejection	NA	0
43	Single	74	722	1046	5	0	0	898045	691	0	correct_rejection	NA	0
43	Single	75	723	1047	0	1	1	898753	692	1	hit	327	0
43	Single	76	724	1048	6	0	0	899462	692	0	correct_rejection	NA	0
43	Single	77	725	1049	7	0	0	900170	692	0	correct_rejection	NA	0
43	Single	78	726	1050	0	1	1	900879	692	1	hit	420	0
43	Single	79	727	1051	5	0	0	901588	691	0	correct_rejection	NA	0
43	Single	80	728	1052	5	0	0	902296	692	0	correct_rejection	NA	0
43	Single	81	729	1053	4	0	0	903005	691	0	correct_rejection	NA	0
43	Single	82	730	1054	0	1	1	903713	692	1	hit	332	0
43	Single	83	731	1055	9	0	0	904422	691	0	correct_rejection	NA	0
43	Single	84	732	1056	5	0	0	905130	692	0	correct_rejection	NA	0
43	Single	85	733	1057	6	0	0	905839	692	0	correct_rejection	NA	0
43	Single	86	734	1058	4	0	0	906547	692	0	correct_rejection	NA	0
43	Single	87	735	1059	0	1	1	907256	692	1	hit	358	0
43	Single	88	736	1060	7	0	0	907965	691	0	correct_rejection	NA	0
43	Single	89	737	1061	9	0	0	908673	692	0	correct_rejection	NA	0
43	Single	90	738	1062	8	0	0	909382	691	0	correct_rejection	NA	0
43	Single	91	739	1063	8	0	0	910090	692	0	correct_rejection	NA	0
43	Single	92	740	1064	7	0	0	910799	692	0	correct_rejection	NA	0
43	Single	93	741	1065	8	0	0	911507	692	0	correct_rejection	NA	0
43	Single	94	742	1066	0	1	1	912216	692	1	hit	676	0
43	Single	95	743	1067	4	0	0	912925	691	0	correct_rejection	NA	0
43	Single	96	744	1068	8	0	0	913633	692	0	correct_rejection	NA	0
43	Single	97	745	1069	5	0	0	914342	691	0	correct_rejection	NA	0
43	Single	98	746	1070	5	0	0	915050	692	0	correct_rejection	NA	0
43	Single	99	747	1071	8	0	0	915759	692	0	correct_rejection	NA	0
43	Single	100	748	1072	9	0	0	916467	692	0	correct_rejection	NA	0
43	Single	101	749	1073	4	0	0	917176	692	0	correct_rejection	NA	0
43	Single	102	750	1074	4	0	0	917885	691	0	correct_rejection	NA	0
43	Single	103	751	1075	0	1	1	918593	692	1	hit	444	0
43	Single	104	752	1076	5	0	0	919302	691	0	correct_rejection	NA	0
43	Single	105	753	1077	9	0	0	920010	692	0	correct_rejection	NA	0
43	Single	106	754	1078	9	0	0	920719	692	0	correct_rejection	NA	0
43	Single	107	755	1079	7	0	0	921427	692	0	correct_rejection	NA	0
43	Single	108	756	1080	6	0	0	922136	692	0	correct_rejection	NA	0
43	Single	109	757	1081	7	0	0	922845	691	0	correct_rejection	NA	0
43	Single	110	758	1082	7	0	0	923553	692	0	correct_rejection	NA	0
43	Single	111	759	1083	5	0	0	924262	691	0	correct_rejection	NA	0
43	Single	112	760	1084	0	1	1	924970	692	0	miss	NA	0
43	Single	113	761	1085	7	0	0	925679	691	1	false_alarm	93	0
43	Single	114	762	1086	4	0	0	926387	692	0	correct_rejection	NA	0
43	Single	115	763	1087	6	0	0	927096	692	0	correct_rejection	NA	0
43	Single	116	764	1088	9	0	0	927804	692	0	correct_rejection	NA	0
43	Single	117	765	1089	6	0	0	928513	692	0	correct_rejection	NA	0
43	Single	118	766	1090	6	0	0	929222	691	0	correct_rejection	NA	0
43	Single	119	767	1091	8	0	0	929930	692	0	correct_rejection	NA	0
43	Single	120	768	1092	6	0	0	930639	691	0	correct_rejection	NA	0
43	Single	121	769	1093	0	1	1	931347	692	1	hit	409	0
43	Single	122	770	1094	7	0	0	932056	692	0	correct_rejection	NA	0
43	Single	123	771	1095	7	0	0	932764	692	0	correct_rejection	NA	0
43	Single	124	772	1096	8	0	0	933473	692	0	correct_rejection	NA	0
43	Single	125	773	1097	7	0	0	934182	691	0	correct_rejection	NA	0
43	Single	126	774	1098	6	0	0	934890	692	0	correct_rejection	NA	0
43	Single	127	775	1099	9	0	0	935599	691	0	correct_rejection	NA	0
43	Single	128	776	1100	7	0	0	936307	692	0	correct_rejection	NA	0
43	Single	129	777	1101	0	1	1	937016	692	1	hit	504	0
43	Single	130	778	1102	4	0	0	937724	692	0	correct_rejection	NA	0
43	Single	131	779	1103	9	0	0	938433	692	0	correct_rejection	NA	0
43	Single	132	780	1104	6	0	0	939142	691	0	correct_rejection	NA	0
43	Single	133	781	1105	5	0	0	939850	692	0	correct_rejection	NA	0
43	Single	134	782	1106	6	0	0	940559	691	0	correct_rejection	NA	0
43	Single	135	783	1107	0	1	1	941267	692	1	hit	415	0
43	Single	136	784	1108	6	0	0	941976	691	0	correct_rejection	NA	0
43	Single	137	785	1109	7	0	0	942684	692	0	correct_rejection	NA	0
43	Single	138	786	1110	9	0	0	943393	692	0	correct_rejection	NA	0
43	Single	139	787	1111	9	0	0	944102	691	0	correct_rejection	NA	0
43	Single	140	788	1112	4	0	0	944810	692	0	correct_rejection	NA	0
43	Single	141	789	1113	5	0	0	945519	691	0	correct_rejection	NA	0
43	Single	142	790	1114	8	0	0	946227	692	0	correct_rejection	NA	0
43	Single	143	791	1115	6	0	0	946936	691	0	correct_rejection	NA	0
43	Single	144	792	1116	8	0	0	947644	692	0	correct_rejection	NA	0
43	Single	145	793	1117	9	0	0	948353	692	0	correct_rejection	NA	0
43	Single	146	794	1118	5	0	0	949061	692	0	correct_rejection	NA	0
43	Single	147	795	1119	7	0	0	949770	692	0	correct_rejection	NA	0
43	Single	148	796	1120	5	0	0	950479	691	0	correct_rejection	NA	0
43	Single	149	797	1121	5	0	0	951187	692	0	correct_rejection	NA	0
43	Single	150	798	1122	9	0	0	951896	691	0	correct_rejection	NA	0
43	Single	151	799	1123	8	0	0	952604	692	0	correct_rejection	NA	0
43	Single	152	800	1124	0	1	1	953313	692	1	hit	451	0
43	Single	153	801	1125	5	0	0	954021	692	0	correct_rejection	NA	0
43	Single	154	802	1126	4	0	0	954730	692	0	correct_rejection	NA	0
43	Single	155	803	1127	6	0	0	955439	691	0	correct_rejection	NA	0
43	Single	156	804	1128	0	1	1	956147	692	1	hit	364	0
43	Single	157	805	1129	4	0	0	956856	691	0	correct_rejection	NA	0
43	Single	158	806	1130	4	0	0	957564	692	0	correct_rejection	NA	0
43	Single	159	807	1131	8	0	0	958273	692	0	correct_rejection	NA	0
43	Single	160	808	1132	0	1	1	958981	692	1	hit	512	0
43	Single	161	809	1133	8	0	0	959690	692	0	correct_rejection	NA	0
43	Single	162	810	1134	4	0	0	960399	691	0	correct_rejection	NA	0
43	Triplet	1	163	1135	6	0	0	970885	692	0	correct_rejection	NA	7898
43	Triplet	2	164	1136	5	0	0	971594	692	0	correct_rejection	NA	0
43	Triplet	3	165	1137	4	0	0	972302	692	0	correct_rejection	NA	0
43	Triplet	4	166	1138	0	1	2	973011	692	1	hit	432	0
43	Triplet	5	167	1139	6	0	0	973720	691	0	correct_rejection	NA	0
43	Triplet	6	168	1140	5	0	0	974428	692	0	correct_rejection	NA	0
43	Triplet	7	169	1141	0	1	1	975137	691	1	hit	404	0
43	Triplet	8	170	1142	4	0	0	975845	692	0	correct_rejection	NA	0
43	Triplet	9	171	1143	4	0	0	976554	692	0	correct_rejection	NA	0
43	Triplet	10	172	1144	5	0	0	977262	692	0	correct_rejection	NA	0
43	Triplet	11	173	1145	0	1	1	977971	692	1	hit	365	0
43	Triplet	12	174	1146	6	0	0	978680	691	0	correct_rejection	NA	0
43	Triplet	13	175	1147	9	0	0	979388	692	0	correct_rejection	NA	0
43	Triplet	14	176	1148	8	0	0	980097	691	0	correct_rejection	NA	0
43	Triplet	15	177	1149	7	0	0	980805	692	0	correct_rejection	NA	0
43	Triplet	16	178	1150	6	0	0	981514	691	0	correct_rejection	NA	0
43	Triplet	17	179	1151	0	1	1	982222	692	1	hit	481	0
43	Triplet	18	180	1152	5	0	0	982931	692	0	correct_rejection	NA	0
43	Triplet	19	181	1153	4	0	0	983639	692	0	correct_rejection	NA	0
43	Triplet	20	182	1154	9	0	0	984348	692	0	correct_rejection	NA	0
43	Triplet	21	183	1155	8	0	0	985057	691	0	correct_rejection	NA	0
43	Triplet	22	184	1156	7	0	0	985765	692	0	correct_rejection	NA	0
43	Triplet	23	185	1157	0	1	2	986474	691	1	hit	503	0
43	Triplet	24	186	1158	7	0	0	987182	692	0	correct_rejection	NA	0
43	Triplet	25	187	1159	8	0	0	987891	692	0	correct_rejection	NA	0
43	Triplet	26	188	1160	9	0	0	988599	692	0	correct_rejection	NA	0
43	Triplet	27	189	1161	6	0	0	989308	692	0	correct_rejection	NA	0
43	Triplet	28	190	1162	5	0	0	990017	691	0	correct_rejection	NA	0
43	Triplet	29	191	1163	0	1	1	990725	692	1	hit	593	0
43	Triplet	30	192	1164	4	0	0	991434	691	0	correct_rejection	NA	0
43	Triplet	31	193	1165	7	0	0	992142	692	0	correct_rejection	NA	0
43	Triplet	32	194	1166	8	0	0	992851	692	0	correct_rejection	NA	0
43	Triplet	33	195	1167	9	0	0	993559	692	0	correct_rejection	NA	0
43	Triplet	34	196	1168	7	0	0	994268	692	0	correct_rejection	NA	0
43	Triplet	35	197	1169	8	0	0	994977	691	0	correct_rejection	NA	0
43	Triplet	36	198	1170	9	0	0	995685	692	0	correct_rejection	NA	0
43	Triplet	37	199	1171	9	0	0	996394	691	0	correct_rejection	NA	0
43	Triplet	38	200	1172	8	0	0	997102	692	0	correct_rejection	NA	0
43	Triplet	39	201	1173	7	0	0	997811	692	0	correct_rejection	NA	0
43	Triplet	40	202	1174	9	0	0	998519	692	0	correct_rejection	NA	0
43	Triplet	41	203	1175	8	0	0	999228	692	0	correct_rejection	NA	0
43	Triplet	42	204	1176	0	1	1	999937	691	1	hit	466	0
43	Triplet	43	205	1177	7	0	0	1000645	692	0	correct_rejection	NA	0
43	Triplet	44	206	1178	4	0	0	1001354	691	0	correct_rejection	NA	0
43	Triplet	45	207	1179	5	0	0	1002062	692	0	correct_rejection	NA	0
43	Triplet	46	208	1180	6	0	0	1002771	691	0	correct_rejection	NA	0
43	Triplet	47	209	1181	4	0	0	1003479	692	0	correct_rejection	NA	0
43	Triplet	48	210	1182	5	0	0	1004188	692	0	correct_rejection	NA	0
43	Triplet	49	211	1183	6	0	0	1004896	692	0	correct_rejection	NA	0
43	Triplet	50	212	1184	7	0	0	1005605	692	0	correct_rejection	NA	0
43	Triplet	51	213	1185	8	0	0	1006314	691	0	correct_rejection	NA	0
43	Triplet	52	214	1186	9	0	0	1007022	692	0	correct_rejection	NA	0
43	Triplet	53	215	1187	4	0	0	1007731	691	0	correct_rejection	NA	0
43	Triplet	54	216	1188	5	0	0	1008439	692	0	correct_rejection	NA	0
43	Triplet	55	217	1189	6	0	0	1009148	692	0	correct_rejection	NA	0
43	Triplet	56	218	1190	7	0	0	1009856	692	0	correct_rejection	NA	0
43	Triplet	57	219	1191	0	1	1	1010565	692	1	hit	427	0
43	Triplet	58	220	1192	8	0	0	1011274	691	0	correct_rejection	NA	0
43	Triplet	59	221	1193	9	0	0	1011982	692	0	correct_rejection	NA	0
43	Triplet	60	222	1194	0	1	2	1012691	691	1	hit	494	0
43	Triplet	61	223	1195	6	0	0	1013399	692	0	correct_rejection	NA	0
43	Triplet	62	224	1196	5	0	0	1014108	692	0	correct_rejection	NA	0
43	Triplet	63	225	1197	4	0	0	1014816	692	0	correct_rejection	NA	0
43	Triplet	64	226	1198	6	0	0	1015525	692	0	correct_rejection	NA	0
43	Triplet	65	227	1199	5	0	0	1016234	691	0	correct_rejection	NA	0
43	Triplet	66	228	1200	4	0	0	1016942	692	0	correct_rejection	NA	0
43	Triplet	67	229	1201	9	0	0	1017651	691	0	correct_rejection	NA	0
43	Triplet	68	230	1202	8	0	0	1018359	692	0	correct_rejection	NA	0
43	Triplet	69	231	1203	7	0	0	1019068	692	0	correct_rejection	NA	0
43	Triplet	70	232	1204	4	0	0	1019776	692	0	correct_rejection	NA	0
43	Triplet	71	233	1205	0	1	1	1020485	692	1	hit	501	0
43	Triplet	72	234	1206	5	0	0	1021194	691	0	correct_rejection	NA	0
43	Triplet	73	235	1207	6	0	0	1021902	692	0	correct_rejection	NA	0
43	Triplet	74	236	1208	7	0	0	1022611	691	0	correct_rejection	NA	0
43	Triplet	75	237	1209	8	0	0	1023319	692	0	correct_rejection	NA	0
43	Triplet	76	238	1210	9	0	0	1024028	691	0	correct_rejection	NA	0
43	Triplet	77	239	1211	7	0	0	1024736	692	0	correct_rejection	NA	0
43	Triplet	78	240	1212	8	0	0	1025445	692	0	correct_rejection	NA	0
43	Triplet	79	241	1213	9	0	0	1026153	692	0	correct_rejection	NA	0
43	Triplet	80	242	1214	4	0	0	1026862	692	0	correct_rejection	NA	0
43	Triplet	81	243	1215	5	0	0	1027571	691	0	correct_rejection	NA	0
43	Triplet	82	244	1216	6	0	0	1028279	692	0	correct_rejection	NA	0
43	Triplet	83	245	1217	6	0	0	1028988	691	0	correct_rejection	NA	0
43	Triplet	84	246	1218	5	0	0	1029696	692	0	correct_rejection	NA	0
43	Triplet	85	247	1219	4	0	0	1030405	692	0	correct_rejection	NA	0
43	Triplet	86	248	1220	7	0	0	1031113	692	0	correct_rejection	NA	0
43	Triplet	87	249	1221	8	0	0	1031822	692	0	correct_rejection	NA	0
43	Triplet	88	250	1222	9	0	0	1032531	691	0	correct_rejection	NA	0
43	Triplet	89	251	1223	9	0	0	1033239	692	0	correct_rejection	NA	0
43	Triplet	90	252	1224	8	0	0	1033948	691	0	correct_rejection	NA	0
43	Triplet	91	253	1225	7	0	0	1034656	692	0	correct_rejection	NA	0
43	Triplet	92	254	1226	6	0	0	1035365	692	0	correct_rejection	NA	0
43	Triplet	93	255	1227	5	0	0	1036073	692	0	correct_rejection	NA	0
43	Triplet	94	256	1228	4	0	0	1036782	692	0	correct_rejection	NA	0
43	Triplet	95	257	1229	4	0	0	1037491	691	0	correct_rejection	NA	0
43	Triplet	96	258	1230	5	0	0	1038199	692	0	correct_rejection	NA	0
43	Triplet	97	259	1231	6	0	0	1038908	691	0	correct_rejection	NA	0
43	Triplet	98	260	1232	4	0	0	1039616	692	0	correct_rejection	NA	0
43	Triplet	99	261	1233	5	0	0	1040325	691	0	correct_rejection	NA	0
43	Triplet	100	262	1234	6	0	0	1041033	692	0	correct_rejection	NA	0
43	Triplet	101	263	1235	9	0	0	1041742	692	0	correct_rejection	NA	0
43	Triplet	102	264	1236	8	0	0	1042450	692	0	correct_rejection	NA	0
43	Triplet	103	265	1237	7	0	0	1043159	692	0	correct_rejection	NA	0
43	Triplet	104	266	1238	0	1	2	1043868	691	1	hit	343	0
43	Triplet	105	267	1239	9	0	0	1044576	692	0	correct_rejection	NA	0
43	Triplet	106	268	1240	8	0	0	1045285	691	0	correct_rejection	NA	0
43	Triplet	107	269	1241	7	0	0	1045993	692	0	correct_rejection	NA	0
43	Triplet	108	270	1242	4	0	0	1046702	692	0	correct_rejection	NA	0
43	Triplet	109	271	1243	5	0	0	1047410	692	0	correct_rejection	NA	0
43	Triplet	110	272	1244	6	0	0	1048119	692	0	correct_rejection	NA	0
43	Triplet	111	273	1245	4	0	0	1048828	691	0	correct_rejection	NA	0
43	Triplet	112	274	1246	5	0	0	1049536	692	0	correct_rejection	NA	0
43	Triplet	113	275	1247	6	0	0	1050245	691	0	correct_rejection	NA	0
43	Triplet	114	276	1248	6	0	0	1050953	692	0	correct_rejection	NA	0
43	Triplet	115	277	1249	0	1	1	1051662	692	1	hit	520	0
43	Triplet	116	278	1250	5	0	0	1052370	692	0	correct_rejection	NA	0
43	Triplet	117	279	1251	4	0	0	1053079	692	0	correct_rejection	NA	0
43	Triplet	118	280	1252	9	0	0	1053788	691	0	correct_rejection	NA	0
43	Triplet	119	281	1253	8	0	0	1054496	692	0	correct_rejection	NA	0
43	Triplet	120	282	1254	0	1	1	1055205	691	1	hit	427	0
43	Triplet	121	283	1255	7	0	0	1055913	692	0	correct_rejection	NA	0
43	Triplet	122	284	1256	9	0	0	1056622	692	0	correct_rejection	NA	0
43	Triplet	123	285	1257	0	1	1	1057330	692	1	hit	414	0
43	Triplet	124	286	1258	8	0	0	1058039	692	0	correct_rejection	NA	0
43	Triplet	125	287	1259	7	0	0	1058748	691	0	correct_rejection	NA	0
43	Triplet	126	288	1260	6	0	0	1059456	692	0	correct_rejection	NA	0
43	Triplet	127	289	1261	5	0	0	1060165	691	0	correct_rejection	NA	0
43	Triplet	128	290	1262	4	0	0	1060873	692	0	correct_rejection	NA	0
43	Triplet	129	291	1263	6	0	0	1061582	691	0	correct_rejection	NA	0
43	Triplet	130	292	1264	5	0	0	1062290	692	0	correct_rejection	NA	0
43	Triplet	131	293	1265	4	0	0	1062999	692	0	correct_rejection	NA	0
43	Triplet	132	294	1266	7	0	0	1063707	692	0	correct_rejection	NA	0
43	Triplet	133	295	1267	0	1	1	1064416	692	0	miss	NA	0
43	Triplet	134	296	1268	8	0	0	1065125	691	0	correct_rejection	NA	0
43	Triplet	135	297	1269	9	0	0	1065833	692	0	correct_rejection	NA	0
43	Triplet	136	298	1270	4	0	0	1066542	691	0	correct_rejection	NA	0
43	Triplet	137	299	1271	5	0	0	1067250	692	0	correct_rejection	NA	0
43	Triplet	138	300	1272	6	0	0	1067959	692	0	correct_rejection	NA	0
43	Triplet	139	301	1273	7	0	0	1068667	692	0	correct_rejection	NA	0
43	Triplet	140	302	1274	8	0	0	1069376	692	0	correct_rejection	NA	0
43	Triplet	141	303	1275	0	1	1	1070085	691	1	hit	438	0
43	Triplet	142	304	1276	9	0	0	1070793	692	0	correct_rejection	NA	0
43	Triplet	143	305	1277	9	0	0	1071502	691	0	correct_rejection	NA	0
43	Triplet	144	306	1278	8	0	0	1072210	692	0	correct_rejection	NA	0
43	Triplet	145	307	1279	7	0	0	1072919	692	0	correct_rejection	NA	0
43	Triplet	146	308	1280	4	0	0	1073627	692	0	correct_rejection	NA	0
43	Triplet	147	309	1281	5	0	0	1074336	692	0	correct_rejection	NA	0
43	Triplet	148	310	1282	6	0	0	1075045	691	0	correct_rejection	NA	0
43	Triplet	149	311	1283	9	0	0	1075753	692	0	correct_rejection	NA	0
43	Triplet	150	312	1284	0	1	1	1076462	691	0	miss	NA	0
43	Triplet	151	313	1285	8	0	0	1077170	692	1	false_alarm	0	0
43	Triplet	152	314	1286	7	0	0	1077879	692	0	correct_rejection	NA	0
43	Triplet	153	315	1287	7	0	0	1078587	692	0	correct_rejection	NA	0
43	Triplet	154	316	1288	8	0	0	1079296	692	0	correct_rejection	NA	0
43	Triplet	155	317	1289	9	0	0	1080005	691	0	correct_rejection	NA	0
43	Triplet	156	318	1290	7	0	0	1080713	692	0	correct_rejection	NA	0
43	Triplet	157	319	1291	0	1	1	1081422	691	1	hit	371	0
43	Triplet	158	320	1292	8	0	0	1082130	692	0	correct_rejection	NA	0
43	Triplet	159	321	1293	9	0	0	1082839	691	0	correct_rejection	NA	0
43	Triplet	160	322	1294	6	0	0	1083547	692	0	correct_rejection	NA	0
43	Triplet	161	323	1295	5	0	0	1084256	692	0	correct_rejection	NA	0
43	Triplet	162	324	1296	4	0	0	1084964	692	0	correct_rejection	NA	0
43	Nonet	1	649	1297	6	0	0	1094793	691	0	correct_rejection	NA	7809
43	Nonet	2	650	1298	5	0	0	1095501	692	0	correct_rejection	NA	0
43	Nonet	3	651	1299	4	0	0	1096210	692	0	correct_rejection	NA	0
43	Nonet	4	652	1300	6	0	0	1096918	692	0	correct_rejection	NA	0
43	Nonet	5	653	1301	5	0	0	1097627	692	0	correct_rejection	NA	0
43	Nonet	6	654	1302	4	0	0	1098336	691	0	correct_rejection	NA	0
43	Nonet	7	655	1303	6	0	0	1099044	692	0	correct_rejection	NA	0
43	Nonet	8	656	1304	5	0	0	1099753	691	0	correct_rejection	NA	0
43	Nonet	9	657	1305	4	0	0	1100461	692	0	correct_rejection	NA	0
43	Nonet	10	658	1306	9	0	0	1101170	691	0	correct_rejection	NA	0
43	Nonet	11	659	1307	8	0	0	1101878	692	0	correct_rejection	NA	0
43	Nonet	12	660	1308	7	0	0	1102587	692	0	correct_rejection	NA	0
43	Nonet	13	661	1309	9	0	0	1103295	692	0	correct_rejection	NA	0
43	Nonet	14	662	1310	8	0	0	1104004	692	0	correct_rejection	NA	0
43	Nonet	15	663	1311	7	0	0	1104713	691	0	correct_rejection	NA	0
43	Nonet	16	664	1312	0	1	2	1105421	692	0	miss	NA	0
43	Nonet	17	665	1313	9	0	0	1106130	691	0	correct_rejection	NA	0
43	Nonet	18	666	1314	8	0	0	1106838	692	0	correct_rejection	NA	0
43	Nonet	19	667	1315	7	0	0	1107547	692	0	correct_rejection	NA	0
43	Nonet	20	668	1316	0	1	3	1108255	692	1	hit	413	0
43	Nonet	21	669	1317	4	0	0	1108964	692	0	correct_rejection	NA	0
43	Nonet	22	670	1318	5	0	0	1109673	691	0	correct_rejection	NA	0
43	Nonet	23	671	1319	0	1	1	1110381	692	1	hit	460	0
43	Nonet	24	672	1320	6	0	0	1111090	691	0	correct_rejection	NA	0
43	Nonet	25	673	1321	4	0	0	1111798	692	0	correct_rejection	NA	0
43	Nonet	26	674	1322	5	0	0	1112507	692	0	correct_rejection	NA	0
43	Nonet	27	675	1323	6	0	0	1113215	692	0	correct_rejection	NA	0
43	Nonet	28	676	1324	4	0	0	1113924	692	0	correct_rejection	NA	0
43	Nonet	29	677	1325	5	0	0	1114633	691	0	correct_rejection	NA	0
43	Nonet	30	678	1326	0	1	1	1115341	692	1	hit	428	0
43	Nonet	31	679	1327	6	0	0	1116050	691	0	correct_rejection	NA	0
43	Nonet	32	680	1328	4	0	0	1116758	692	0	correct_rejection	NA	0
43	Nonet	33	681	1329	5	0	0	1117467	692	0	correct_rejection	NA	0
43	Nonet	34	682	1330	6	0	0	1118175	692	0	correct_rejection	NA	0
43	Nonet	35	683	1331	4	0	0	1118884	692	0	correct_rejection	NA	0
43	Nonet	36	684	1332	5	0	0	1119593	691	0	correct_rejection	NA	0
43	Nonet	37	685	1333	6	0	0	1120301	692	0	correct_rejection	NA	0
43	Nonet	38	686	1334	4	0	0	1121010	691	0	correct_rejection	NA	0
43	Nonet	39	687	1335	5	0	0	1121718	692	0	correct_rejection	NA	0
43	Nonet	40	688	1336	6	0	0	1122427	691	0	correct_rejection	NA	0
43	Nonet	41	689	1337	6	0	0	1123135	692	0	correct_rejection	NA	0
43	Nonet	42	690	1338	5	0	0	1123844	692	0	correct_rejection	NA	0
43	Nonet	43	691	1339	4	0	0	1124552	692	0	correct_rejection	NA	0
43	Nonet	44	692	1340	6	0	0	1125261	692	0	correct_rejection	NA	0
43	Nonet	45	693	1341	5	0	0	1125970	691	0	correct_rejection	NA	0
43	Nonet	46	694	1342	4	0	0	1126678	692	0	correct_rejection	NA	0
43	Nonet	47	695	1343	6	0	0	1127387	691	0	correct_rejection	NA	0
43	Nonet	48	696	1344	5	0	0	1128095	692	0	correct_rejection	NA	0
43	Nonet	49	697	1345	0	1	1	1128804	692	1	hit	421	0
43	Nonet	50	698	1346	4	0	0	1129512	692	0	correct_rejection	NA	0
43	Nonet	51	699	1347	6	0	0	1130221	692	0	correct_rejection	NA	0
43	Nonet	52	700	1348	5	0	0	1130930	691	0	correct_rejection	NA	0
43	Nonet	53	701	1349	4	0	0	1131638	692	0	correct_rejection	NA	0
43	Nonet	54	702	1350	6	0	0	1132347	691	0	correct_rejection	NA	0
43	Nonet	55	703	1351	0	1	1	1133055	692	1	hit	487	0
43	Nonet	56	704	1352	5	0	0	1133764	692	0	correct_rejection	NA	0
43	Nonet	57	705	1353	4	0	0	1134472	692	0	correct_rejection	NA	0
43	Nonet	58	706	1354	0	1	2	1135181	692	0	miss	NA	0
43	Nonet	59	707	1355	6	0	0	1135890	691	0	correct_rejection	NA	0
43	Nonet	60	708	1356	5	0	0	1136598	692	0	correct_rejection	NA	0
43	Nonet	61	709	1357	4	0	0	1137307	691	0	correct_rejection	NA	0
43	Nonet	62	710	1358	4	0	0	1138015	692	0	correct_rejection	NA	0
43	Nonet	63	711	1359	5	0	0	1138724	692	0	correct_rejection	NA	0
43	Nonet	64	712	1360	6	0	0	1139432	692	0	correct_rejection	NA	0
43	Nonet	65	713	1361	4	0	0	1140141	692	0	correct_rejection	NA	0
43	Nonet	66	714	1362	5	0	0	1140850	691	0	correct_rejection	NA	0
43	Nonet	67	715	1363	6	0	0	1141558	692	0	correct_rejection	NA	0
43	Nonet	68	716	1364	4	0	0	1142267	691	0	correct_rejection	NA	0
43	Nonet	69	717	1365	5	0	0	1142975	692	0	correct_rejection	NA	0
43	Nonet	70	718	1366	6	0	0	1143684	691	0	correct_rejection	NA	0
43	Nonet	71	719	1367	7	0	0	1144392	692	0	correct_rejection	NA	0
43	Nonet	72	720	1368	8	0	0	1145101	692	0	correct_rejection	NA	0
43	Nonet	73	721	1369	9	0	0	1145809	692	0	correct_rejection	NA	0
43	Nonet	74	722	1370	0	1	2	1146518	692	1	hit	445	0
43	Nonet	75	723	1371	7	0	0	1147227	691	0	correct_rejection	NA	0
43	Nonet	76	724	1372	8	0	0	1147935	692	0	correct_rejection	NA	0
43	Nonet	77	725	1373	0	1	1	1148644	691	1	hit	459	0
43	Nonet	78	726	1374	9	0	0	1149352	692	0	correct_rejection	NA	0
43	Nonet	79	727	1375	7	0	0	1150061	692	0	correct_rejection	NA	0
43	Nonet	80	728	1376	8	0	0	1150769	692	0	correct_rejection	NA	0
43	Nonet	81	729	1377	9	0	0	1151478	692	0	correct_rejection	NA	0
43	Nonet	82	730	1378	6	0	0	1152187	691	0	correct_rejection	NA	0
43	Nonet	83	731	1379	5	0	0	1152895	692	0	correct_rejection	NA	0
43	Nonet	84	732	1380	4	0	0	1153604	691	0	correct_rejection	NA	0
43	Nonet	85	733	1381	6	0	0	1154312	692	0	correct_rejection	NA	0
43	Nonet	86	734	1382	5	0	0	1155021	692	0	correct_rejection	NA	0
43	Nonet	87	735	1383	4	0	0	1155729	692	0	correct_rejection	NA	0
43	Nonet	88	736	1384	0	1	2	1156438	692	1	hit	533	0
43	Nonet	89	737	1385	6	0	0	1157147	691	0	correct_rejection	NA	0
43	Nonet	90	738	1386	5	0	0	1157855	692	0	correct_rejection	NA	0
43	Nonet	91	739	1387	4	0	0	1158564	691	0	correct_rejection	NA	0
43	Nonet	92	740	1388	7	0	0	1159272	692	0	correct_rejection	NA	0
43	Nonet	93	741	1389	8	0	0	1159981	691	0	correct_rejection	NA	0
43	Nonet	94	742	1390	9	0	0	1160689	692	0	correct_rejection	NA	0
43	Nonet	95	743	1391	7	0	0	1161398	692	0	correct_rejection	NA	0
43	Nonet	96	744	1392	8	0	0	1162106	692	0	correct_rejection	NA	0
43	Nonet	97	745	1393	9	0	0	1162815	692	0	correct_rejection	NA	0
43	Nonet	98	746	1394	7	0	0	1163524	691	0	correct_rejection	NA	0
43	Nonet	99	747	1395	0	1	1	1164232	692	0	miss	NA	0
43	Nonet	100	748	1396	8	0	0	1164941	691	0	correct_rejection	NA	0
43	Nonet	101	749	1397	9	0	0	1165649	692	0	correct_rejection	NA	0
43	Nonet	102	750	1398	4	0	0	1166358	692	0	correct_rejection	NA	0
43	Nonet	103	751	1399	0	1	1	1167066	692	0	miss	NA	0
43	Nonet	104	752	1400	5	0	0	1167775	692	1	false_alarm	72	0
43	Nonet	105	753	1401	6	0	0	1168484	691	0	correct_rejection	NA	0
43	Nonet	106	754	1402	0	1	2	1169192	692	1	hit	463	0
43	Nonet	107	755	1403	4	0	0	1169901	691	0	correct_rejection	NA	0
43	Nonet	108	756	1404	5	0	0	1170609	692	0	correct_rejection	NA	0
43	Nonet	109	757	1405	6	0	0	1171318	692	0	correct_rejection	NA	0
43	Nonet	110	758	1406	4	0	0	1172026	692	0	correct_rejection	NA	0
43	Nonet	111	759	1407	5	0	0	1172735	692	0	correct_rejection	NA	0
43	Nonet	112	760	1408	6	0	0	1173444	691	0	correct_rejection	NA	0
43	Nonet	113	761	1409	9	0	0	1174152	692	0	correct_rejection	NA	0
43	Nonet	114	762	1410	8	0	0	1174861	691	0	correct_rejection	NA	0
43	Nonet	115	763	1411	7	0	0	1175569	692	0	correct_rejection	NA	0
43	Nonet	116	764	1412	9	0	0	1176278	692	0	correct_rejection	NA	0
43	Nonet	117	765	1413	0	1	1	1176986	692	1	hit	423	0
43	Nonet	118	766	1414	8	0	0	1177695	692	0	correct_rejection	NA	0
43	Nonet	119	767	1415	7	0	0	1178404	691	0	correct_rejection	NA	0
43	Nonet	120	768	1416	9	0	0	1179112	692	0	correct_rejection	NA	0
43	Nonet	121	769	1417	8	0	0	1179821	691	0	correct_rejection	NA	0
43	Nonet	122	770	1418	0	1	1	1180529	692	1	hit	405	0
43	Nonet	123	771	1419	7	0	0	1181238	691	0	correct_rejection	NA	0
43	Nonet	124	772	1420	9	0	0	1181946	692	0	correct_rejection	NA	0
43	Nonet	125	773	1421	8	0	0	1182655	692	0	correct_rejection	NA	0
43	Nonet	126	774	1422	7	0	0	1183363	692	0	correct_rejection	NA	0
43	Nonet	127	775	1423	0	1	2	1184072	692	1	hit	529	0
43	Nonet	128	776	1424	9	0	0	1184781	691	0	correct_rejection	NA	0
43	Nonet	129	777	1425	8	0	0	1185489	692	0	correct_rejection	NA	0
43	Nonet	130	778	1426	0	1	1	1186198	691	0	miss	NA	0
43	Nonet	131	779	1427	7	0	0	1186906	692	0	correct_rejection	NA	0
43	Nonet	132	780	1428	9	0	0	1187615	692	0	correct_rejection	NA	0
43	Nonet	133	781	1429	8	0	0	1188323	692	0	correct_rejection	NA	0
43	Nonet	134	782	1430	7	0	0	1189032	692	0	correct_rejection	NA	0
43	Nonet	135	783	1431	7	0	0	1189741	691	0	correct_rejection	NA	0
43	Nonet	136	784	1432	8	0	0	1190449	692	0	correct_rejection	NA	0
43	Nonet	137	785	1433	9	0	0	1191158	691	0	correct_rejection	NA	0
43	Nonet	138	786	1434	7	0	0	1191866	692	0	correct_rejection	NA	0
43	Nonet	139	787	1435	8	0	0	1192575	692	0	correct_rejection	NA	0
43	Nonet	140	788	1436	9	0	0	1193283	692	0	correct_rejection	NA	0
43	Nonet	141	789	1437	7	0	0	1193992	692	0	correct_rejection	NA	0
43	Nonet	142	790	1438	8	0	0	1194701	691	0	correct_rejection	NA	0
43	Nonet	143	791	1439	9	0	0	1195409	692	0	correct_rejection	NA	0
43	Nonet	144	792	1440	0	1	3	1196118	691	1	hit	434	0
43	Nonet	145	793	1441	7	0	0	1196826	692	0	correct_rejection	NA	0
43	Nonet	146	794	1442	8	0	0	1197535	692	0	correct_rejection	NA	0
43	Nonet	147	795	1443	9	0	0	1198243	692	0	correct_rejection	NA	0
43	Nonet	148	796	1444	7	0	0	1198952	692	0	correct_rejection	NA	0
43	Nonet	149	797	1445	8	0	0	1199661	691	0	correct_rejection	NA	0
43	Nonet	150	798	1446	9	0	0	1200369	692	0	correct_rejection	NA	0
43	Nonet	151	799	1447	7	0	0	1201078	691	0	correct_rejection	NA	0
43	Nonet	152	800	1448	8	0	0	1201786	692	0	correct_rejection	NA	0
43	Nonet	153	801	1449	9	0	0	1202495	691	0	correct_rejection	NA	0
43	Nonet	154	802	1450	9	0	0	1203203	692	0	correct_rejection	NA	0
43	Nonet	155	803	1451	8	0	0	1203912	692	0	correct_rejection	NA	0
43	Nonet	156	804	1452	7	0	0	1204620	692	0	correct_rejection	NA	0
43	Nonet	157	805	1453	9	0	0	1205329	692	0	correct_rejection	NA	0
43	Nonet	158	806	1454	8	0	0	1206038	691	0	correct_rejection	NA	0
43	Nonet	159	807	1455	7	0	0	1206746	692	0	correct_rejection	NA	0
43	Nonet	160	808	1456	9	0	0	1207455	691	0	correct_rejection	NA	0
43	Nonet	161	809	1457	8	0	0	1208163	692	0	correct_rejection	NA	0
43	Nonet	162	810	1458	7	0	0	1208872	692	0	correct_rejection	NA	0
43	Single	1	1	1459	9	0	0	1218942	692	0	correct_rejection	NA	7959
43	Single	2	2	1460	5	0	0	1219650	692	0	correct_rejection	NA	0
43	Single	3	3	1461	4	0	0	1220359	692	0	correct_rejection	NA	0
43	Single	4	4	1462	7	0	0	1221068	691	0	correct_rejection	NA	0
43	Single	5	5	1463	9	0	0	1221776	692	0	correct_rejection	NA	0
43	Single	6	6	1464	4	0	0	1222485	691	0	correct_rejection	NA	0
43	Single	7	7	1465	4	0	0	1223193	692	0	correct_rejection	NA	0
43	Single	8	8	1466	5	0	0	1223902	692	0	correct_rejection	NA	0
43	Single	9	9	1467	0	1	1	1224610	692	1	hit	525	0
43	Single	10	10	1468	8	0	0	1225319	692	0	correct_rejection	NA	0
43	Single	11	11	1469	7	0	0	1226028	691	0	correct_rejection	NA	0
43	Single	12	12	1470	5	0	0	1226736	692	0	correct_rejection	NA	0
43	Single	13	13	1471	7	0	0	1227445	691	0	correct_rejection	NA	0
43	Single	14	14	1472	0	1	1	1228153	692	1	hit	432	0
43	Single	15	15	1473	7	0	0	1228862	691	0	correct_rejection	NA	0
43	Single	16	16	1474	8	0	0	1229570	692	0	correct_rejection	NA	0
43	Single	17	17	1475	9	0	0	1230279	692	0	correct_rejection	NA	0
43	Single	18	18	1476	8	0	0	1230987	692	0	correct_rejection	NA	0
43	Single	19	19	1477	6	0	0	1231696	692	0	correct_rejection	NA	0
43	Single	20	20	1478	4	0	0	1232405	691	0	correct_rejection	NA	0
43	Single	21	21	1479	0	1	1	1233113	692	1	hit	413	0
43	Single	22	22	1480	9	0	0	1233822	691	0	correct_rejection	NA	0
43	Single	23	23	1481	9	0	0	1234530	692	0	correct_rejection	NA	0
43	Single	24	24	1482	7	0	0	1235239	692	0	correct_rejection	NA	0
43	Single	25	25	1483	0	1	1	1235947	692	1	hit	428	0
43	Single	26	26	1484	6	0	0	1236656	692	0	correct_rejection	NA	0
43	Single	27	27	1485	6	0	0	1237365	691	0	correct_rejection	NA	0
43	Single	28	28	1486	8	0	0	1238073	692	0	correct_rejection	NA	0
43	Single	29	29	1487	5	0	0	1238782	691	0	correct_rejection	NA	0
43	Single	30	30	1488	6	0	0	1239490	692	0	correct_rejection	NA	0
43	Single	31	31	1489	0	1	1	1240199	692	1	hit	444	0
43	Single	32	32	1490	7	0	0	1240907	692	0	correct_rejection	NA	0
43	Single	33	33	1491	4	0	0	1241616	692	0	correct_rejection	NA	0
43	Single	34	34	1492	8	0	0	1242325	691	0	correct_rejection	NA	0
43	Single	35	35	1493	8	0	0	1243033	692	0	correct_rejection	NA	0
43	Single	36	36	1494	4	0	0	1243742	691	0	correct_rejection	NA	0
43	Single	37	37	1495	6	0	0	1244450	692	0	correct_rejection	NA	0
43	Single	38	38	1496	5	0	0	1245159	691	0	correct_rejection	NA	0
43	Single	39	39	1497	5	0	0	1245867	692	0	correct_rejection	NA	0
43	Single	40	40	1498	9	0	0	1246576	692	0	correct_rejection	NA	0
43	Single	41	41	1499	6	0	0	1247284	692	0	correct_rejection	NA	0
43	Single	42	42	1500	4	0	0	1247993	692	0	correct_rejection	NA	0
43	Single	43	43	1501	9	0	0	1248702	691	0	correct_rejection	NA	0
43	Single	44	44	1502	8	0	0	1249410	692	0	correct_rejection	NA	0
43	Single	45	45	1503	8	0	0	1250119	691	0	correct_rejection	NA	0
43	Single	46	46	1504	6	0	0	1250827	692	0	correct_rejection	NA	0
43	Single	47	47	1505	9	0	0	1251536	692	0	correct_rejection	NA	0
43	Single	48	48	1506	6	0	0	1252244	692	0	correct_rejection	NA	0
43	Single	49	49	1507	6	0	0	1252953	692	0	correct_rejection	NA	0
43	Single	50	50	1508	7	0	0	1253662	691	0	correct_rejection	NA	0
43	Single	51	51	1509	5	0	0	1254370	692	0	correct_rejection	NA	0
43	Single	52	52	1510	6	0	0	1255079	691	0	correct_rejection	NA	0
43	Single	53	53	1511	5	0	0	1255787	692	0	correct_rejection	NA	0
43	Single	54	54	1512	8	0	0	1256496	692	0	correct_rejection	NA	0
43	Single	55	55	1513	4	0	0	1257204	692	0	correct_rejection	NA	0
43	Single	56	56	1514	5	0	0	1257913	692	0	correct_rejection	NA	0
43	Single	57	57	1515	4	0	0	1258622	691	0	correct_rejection	NA	0
43	Single	58	58	1516	8	0	0	1259330	692	0	correct_rejection	NA	0
43	Single	59	59	1517	7	0	0	1260039	691	0	correct_rejection	NA	0
43	Single	60	60	1518	7	0	0	1260747	692	0	correct_rejection	NA	0
43	Single	61	61	1519	6	0	0	1261456	692	0	correct_rejection	NA	0
43	Single	62	62	1520	8	0	0	1262164	692	0	correct_rejection	NA	0
43	Single	63	63	1521	9	0	0	1262873	692	0	correct_rejection	NA	0
43	Single	64	64	1522	7	0	0	1263582	691	0	correct_rejection	NA	0
43	Single	65	65	1523	9	0	0	1264290	692	0	correct_rejection	NA	0
43	Single	66	66	1524	5	0	0	1264999	691	0	correct_rejection	NA	0
43	Single	67	67	1525	5	0	0	1265707	692	0	correct_rejection	NA	0
43	Single	68	68	1526	7	0	0	1266416	691	0	correct_rejection	NA	0
43	Single	69	69	1527	4	0	0	1267124	692	0	correct_rejection	NA	0
43	Single	70	70	1528	6	0	0	1267833	692	0	correct_rejection	NA	0
43	Single	71	71	1529	4	0	0	1268541	692	0	correct_rejection	NA	0
43	Single	72	72	1530	0	1	1	1269250	692	1	hit	347	0
43	Single	73	73	1531	4	0	0	1269959	691	0	correct_rejection	NA	0
43	Single	74	74	1532	7	0	0	1270667	692	0	correct_rejection	NA	0
43	Single	75	75	1533	0	1	1	1271376	691	1	hit	504	0
43	Single	76	76	1534	8	0	0	1272084	692	0	correct_rejection	NA	0
43	Single	77	77	1535	5	0	0	1272793	692	0	correct_rejection	NA	0
43	Single	78	78	1536	9	0	0	1273501	692	0	correct_rejection	NA	0
43	Single	79	79	1537	9	0	0	1274210	692	0	correct_rejection	NA	0
43	Single	80	80	1538	4	0	0	1274919	691	0	correct_rejection	NA	0
43	Single	81	81	1539	9	0	0	1275627	692	0	correct_rejection	NA	0
43	Single	82	82	1540	0	1	1	1276336	691	1	hit	369	0
43	Single	83	83	1541	6	0	0	1277044	692	0	correct_rejection	NA	0
43	Single	84	84	1542	4	0	0	1277753	692	0	correct_rejection	NA	0
43	Single	85	85	1543	6	0	0	1278461	692	0	correct_rejection	NA	0
43	Single	86	86	1544	8	0	0	1279170	692	0	correct_rejection	NA	0
43	Single	87	87	1545	0	1	1	1279879	691	1	hit	318	0
43	Single	88	88	1546	8	0	0	1280587	692	0	correct_rejection	NA	0
43	Single	89	89	1547	5	0	0	1281296	691	0	correct_rejection	NA	0
43	Single	90	90	1548	7	0	0	1282004	692	0	correct_rejection	NA	0
43	Single	91	91	1549	8	0	0	1282713	691	0	correct_rejection	NA	0
43	Single	92	92	1550	6	0	0	1283421	692	0	correct_rejection	NA	0
43	Single	93	93	1551	7	0	0	1284130	692	0	correct_rejection	NA	0
43	Single	94	94	1552	9	0	0	1284839	691	0	correct_rejection	NA	0
43	Single	95	95	1553	8	0	0	1285547	692	0	correct_rejection	NA	0
43	Single	96	96	1554	7	0	0	1286256	691	0	correct_rejection	NA	0
43	Single	97	97	1555	6	0	0	1286964	692	0	correct_rejection	NA	0
43	Single	98	98	1556	9	0	0	1287673	691	0	correct_rejection	NA	0
43	Single	99	99	1557	0	1	1	1288381	692	0	miss	NA	0
43	Single	100	100	1558	7	0	0	1289090	692	1	false_alarm	53	0
43	Single	101	101	1559	7	0	0	1289798	692	0	correct_rejection	NA	0
43	Single	102	102	1560	4	0	0	1290507	692	0	correct_rejection	NA	0
43	Single	103	103	1561	5	0	0	1291216	691	0	correct_rejection	NA	0
43	Single	104	104	1562	5	0	0	1291924	692	0	correct_rejection	NA	0
43	Single	105	105	1563	8	0	0	1292633	691	0	correct_rejection	NA	0
43	Single	106	106	1564	9	0	0	1293341	692	0	correct_rejection	NA	0
43	Single	107	107	1565	0	1	1	1294050	692	0	miss	NA	0
43	Single	108	108	1566	9	0	0	1294758	692	0	correct_rejection	NA	0
43	Single	109	109	1567	4	0	0	1295467	692	0	correct_rejection	NA	0
43	Single	110	110	1568	0	1	1	1296176	691	1	hit	376	0
43	Single	111	111	1569	8	0	0	1296884	692	0	correct_rejection	NA	0
43	Single	112	112	1570	4	0	0	1297593	691	0	correct_rejection	NA	0
43	Single	113	113	1571	0	1	1	1298301	692	1	hit	348	0
43	Single	114	114	1572	7	0	0	1299010	692	0	correct_rejection	NA	0
43	Single	115	115	1573	5	0	0	1299718	692	0	correct_rejection	NA	0
43	Single	116	116	1574	9	0	0	1300427	692	0	correct_rejection	NA	0
43	Single	117	117	1575	5	0	0	1301136	691	0	correct_rejection	NA	0
43	Single	118	118	1576	6	0	0	1301844	692	0	correct_rejection	NA	0
43	Single	119	119	1577	6	0	0	1302553	691	0	correct_rejection	NA	0
43	Single	120	120	1578	5	0	0	1303261	692	0	correct_rejection	NA	0
43	Single	121	121	1579	0	1	1	1303970	691	1	hit	495	0
43	Single	122	122	1580	4	0	0	1304678	692	0	correct_rejection	NA	0
43	Single	123	123	1581	9	0	0	1305387	692	0	correct_rejection	NA	0
43	Single	124	124	1582	7	0	0	1306095	692	0	correct_rejection	NA	0
43	Single	125	125	1583	6	0	0	1306804	692	0	correct_rejection	NA	0
43	Single	126	126	1584	4	0	0	1307513	691	0	correct_rejection	NA	0
43	Single	127	127	1585	9	0	0	1308221	692	0	correct_rejection	NA	0
43	Single	128	128	1586	4	0	0	1308930	691	0	correct_rejection	NA	0
43	Single	129	129	1587	4	0	0	1309638	692	0	correct_rejection	NA	0
43	Single	130	130	1588	8	0	0	1310347	692	0	correct_rejection	NA	0
43	Single	131	131	1589	5	0	0	1311055	692	0	correct_rejection	NA	0
43	Single	132	132	1590	8	0	0	1311764	692	0	correct_rejection	NA	0
43	Single	133	133	1591	6	0	0	1312473	691	0	correct_rejection	NA	0
43	Single	134	134	1592	8	0	0	1313181	692	0	correct_rejection	NA	0
43	Single	135	135	1593	4	0	0	1313890	691	0	correct_rejection	NA	0
43	Single	136	136	1594	6	0	0	1314598	692	0	correct_rejection	NA	0
43	Single	137	137	1595	0	1	1	1315307	692	1	hit	409	0
43	Single	138	138	1596	6	0	0	1316015	692	0	correct_rejection	NA	0
43	Single	139	139	1597	9	0	0	1316724	692	0	correct_rejection	NA	0
43	Single	140	140	1598	5	0	0	1317433	691	0	correct_rejection	NA	0
43	Single	141	141	1599	4	0	0	1318141	692	0	correct_rejection	NA	0
43	Single	142	142	1600	5	0	0	1318850	691	0	correct_rejection	NA	0
