ID	block	trial_block	trial_cat	trial_total	number	violation	level_violation	onset	duration	Response	Hit_Miss	RT	pre_trial_fixcross_ISI
first_trigger_at: 11292
trigger nr 3 at 13292
44	Correct	1	325	1	4	0	0	21166	683	0	correct_rejection	NA	7807
44	Correct	2	326	2	5	0	0	21883	683	0	correct_rejection	NA	0
44	Correct	3	327	3	6	0	0	22599	684	0	correct_rejection	NA	0
44	Correct	4	328	4	4	0	0	23316	683	0	correct_rejection	NA	0
44	Correct	5	329	5	5	0	0	24032	684	0	correct_rejection	NA	0
44	Correct	6	330	6	6	0	0	24749	683	0	correct_rejection	NA	0
44	Correct	7	331	7	4	0	0	25466	683	0	correct_rejection	NA	0
44	Correct	8	332	8	5	0	0	26182	684	0	correct_rejection	NA	0
44	Correct	9	333	9	6	0	0	26899	683	0	correct_rejection	NA	0
44	Correct	10	334	10	0	1	3	27616	683	1	hit	491	0
44	Correct	11	335	11	6	0	0	28332	684	0	correct_rejection	NA	0
44	Correct	12	336	12	5	0	0	29049	683	0	correct_rejection	NA	0
44	Correct	13	337	13	4	0	0	29766	683	0	correct_rejection	NA	0
44	Correct	14	338	14	6	0	0	30482	684	0	correct_rejection	NA	0
44	Correct	15	339	15	5	0	0	31199	683	0	correct_rejection	NA	0
44	Correct	16	340	16	4	0	0	31916	683	0	correct_rejection	NA	0
44	Correct	17	341	17	6	0	0	32632	684	0	correct_rejection	NA	0
44	Correct	18	342	18	0	1	1	33349	683	1	hit	626	0
44	Correct	19	343	19	5	0	0	34066	683	0	correct_rejection	NA	0
44	Correct	20	344	20	4	0	0	34782	684	0	correct_rejection	NA	0
44	Correct	21	345	21	9	0	0	35499	683	0	correct_rejection	NA	0
44	Correct	22	346	22	8	0	0	36216	683	0	correct_rejection	NA	0
44	Correct	23	347	23	7	0	0	36932	684	0	correct_rejection	NA	0
44	Correct	24	348	24	0	1	2	37649	683	1	hit	556	0
44	Correct	25	349	25	9	0	0	38366	683	0	correct_rejection	NA	0
44	Correct	26	350	26	8	0	0	39082	684	0	correct_rejection	NA	0
44	Correct	27	351	27	7	0	0	39799	683	0	correct_rejection	NA	0
44	Correct	28	352	28	9	0	0	40516	683	0	correct_rejection	NA	0
44	Correct	29	353	29	8	0	0	41232	684	0	correct_rejection	NA	0
44	Correct	30	354	30	7	0	0	41949	683	0	correct_rejection	NA	0
44	Correct	31	355	31	7	0	0	42666	683	0	correct_rejection	NA	0
44	Correct	32	356	32	8	0	0	43382	684	0	correct_rejection	NA	0
44	Correct	33	357	33	9	0	0	44099	683	0	correct_rejection	NA	0
44	Correct	34	358	34	7	0	0	44816	683	0	correct_rejection	NA	0
44	Correct	35	359	35	8	0	0	45532	684	0	correct_rejection	NA	0
44	Correct	36	360	36	9	0	0	46249	683	0	correct_rejection	NA	0
44	Correct	37	361	37	7	0	0	46965	684	0	correct_rejection	NA	0
44	Correct	38	362	38	0	1	1	47682	684	1	hit	482	0
44	Correct	39	363	39	8	0	0	48399	683	0	correct_rejection	NA	0
44	Correct	40	364	40	9	0	0	49115	684	0	correct_rejection	NA	0
44	Correct	41	365	41	4	0	0	49832	683	0	correct_rejection	NA	0
44	Correct	42	366	42	5	0	0	50549	683	0	correct_rejection	NA	0
44	Correct	43	367	43	6	0	0	51265	684	0	correct_rejection	NA	0
44	Correct	44	368	44	4	0	0	51982	683	0	correct_rejection	NA	0
44	Correct	45	369	45	5	0	0	52699	683	0	correct_rejection	NA	0
44	Correct	46	370	46	6	0	0	53415	684	0	correct_rejection	NA	0
44	Correct	47	371	47	4	0	0	54132	683	0	correct_rejection	NA	0
44	Correct	48	372	48	0	1	1	54849	683	1	hit	489	0
44	Correct	49	373	49	5	0	0	55565	684	0	correct_rejection	NA	0
44	Correct	50	374	50	6	0	0	56282	683	0	correct_rejection	NA	0
44	Correct	51	375	51	6	0	0	56999	683	0	correct_rejection	NA	0
44	Correct	52	376	52	5	0	0	57715	684	0	correct_rejection	NA	0
44	Correct	53	377	53	4	0	0	58432	683	0	correct_rejection	NA	0
44	Correct	54	378	54	6	0	0	59149	683	0	correct_rejection	NA	0
44	Correct	55	379	55	5	0	0	59865	684	0	correct_rejection	NA	0
44	Correct	56	380	56	4	0	0	60582	683	0	correct_rejection	NA	0
44	Correct	57	381	57	6	0	0	61299	683	0	correct_rejection	NA	0
44	Correct	58	382	58	5	0	0	62015	684	0	correct_rejection	NA	0
44	Correct	59	383	59	4	0	0	62732	683	0	correct_rejection	NA	0
44	Correct	60	384	60	9	0	0	63449	683	0	correct_rejection	NA	0
44	Correct	61	385	61	8	0	0	64165	684	0	correct_rejection	NA	0
44	Correct	62	386	62	7	0	0	64882	683	0	correct_rejection	NA	0
44	Correct	63	387	63	9	0	0	65599	683	0	correct_rejection	NA	0
44	Correct	64	388	64	8	0	0	66315	684	0	correct_rejection	NA	0
44	Correct	65	389	65	0	1	1	67032	683	1	hit	569	0
44	Correct	66	390	66	7	0	0	67749	683	0	correct_rejection	NA	0
44	Correct	67	391	67	9	0	0	68465	684	0	correct_rejection	NA	0
44	Correct	68	392	68	8	0	0	69182	683	0	correct_rejection	NA	0
44	Correct	69	393	69	7	0	0	69899	683	0	correct_rejection	NA	0
44	Correct	70	394	70	7	0	0	70615	684	0	correct_rejection	NA	0
44	Correct	71	395	71	8	0	0	71332	683	0	correct_rejection	NA	0
44	Correct	72	396	72	9	0	0	72048	684	0	correct_rejection	NA	0
44	Correct	73	397	73	0	1	2	72765	683	1	hit	643	0
44	Correct	74	398	74	7	0	0	73482	683	0	correct_rejection	NA	0
44	Correct	75	399	75	8	0	0	74198	684	0	correct_rejection	NA	0
44	Correct	76	400	76	0	1	1	74915	683	0	miss	NA	0
44	Correct	77	401	77	9	0	0	75632	683	1	false_alarm	182	0
44	Correct	78	402	78	7	0	0	76348	684	0	correct_rejection	NA	0
44	Correct	79	403	79	8	0	0	77065	683	0	correct_rejection	NA	0
44	Correct	80	404	80	0	1	1	77782	683	1	hit	555	0
44	Correct	81	405	81	9	0	0	78498	684	0	correct_rejection	NA	0
44	Correct	82	406	82	4	0	0	79215	683	0	correct_rejection	NA	0
44	Correct	83	407	83	5	0	0	79932	683	0	correct_rejection	NA	0
44	Correct	84	408	84	0	1	1	80648	684	1	hit	531	0
44	Correct	85	409	85	6	0	0	81365	683	0	correct_rejection	NA	0
44	Correct	86	410	86	4	0	0	82082	683	0	correct_rejection	NA	0
44	Correct	87	411	87	5	0	0	82798	684	0	correct_rejection	NA	0
44	Correct	88	412	88	6	0	0	83515	683	0	correct_rejection	NA	0
44	Correct	89	413	89	4	0	0	84232	683	0	correct_rejection	NA	0
44	Correct	90	414	90	5	0	0	84948	684	0	correct_rejection	NA	0
44	Correct	91	415	91	6	0	0	85665	683	0	correct_rejection	NA	0
44	Correct	92	416	92	6	0	0	86382	683	0	correct_rejection	NA	0
44	Correct	93	417	93	5	0	0	87098	684	0	correct_rejection	NA	0
44	Correct	94	418	94	4	0	0	87815	683	0	correct_rejection	NA	0
44	Correct	95	419	95	6	0	0	88532	683	0	correct_rejection	NA	0
44	Correct	96	420	96	5	0	0	89248	684	0	correct_rejection	NA	0
44	Correct	97	421	97	4	0	0	89965	683	0	correct_rejection	NA	0
44	Correct	98	422	98	6	0	0	90682	683	0	correct_rejection	NA	0
44	Correct	99	423	99	5	0	0	91398	684	0	correct_rejection	NA	0
44	Correct	100	424	100	4	0	0	92115	683	0	correct_rejection	NA	0
44	Correct	101	425	101	9	0	0	92832	683	0	correct_rejection	NA	0
44	Correct	102	426	102	8	0	0	93548	684	0	correct_rejection	NA	0
44	Correct	103	427	103	7	0	0	94265	683	0	correct_rejection	NA	0
44	Correct	104	428	104	0	1	2	94981	684	1	hit	454	0
44	Correct	105	429	105	9	0	0	95698	684	0	correct_rejection	NA	0
44	Correct	106	430	106	8	0	0	96415	683	0	correct_rejection	NA	0
44	Correct	107	431	107	7	0	0	97131	684	0	correct_rejection	NA	0
44	Correct	108	432	108	9	0	0	97848	683	0	correct_rejection	NA	0
44	Correct	109	433	109	8	0	0	98565	683	0	correct_rejection	NA	0
44	Correct	110	434	110	7	0	0	99281	684	0	correct_rejection	NA	0
44	Correct	111	435	111	0	1	3	99998	683	1	hit	480	0
44	Correct	112	436	112	7	0	0	100715	683	0	correct_rejection	NA	0
44	Correct	113	437	113	8	0	0	101431	684	0	correct_rejection	NA	0
44	Correct	114	438	114	9	0	0	102148	683	0	correct_rejection	NA	0
44	Correct	115	439	115	7	0	0	102865	683	0	correct_rejection	NA	0
44	Correct	116	440	116	0	1	1	103581	684	1	hit	467	0
44	Correct	117	441	117	8	0	0	104298	683	0	correct_rejection	NA	0
44	Correct	118	442	118	9	0	0	105015	683	0	correct_rejection	NA	0
44	Correct	119	443	119	7	0	0	105731	684	0	correct_rejection	NA	0
44	Correct	120	444	120	0	1	1	106448	683	1	hit	533	0
44	Correct	121	445	121	8	0	0	107165	683	0	correct_rejection	NA	0
44	Correct	122	446	122	9	0	0	107881	684	0	correct_rejection	NA	0
44	Correct	123	447	123	4	0	0	108598	683	0	correct_rejection	NA	0
44	Correct	124	448	124	5	0	0	109315	683	0	correct_rejection	NA	0
44	Correct	125	449	125	6	0	0	110031	684	0	correct_rejection	NA	0
44	Correct	126	450	126	4	0	0	110748	683	0	correct_rejection	NA	0
44	Correct	127	451	127	0	1	1	111465	683	1	hit	472	0
44	Correct	128	452	128	5	0	0	112181	684	0	correct_rejection	NA	0
44	Correct	129	453	129	6	0	0	112898	683	0	correct_rejection	NA	0
44	Correct	130	454	130	4	0	0	113615	683	0	correct_rejection	NA	0
44	Correct	131	455	131	5	0	0	114331	684	0	correct_rejection	NA	0
44	Correct	132	456	132	6	0	0	115048	683	0	correct_rejection	NA	0
44	Correct	133	457	133	6	0	0	115765	683	0	correct_rejection	NA	0
44	Correct	134	458	134	5	0	0	116481	684	0	correct_rejection	NA	0
44	Correct	135	459	135	0	1	1	117198	683	1	hit	432	0
44	Correct	136	460	136	4	0	0	117915	683	0	correct_rejection	NA	0
44	Correct	137	461	137	6	0	0	118631	684	0	correct_rejection	NA	0
44	Correct	138	462	138	5	0	0	119348	683	0	correct_rejection	NA	0
44	Correct	139	463	139	4	0	0	120064	684	0	correct_rejection	NA	0
44	Correct	140	464	140	6	0	0	120781	683	0	correct_rejection	NA	0
44	Correct	141	465	141	5	0	0	121498	683	0	correct_rejection	NA	0
44	Correct	142	466	142	4	0	0	122214	684	0	correct_rejection	NA	0
44	Correct	143	467	143	9	0	0	122931	683	0	correct_rejection	NA	0
44	Correct	144	468	144	8	0	0	123648	683	0	correct_rejection	NA	0
44	Correct	145	469	145	7	0	0	124364	684	0	correct_rejection	NA	0
44	Correct	146	470	146	9	0	0	125081	683	0	correct_rejection	NA	0
44	Correct	147	471	147	0	1	1	125798	683	1	hit	472	0
44	Correct	148	472	148	8	0	0	126514	684	0	correct_rejection	NA	0
44	Correct	149	473	149	7	0	0	127231	683	0	correct_rejection	NA	0
44	Correct	150	474	150	9	0	0	127948	683	0	correct_rejection	NA	0
44	Correct	151	475	151	8	0	0	128664	684	0	correct_rejection	NA	0
44	Correct	152	476	152	7	0	0	129381	683	0	correct_rejection	NA	0
44	Correct	153	477	153	7	0	0	130098	683	0	correct_rejection	NA	0
44	Correct	154	478	154	8	0	0	130814	684	0	correct_rejection	NA	0
44	Correct	155	479	155	9	0	0	131531	683	0	correct_rejection	NA	0
44	Correct	156	480	156	0	1	2	132248	683	1	hit	567	0
44	Correct	157	481	157	7	0	0	132964	684	0	correct_rejection	NA	0
44	Correct	158	482	158	8	0	0	133681	683	0	correct_rejection	NA	0
44	Correct	159	483	159	9	0	0	134398	683	0	correct_rejection	NA	0
44	Correct	160	484	160	7	0	0	135114	684	0	correct_rejection	NA	0
44	Correct	161	485	161	8	0	0	135831	683	0	correct_rejection	NA	0
44	Correct	162	486	162	9	0	0	136548	683	0	correct_rejection	NA	0
44	Nonet	1	1	163	9	0	0	144797	684	0	correct_rejection	NA	6437
44	Nonet	2	2	164	8	0	0	145514	683	0	correct_rejection	NA	0
44	Nonet	3	3	165	7	0	0	146231	683	0	correct_rejection	NA	0
44	Nonet	4	4	166	9	0	0	146947	684	0	correct_rejection	NA	0
44	Nonet	5	5	167	8	0	0	147664	683	0	correct_rejection	NA	0
44	Nonet	6	6	168	7	0	0	148381	683	0	correct_rejection	NA	0
44	Nonet	7	7	169	9	0	0	149097	684	0	correct_rejection	NA	0
44	Nonet	8	8	170	8	0	0	149814	683	0	correct_rejection	NA	0
44	Nonet	9	9	171	7	0	0	150531	683	0	correct_rejection	NA	0
44	Nonet	10	10	172	6	0	0	151247	684	0	correct_rejection	NA	0
44	Nonet	11	11	173	5	0	0	151964	683	0	correct_rejection	NA	0
44	Nonet	12	12	174	4	0	0	152681	683	0	correct_rejection	NA	0
44	Nonet	13	13	175	6	0	0	153397	684	0	correct_rejection	NA	0
44	Nonet	14	14	176	5	0	0	154114	683	0	correct_rejection	NA	0
44	Nonet	15	15	177	4	0	0	154831	683	0	correct_rejection	NA	0
44	Nonet	16	16	178	6	0	0	155547	684	0	correct_rejection	NA	0
44	Nonet	17	17	179	0	1	1	156264	683	1	hit	589	0
44	Nonet	18	18	180	5	0	0	156981	683	0	correct_rejection	NA	0
44	Nonet	19	19	181	4	0	0	157697	684	0	correct_rejection	NA	0
44	Nonet	20	20	182	6	0	0	158414	683	0	correct_rejection	NA	0
44	Nonet	21	21	183	5	0	0	159131	683	0	correct_rejection	NA	0
44	Nonet	22	22	184	0	1	1	159847	684	1	hit	532	0
44	Nonet	23	23	185	4	0	0	160564	683	0	correct_rejection	NA	0
44	Nonet	24	24	186	6	0	0	161281	683	0	correct_rejection	NA	0
44	Nonet	25	25	187	5	0	0	161997	684	0	correct_rejection	NA	0
44	Nonet	26	26	188	4	0	0	162714	683	0	correct_rejection	NA	0
44	Nonet	27	27	189	6	0	0	163431	683	0	correct_rejection	NA	0
44	Nonet	28	28	190	5	0	0	164147	684	0	correct_rejection	NA	0
44	Nonet	29	29	191	4	0	0	164864	683	0	correct_rejection	NA	0
44	Nonet	30	30	192	9	0	0	165581	683	0	correct_rejection	NA	0
44	Nonet	31	31	193	8	0	0	166297	684	0	correct_rejection	NA	0
44	Nonet	32	32	194	0	1	1	167014	683	1	hit	461	0
44	Nonet	33	33	195	7	0	0	167730	684	0	correct_rejection	NA	0
44	Nonet	34	34	196	9	0	0	168447	683	0	correct_rejection	NA	0
44	Nonet	35	35	197	8	0	0	169164	683	0	correct_rejection	NA	0
44	Nonet	36	36	198	7	0	0	169880	684	0	correct_rejection	NA	0
44	Nonet	37	37	199	9	0	0	170597	683	0	correct_rejection	NA	0
44	Nonet	38	38	200	8	0	0	171314	683	0	correct_rejection	NA	0
44	Nonet	39	39	201	7	0	0	172030	684	0	correct_rejection	NA	0
44	Nonet	40	40	202	4	0	0	172747	683	0	correct_rejection	NA	0
44	Nonet	41	41	203	5	0	0	173464	683	0	correct_rejection	NA	0
44	Nonet	42	42	204	6	0	0	174180	684	0	correct_rejection	NA	0
44	Nonet	43	43	205	0	1	2	174897	683	1	hit	479	0
44	Nonet	44	44	206	4	0	0	175614	683	0	correct_rejection	NA	0
44	Nonet	45	45	207	5	0	0	176330	684	0	correct_rejection	NA	0
44	Nonet	46	46	208	6	0	0	177047	683	0	correct_rejection	NA	0
44	Nonet	47	47	209	0	1	2	177764	683	1	hit	519	0
44	Nonet	48	48	210	4	0	0	178480	684	0	correct_rejection	NA	0
44	Nonet	49	49	211	5	0	0	179197	683	0	correct_rejection	NA	0
44	Nonet	50	50	212	6	0	0	179914	683	0	correct_rejection	NA	0
44	Nonet	51	51	213	4	0	0	180630	684	0	correct_rejection	NA	0
44	Nonet	52	52	214	5	0	0	181347	683	0	correct_rejection	NA	0
44	Nonet	53	53	215	0	1	1	182064	683	1	hit	497	0
44	Nonet	54	54	216	6	0	0	182780	684	0	correct_rejection	NA	0
44	Nonet	55	55	217	4	0	0	183497	683	0	correct_rejection	NA	0
44	Nonet	56	56	218	5	0	0	184214	683	0	correct_rejection	NA	0
44	Nonet	57	57	219	6	0	0	184930	684	0	correct_rejection	NA	0
44	Nonet	58	58	220	4	0	0	185647	683	0	correct_rejection	NA	0
44	Nonet	59	59	221	5	0	0	186364	683	0	correct_rejection	NA	0
44	Nonet	60	60	222	6	0	0	187080	684	0	correct_rejection	NA	0
44	Nonet	61	61	223	7	0	0	187797	683	0	correct_rejection	NA	0
44	Nonet	62	62	224	8	0	0	188514	683	0	correct_rejection	NA	0
44	Nonet	63	63	225	9	0	0	189230	684	0	correct_rejection	NA	0
44	Nonet	64	64	226	7	0	0	189947	683	0	correct_rejection	NA	0
44	Nonet	65	65	227	8	0	0	190664	683	0	correct_rejection	NA	0
44	Nonet	66	66	228	0	1	1	191380	684	1	hit	473	0
44	Nonet	67	67	229	9	0	0	192097	683	0	correct_rejection	NA	0
44	Nonet	68	68	230	7	0	0	192813	684	0	correct_rejection	NA	0
44	Nonet	69	69	231	8	0	0	193530	683	0	correct_rejection	NA	0
44	Nonet	70	70	232	9	0	0	194247	683	0	correct_rejection	NA	0
44	Nonet	71	71	233	4	0	0	194963	684	0	correct_rejection	NA	0
44	Nonet	72	72	234	5	0	0	195680	683	0	correct_rejection	NA	0
44	Nonet	73	73	235	6	0	0	196397	683	0	correct_rejection	NA	0
44	Nonet	74	74	236	4	0	0	197113	684	0	correct_rejection	NA	0
44	Nonet	75	75	237	5	0	0	197830	683	0	correct_rejection	NA	0
44	Nonet	76	76	238	6	0	0	198547	683	0	correct_rejection	NA	0
44	Nonet	77	77	239	4	0	0	199263	684	0	correct_rejection	NA	0
44	Nonet	78	78	240	5	0	0	199980	683	0	correct_rejection	NA	0
44	Nonet	79	79	241	6	0	0	200697	683	0	correct_rejection	NA	0
44	Nonet	80	80	242	9	0	0	201413	684	0	correct_rejection	NA	0
44	Nonet	81	81	243	8	0	0	202130	683	0	correct_rejection	NA	0
44	Nonet	82	82	244	0	1	1	202847	683	1	hit	400	0
44	Nonet	83	83	245	7	0	0	203563	684	0	correct_rejection	NA	0
44	Nonet	84	84	246	9	0	0	204280	683	0	correct_rejection	NA	0
44	Nonet	85	85	247	8	0	0	204997	683	0	correct_rejection	NA	0
44	Nonet	86	86	248	0	1	1	205713	684	1	hit	553	0
44	Nonet	87	87	249	7	0	0	206430	683	0	correct_rejection	NA	0
44	Nonet	88	88	250	9	0	0	207147	683	0	correct_rejection	NA	0
44	Nonet	89	89	251	8	0	0	207863	684	0	correct_rejection	NA	0
44	Nonet	90	90	252	7	0	0	208580	683	0	correct_rejection	NA	0
44	Nonet	91	91	253	0	1	3	209297	683	1	hit	480	0
44	Nonet	92	92	254	9	0	0	210013	684	0	correct_rejection	NA	0
44	Nonet	93	93	255	8	0	0	210730	683	0	correct_rejection	NA	0
44	Nonet	94	94	256	7	0	0	211447	683	0	correct_rejection	NA	0
44	Nonet	95	95	257	9	0	0	212163	684	0	correct_rejection	NA	0
44	Nonet	96	96	258	8	0	0	212880	683	0	correct_rejection	NA	0
44	Nonet	97	97	259	7	0	0	213597	683	0	correct_rejection	NA	0
44	Nonet	98	98	260	9	0	0	214313	684	0	correct_rejection	NA	0
44	Nonet	99	99	261	8	0	0	215030	683	0	correct_rejection	NA	0
44	Nonet	100	100	262	7	0	0	215746	684	0	correct_rejection	NA	0
44	Nonet	101	101	263	7	0	0	216463	683	0	correct_rejection	NA	0
44	Nonet	102	102	264	0	1	1	217180	683	1	hit	478	0
44	Nonet	103	103	265	8	0	0	217896	684	0	correct_rejection	NA	0
44	Nonet	104	104	266	9	0	0	218613	683	0	correct_rejection	NA	0
44	Nonet	105	105	267	7	0	0	219330	683	0	correct_rejection	NA	0
44	Nonet	106	106	268	8	0	0	220046	684	0	correct_rejection	NA	0
44	Nonet	107	107	269	9	0	0	220763	683	0	correct_rejection	NA	0
44	Nonet	108	108	270	7	0	0	221480	683	0	correct_rejection	NA	0
44	Nonet	109	109	271	8	0	0	222196	684	0	correct_rejection	NA	0
44	Nonet	110	110	272	9	0	0	222913	683	0	correct_rejection	NA	0
44	Nonet	111	111	273	6	0	0	223630	683	0	correct_rejection	NA	0
44	Nonet	112	112	274	5	0	0	224346	684	0	correct_rejection	NA	0
44	Nonet	113	113	275	0	1	1	225063	683	1	hit	498	0
44	Nonet	114	114	276	4	0	0	225780	683	0	correct_rejection	NA	0
44	Nonet	115	115	277	6	0	0	226496	684	0	correct_rejection	NA	0
44	Nonet	116	116	278	5	0	0	227213	683	0	correct_rejection	NA	0
44	Nonet	117	117	279	4	0	0	227930	683	0	correct_rejection	NA	0
44	Nonet	118	118	280	0	1	2	228646	684	1	hit	446	0
44	Nonet	119	119	281	6	0	0	229363	683	0	correct_rejection	NA	0
44	Nonet	120	120	282	5	0	0	230080	683	0	correct_rejection	NA	0
44	Nonet	121	121	283	4	0	0	230796	684	0	correct_rejection	NA	0
44	Nonet	122	122	284	4	0	0	231513	683	0	correct_rejection	NA	0
44	Nonet	123	123	285	5	0	0	232230	683	0	correct_rejection	NA	0
44	Nonet	124	124	286	6	0	0	232946	684	0	correct_rejection	NA	0
44	Nonet	125	125	287	4	0	0	233663	683	0	correct_rejection	NA	0
44	Nonet	126	126	288	5	0	0	234380	683	0	correct_rejection	NA	0
44	Nonet	127	127	289	0	1	1	235096	684	1	hit	453	0
44	Nonet	128	128	290	6	0	0	235813	683	0	correct_rejection	NA	0
44	Nonet	129	129	291	4	0	0	236530	683	0	correct_rejection	NA	0
44	Nonet	130	130	292	0	1	1	237246	684	1	hit	484	0
44	Nonet	131	131	293	5	0	0	237963	683	0	correct_rejection	NA	0
44	Nonet	132	132	294	6	0	0	238679	684	0	correct_rejection	NA	0
44	Nonet	133	133	295	6	0	0	239396	684	0	correct_rejection	NA	0
44	Nonet	134	134	296	5	0	0	240113	683	0	correct_rejection	NA	0
44	Nonet	135	135	297	4	0	0	240829	684	0	correct_rejection	NA	0
44	Nonet	136	136	298	6	0	0	241546	683	0	correct_rejection	NA	0
44	Nonet	137	137	299	5	0	0	242263	683	0	correct_rejection	NA	0
44	Nonet	138	138	300	4	0	0	242979	684	0	correct_rejection	NA	0
44	Nonet	139	139	301	6	0	0	243696	683	0	correct_rejection	NA	0
44	Nonet	140	140	302	5	0	0	244413	683	0	correct_rejection	NA	0
44	Nonet	141	141	303	4	0	0	245129	684	0	correct_rejection	NA	0
44	Nonet	142	142	304	7	0	0	245846	683	0	correct_rejection	NA	0
44	Nonet	143	143	305	8	0	0	246563	683	0	correct_rejection	NA	0
44	Nonet	144	144	306	0	1	1	247279	684	1	hit	475	0
44	Nonet	145	145	307	9	0	0	247996	683	0	correct_rejection	NA	0
44	Nonet	146	146	308	7	0	0	248713	683	0	correct_rejection	NA	0
44	Nonet	147	147	309	8	0	0	249429	684	0	correct_rejection	NA	0
44	Nonet	148	148	310	9	0	0	250146	683	0	correct_rejection	NA	0
44	Nonet	149	149	311	0	1	2	250863	683	1	hit	548	0
44	Nonet	150	150	312	7	0	0	251579	684	0	correct_rejection	NA	0
44	Nonet	151	151	313	8	0	0	252296	683	0	correct_rejection	NA	0
44	Nonet	152	152	314	9	0	0	253013	683	0	correct_rejection	NA	0
44	Nonet	153	153	315	7	0	0	253729	684	0	correct_rejection	NA	0
44	Nonet	154	154	316	8	0	0	254446	683	0	correct_rejection	NA	0
44	Nonet	155	155	317	9	0	0	255163	683	0	correct_rejection	NA	0
44	Nonet	156	156	318	7	0	0	255879	684	0	correct_rejection	NA	0
44	Nonet	157	157	319	8	0	0	256596	683	0	correct_rejection	NA	0
44	Nonet	158	158	320	9	0	0	257313	683	0	correct_rejection	NA	0
44	Nonet	159	159	321	0	1	2	258029	684	1	hit	473	0
44	Nonet	160	160	322	7	0	0	258746	683	0	correct_rejection	NA	0
44	Nonet	161	161	323	8	0	0	259463	683	0	correct_rejection	NA	0
44	Nonet	162	162	324	9	0	0	260179	684	0	correct_rejection	NA	0
44	Single	1	487	325	7	0	0	269512	684	0	correct_rejection	NA	7157
44	Single	2	488	326	4	0	0	270229	683	0	correct_rejection	NA	0
44	Single	3	489	327	5	0	0	270946	683	0	correct_rejection	NA	0
44	Single	4	490	328	0	1	1	271662	684	1	hit	443	0
44	Single	5	491	329	5	0	0	272379	683	0	correct_rejection	NA	0
44	Single	6	492	330	7	0	0	273096	683	0	correct_rejection	NA	0
44	Single	7	493	331	6	0	0	273812	684	0	correct_rejection	NA	0
44	Single	8	494	332	4	0	0	274529	683	0	correct_rejection	NA	0
44	Single	9	495	333	9	0	0	275246	683	0	correct_rejection	NA	0
44	Single	10	496	334	0	1	1	275962	684	1	hit	554	0
44	Single	11	497	335	5	0	0	276679	683	0	correct_rejection	NA	0
44	Single	12	498	336	9	0	0	277396	683	0	correct_rejection	NA	0
44	Single	13	499	337	0	1	1	278112	684	1	hit	650	0
44	Single	14	500	338	4	0	0	278829	683	0	correct_rejection	NA	0
44	Single	15	501	339	8	0	0	279546	683	0	correct_rejection	NA	0
44	Single	16	502	340	5	0	0	280262	684	0	correct_rejection	NA	0
44	Single	17	503	341	8	0	0	280979	683	0	correct_rejection	NA	0
44	Single	18	504	342	4	0	0	281696	683	0	correct_rejection	NA	0
44	Single	19	505	343	7	0	0	282412	684	0	correct_rejection	NA	0
44	Single	20	506	344	8	0	0	283129	683	0	correct_rejection	NA	0
44	Single	21	507	345	6	0	0	283846	683	0	correct_rejection	NA	0
44	Single	22	508	346	8	0	0	284562	684	0	correct_rejection	NA	0
44	Single	23	509	347	9	0	0	285279	683	0	correct_rejection	NA	0
44	Single	24	510	348	7	0	0	285996	683	0	correct_rejection	NA	0
44	Single	25	511	349	0	1	1	286712	684	1	hit	482	0
44	Single	26	512	350	5	0	0	287429	683	0	correct_rejection	NA	0
44	Single	27	513	351	6	0	0	288145	684	0	correct_rejection	NA	0
44	Single	28	514	352	9	0	0	288862	683	0	correct_rejection	NA	0
44	Single	29	515	353	6	0	0	289579	683	0	correct_rejection	NA	0
44	Single	30	516	354	6	0	0	290295	684	0	correct_rejection	NA	0
44	Single	31	517	355	5	0	0	291012	683	0	correct_rejection	NA	0
44	Single	32	518	356	4	0	0	291729	683	0	correct_rejection	NA	0
44	Single	33	519	357	4	0	0	292445	684	0	correct_rejection	NA	0
44	Single	34	520	358	0	1	1	293162	683	1	hit	459	0
44	Single	35	521	359	6	0	0	293879	683	0	correct_rejection	NA	0
44	Single	36	522	360	7	0	0	294595	684	0	correct_rejection	NA	0
44	Single	37	523	361	7	0	0	295312	683	0	correct_rejection	NA	0
44	Single	38	524	362	9	0	0	296029	683	0	correct_rejection	NA	0
44	Single	39	525	363	9	0	0	296745	684	0	correct_rejection	NA	0
44	Single	40	526	364	8	0	0	297462	683	0	correct_rejection	NA	0
44	Single	41	527	365	8	0	0	298179	683	0	correct_rejection	NA	0
44	Single	42	528	366	5	0	0	298895	684	0	correct_rejection	NA	0
44	Single	43	529	367	9	0	0	299612	683	0	correct_rejection	NA	0
44	Single	44	530	368	9	0	0	300329	683	0	correct_rejection	NA	0
44	Single	45	531	369	7	0	0	301045	684	0	correct_rejection	NA	0
44	Single	46	532	370	0	1	1	301762	683	1	hit	513	0
44	Single	47	533	371	9	0	0	302479	683	0	correct_rejection	NA	0
44	Single	48	534	372	5	0	0	303195	684	0	correct_rejection	NA	0
44	Single	49	535	373	5	0	0	303912	683	0	correct_rejection	NA	0
44	Single	50	536	374	0	1	1	304629	683	1	hit	509	0
44	Single	51	537	375	8	0	0	305345	684	0	correct_rejection	NA	0
44	Single	52	538	376	7	0	0	306062	683	0	correct_rejection	NA	0
44	Single	53	539	377	5	0	0	306779	683	0	correct_rejection	NA	0
44	Single	54	540	378	4	0	0	307495	684	0	correct_rejection	NA	0
44	Single	55	541	379	5	0	0	308212	683	0	correct_rejection	NA	0
44	Single	56	542	380	7	0	0	308929	683	0	correct_rejection	NA	0
44	Single	57	543	381	7	0	0	309645	684	0	correct_rejection	NA	0
44	Single	58	544	382	4	0	0	310362	683	0	correct_rejection	NA	0
44	Single	59	545	383	9	0	0	311078	684	0	correct_rejection	NA	0
44	Single	60	546	384	6	0	0	311795	684	0	correct_rejection	NA	0
44	Single	61	547	385	7	0	0	312512	683	0	correct_rejection	NA	0
44	Single	62	548	386	8	0	0	313228	684	0	correct_rejection	NA	0
44	Single	63	549	387	4	0	0	313945	683	0	correct_rejection	NA	0
44	Single	64	550	388	6	0	0	314662	683	0	correct_rejection	NA	0
44	Single	65	551	389	5	0	0	315378	684	0	correct_rejection	NA	0
44	Single	66	552	390	6	0	0	316095	683	0	correct_rejection	NA	0
44	Single	67	553	391	6	0	0	316812	683	0	correct_rejection	NA	0
44	Single	68	554	392	9	0	0	317528	684	0	correct_rejection	NA	0
44	Single	69	555	393	8	0	0	318245	683	0	correct_rejection	NA	0
44	Single	70	556	394	9	0	0	318962	683	0	correct_rejection	NA	0
44	Single	71	557	395	4	0	0	319678	684	0	correct_rejection	NA	0
44	Single	72	558	396	4	0	0	320395	683	0	correct_rejection	NA	0
44	Single	73	559	397	8	0	0	321112	683	0	correct_rejection	NA	0
44	Single	74	560	398	6	0	0	321828	684	0	correct_rejection	NA	0
44	Single	75	561	399	4	0	0	322545	683	0	correct_rejection	NA	0
44	Single	76	562	400	7	0	0	323262	683	0	correct_rejection	NA	0
44	Single	77	563	401	6	0	0	323978	684	0	correct_rejection	NA	0
44	Single	78	564	402	8	0	0	324695	683	0	correct_rejection	NA	0
44	Single	79	565	403	8	0	0	325412	683	0	correct_rejection	NA	0
44	Single	80	566	404	4	0	0	326128	684	0	correct_rejection	NA	0
44	Single	81	567	405	7	0	0	326845	683	0	correct_rejection	NA	0
44	Single	82	568	406	5	0	0	327562	683	0	correct_rejection	NA	0
44	Single	83	569	407	5	0	0	328278	684	0	correct_rejection	NA	0
44	Single	84	570	408	4	0	0	328995	683	0	correct_rejection	NA	0
44	Single	85	571	409	0	1	1	329712	683	1	hit	656	0
44	Single	86	572	410	8	0	0	330428	684	0	correct_rejection	NA	0
44	Single	87	573	411	9	0	0	331145	683	0	correct_rejection	NA	0
44	Single	88	574	412	0	1	1	331862	683	1	hit	584	0
44	Single	89	575	413	6	0	0	332578	684	0	correct_rejection	NA	0
44	Single	90	576	414	9	0	0	333295	683	0	correct_rejection	NA	0
44	Single	91	577	415	9	0	0	334012	683	0	correct_rejection	NA	0
44	Single	92	578	416	5	0	0	334728	684	0	correct_rejection	NA	0
44	Single	93	579	417	8	0	0	335445	683	0	correct_rejection	NA	0
44	Single	94	580	418	5	0	0	336161	684	0	correct_rejection	NA	0
44	Single	95	581	419	6	0	0	336878	683	0	correct_rejection	NA	0
44	Single	96	582	420	7	0	0	337595	683	0	correct_rejection	NA	0
44	Single	97	583	421	9	0	0	338311	684	0	correct_rejection	NA	0
44	Single	98	584	422	4	0	0	339028	683	0	correct_rejection	NA	0
44	Single	99	585	423	6	0	0	339745	683	0	correct_rejection	NA	0
44	Single	100	586	424	8	0	0	340461	684	0	correct_rejection	NA	0
44	Single	101	587	425	0	1	1	341178	683	1	hit	435	0
44	Single	102	588	426	4	0	0	341895	683	0	correct_rejection	NA	0
44	Single	103	589	427	5	0	0	342611	684	0	correct_rejection	NA	0
44	Single	104	590	428	9	0	0	343328	683	0	correct_rejection	NA	0
44	Single	105	591	429	8	0	0	344045	683	0	correct_rejection	NA	0
44	Single	106	592	430	7	0	0	344761	684	0	correct_rejection	NA	0
44	Single	107	593	431	0	1	1	345478	683	1	hit	523	0
44	Single	108	594	432	6	0	0	346195	683	0	correct_rejection	NA	0
44	Single	109	595	433	6	0	0	346911	684	0	correct_rejection	NA	0
44	Single	110	596	434	4	0	0	347628	683	0	correct_rejection	NA	0
44	Single	111	597	435	0	1	1	348345	683	1	hit	541	0
44	Single	112	598	436	4	0	0	349061	684	0	correct_rejection	NA	0
44	Single	113	599	437	9	0	0	349778	683	0	correct_rejection	NA	0
44	Single	114	600	438	7	0	0	350495	683	0	correct_rejection	NA	0
44	Single	115	601	439	7	0	0	351211	684	0	correct_rejection	NA	0
44	Single	116	602	440	0	1	1	351928	683	1	hit	508	0
44	Single	117	603	441	8	0	0	352645	683	0	correct_rejection	NA	0
44	Single	118	604	442	8	0	0	353361	684	0	correct_rejection	NA	0
44	Single	119	605	443	6	0	0	354078	683	0	correct_rejection	NA	0
44	Single	120	606	444	5	0	0	354795	683	0	correct_rejection	NA	0
44	Single	121	607	445	7	0	0	355511	684	0	correct_rejection	NA	0
44	Single	122	608	446	0	1	1	356228	683	1	hit	480	0
44	Single	123	609	447	7	0	0	356945	683	0	correct_rejection	NA	0
44	Single	124	610	448	8	0	0	357661	684	0	correct_rejection	NA	0
44	Single	125	611	449	5	0	0	358378	683	0	correct_rejection	NA	0
44	Single	126	612	450	0	1	1	359094	684	1	hit	505	0
44	Single	127	613	451	7	0	0	359811	683	0	correct_rejection	NA	0
44	Single	128	614	452	6	0	0	360528	683	0	correct_rejection	NA	0
44	Single	129	615	453	4	0	0	361244	684	0	correct_rejection	NA	0
44	Single	130	616	454	5	0	0	361961	683	0	correct_rejection	NA	0
44	Single	131	617	455	5	0	0	362678	683	0	correct_rejection	NA	0
44	Single	132	618	456	6	0	0	363394	684	0	correct_rejection	NA	0
44	Single	133	619	457	8	0	0	364111	683	0	correct_rejection	NA	0
44	Single	134	620	458	0	1	1	364828	683	1	hit	485	0
44	Single	135	621	459	6	0	0	365544	684	0	correct_rejection	NA	0
44	Single	136	622	460	9	0	0	366261	683	0	correct_rejection	NA	0
44	Single	137	623	461	4	0	0	366978	683	0	correct_rejection	NA	0
44	Single	138	624	462	8	0	0	367694	684	0	correct_rejection	NA	0
44	Single	139	625	463	7	0	0	368411	683	0	correct_rejection	NA	0
44	Single	140	626	464	0	1	1	369128	683	1	hit	574	0
44	Single	141	627	465	4	0	0	369844	684	0	correct_rejection	NA	0
44	Single	142	628	466	6	0	0	370561	683	0	correct_rejection	NA	0
44	Single	143	629	467	6	0	0	371278	683	0	correct_rejection	NA	0
44	Single	144	630	468	7	0	0	371994	684	0	correct_rejection	NA	0
44	Single	145	631	469	5	0	0	372711	683	0	correct_rejection	NA	0
44	Single	146	632	470	8	0	0	373428	683	0	correct_rejection	NA	0
44	Single	147	633	471	9	0	0	374144	684	0	correct_rejection	NA	0
44	Single	148	634	472	8	0	0	374861	683	0	correct_rejection	NA	0
44	Single	149	635	473	8	0	0	375578	683	0	correct_rejection	NA	0
44	Single	150	636	474	4	0	0	376294	684	0	correct_rejection	NA	0
44	Single	151	637	475	9	0	0	377011	683	0	correct_rejection	NA	0
44	Single	152	638	476	5	0	0	377728	683	0	correct_rejection	NA	0
44	Single	153	639	477	4	0	0	378444	684	0	correct_rejection	NA	0
44	Single	154	640	478	4	0	0	379161	683	0	correct_rejection	NA	0
44	Single	155	641	479	7	0	0	379878	683	0	correct_rejection	NA	0
44	Single	156	642	480	9	0	0	380594	684	0	correct_rejection	NA	0
44	Single	157	643	481	9	0	0	381311	683	0	correct_rejection	NA	0
44	Single	158	644	482	6	0	0	382028	683	0	correct_rejection	NA	0
44	Single	159	645	483	5	0	0	382744	684	0	correct_rejection	NA	0
44	Single	160	646	484	0	1	1	383461	683	1	hit	532	0
44	Single	161	647	485	9	0	0	384177	684	0	correct_rejection	NA	0
44	Single	162	648	486	7	0	0	384894	683	0	correct_rejection	NA	0
44	Correct	1	163	487	4	0	0	393844	683	0	correct_rejection	NA	6497
44	Correct	2	164	488	5	0	0	394561	683	0	correct_rejection	NA	0
44	Correct	3	165	489	6	0	0	395277	684	0	correct_rejection	NA	0
44	Correct	4	166	490	4	0	0	395994	683	0	correct_rejection	NA	0
44	Correct	5	167	491	5	0	0	396711	683	0	correct_rejection	NA	0
44	Correct	6	168	492	6	0	0	397427	684	0	correct_rejection	NA	0
44	Correct	7	169	493	4	0	0	398144	683	0	correct_rejection	NA	0
44	Correct	8	170	494	0	1	1	398861	683	1	hit	614	0
44	Correct	9	171	495	5	0	0	399577	684	0	correct_rejection	NA	0
44	Correct	10	172	496	6	0	0	400294	683	0	correct_rejection	NA	0
44	Correct	11	173	497	6	0	0	401011	683	0	correct_rejection	NA	0
44	Correct	12	174	498	5	0	0	401727	684	0	correct_rejection	NA	0
44	Correct	13	175	499	4	0	0	402444	683	0	correct_rejection	NA	0
44	Correct	14	176	500	0	1	2	403161	683	1	hit	541	0
44	Correct	15	177	501	6	0	0	403877	684	0	correct_rejection	NA	0
44	Correct	16	178	502	5	0	0	404594	683	0	correct_rejection	NA	0
44	Correct	17	179	503	4	0	0	405311	683	0	correct_rejection	NA	0
44	Correct	18	180	504	6	0	0	406027	684	0	correct_rejection	NA	0
44	Correct	19	181	505	5	0	0	406744	683	0	correct_rejection	NA	0
44	Correct	20	182	506	4	0	0	407460	684	0	correct_rejection	NA	0
44	Correct	21	183	507	0	1	3	408177	683	1	hit	494	0
44	Correct	22	184	508	9	0	0	408894	683	0	correct_rejection	NA	0
44	Correct	23	185	509	8	0	0	409610	684	0	correct_rejection	NA	0
44	Correct	24	186	510	7	0	0	410327	683	0	correct_rejection	NA	0
44	Correct	25	187	511	0	1	2	411044	683	1	hit	445	0
44	Correct	26	188	512	9	0	0	411760	684	0	correct_rejection	NA	0
44	Correct	27	189	513	8	0	0	412477	683	0	correct_rejection	NA	0
44	Correct	28	190	514	0	1	1	413194	683	1	hit	455	0
44	Correct	29	191	515	7	0	0	413910	684	0	correct_rejection	NA	0
44	Correct	30	192	516	9	0	0	414627	683	0	correct_rejection	NA	0
44	Correct	31	193	517	8	0	0	415344	683	0	correct_rejection	NA	0
44	Correct	32	194	518	7	0	0	416060	684	0	correct_rejection	NA	0
44	Correct	33	195	519	0	1	3	416777	683	1	hit	414	0
44	Correct	34	196	520	7	0	0	417494	683	0	correct_rejection	NA	0
44	Correct	35	197	521	8	0	0	418210	684	0	correct_rejection	NA	0
44	Correct	36	198	522	9	0	0	418927	683	0	correct_rejection	NA	0
44	Correct	37	199	523	7	0	0	419644	683	0	correct_rejection	NA	0
44	Correct	38	200	524	8	0	0	420360	684	0	correct_rejection	NA	0
44	Correct	39	201	525	9	0	0	421077	683	0	correct_rejection	NA	0
44	Correct	40	202	526	7	0	0	421794	683	0	correct_rejection	NA	0
44	Correct	41	203	527	8	0	0	422510	684	0	correct_rejection	NA	0
44	Correct	42	204	528	9	0	0	423227	683	0	correct_rejection	NA	0
44	Correct	43	205	529	4	0	0	423944	683	0	correct_rejection	NA	0
44	Correct	44	206	530	5	0	0	424660	684	0	correct_rejection	NA	0
44	Correct	45	207	531	6	0	0	425377	683	0	correct_rejection	NA	0
44	Correct	46	208	532	4	0	0	426094	683	0	correct_rejection	NA	0
44	Correct	47	209	533	5	0	0	426810	684	0	correct_rejection	NA	0
44	Correct	48	210	534	6	0	0	427527	683	0	correct_rejection	NA	0
44	Correct	49	211	535	4	0	0	428244	683	0	correct_rejection	NA	0
44	Correct	50	212	536	5	0	0	428960	684	0	correct_rejection	NA	0
44	Correct	51	213	537	6	0	0	429677	683	0	correct_rejection	NA	0
44	Correct	52	214	538	6	0	0	430393	684	0	correct_rejection	NA	0
44	Correct	53	215	539	5	0	0	431110	684	0	correct_rejection	NA	0
44	Correct	54	216	540	4	0	0	431827	683	0	correct_rejection	NA	0
44	Correct	55	217	541	6	0	0	432543	684	0	correct_rejection	NA	0
44	Correct	56	218	542	5	0	0	433260	683	0	correct_rejection	NA	0
44	Correct	57	219	543	4	0	0	433977	683	0	correct_rejection	NA	0
44	Correct	58	220	544	6	0	0	434693	684	0	correct_rejection	NA	0
44	Correct	59	221	545	5	0	0	435410	683	0	correct_rejection	NA	0
44	Correct	60	222	546	0	1	1	436127	683	1	hit	505	0
44	Correct	61	223	547	4	0	0	436843	684	0	correct_rejection	NA	0
44	Correct	62	224	548	9	0	0	437560	683	0	correct_rejection	NA	0
44	Correct	63	225	549	0	1	1	438277	683	0	miss	NA	0
44	Correct	64	226	550	8	0	0	438993	684	1	false_alarm	87	0
44	Correct	65	227	551	7	0	0	439710	683	0	correct_rejection	NA	0
44	Correct	66	228	552	9	0	0	440427	683	0	correct_rejection	NA	0
44	Correct	67	229	553	8	0	0	441143	684	0	correct_rejection	NA	0
44	Correct	68	230	554	7	0	0	441860	683	0	correct_rejection	NA	0
44	Correct	69	231	555	9	0	0	442577	683	0	correct_rejection	NA	0
44	Correct	70	232	556	8	0	0	443293	684	0	correct_rejection	NA	0
44	Correct	71	233	557	7	0	0	444010	683	0	correct_rejection	NA	0
44	Correct	72	234	558	7	0	0	444727	683	0	correct_rejection	NA	0
44	Correct	73	235	559	8	0	0	445443	684	0	correct_rejection	NA	0
44	Correct	74	236	560	0	1	1	446160	683	1	hit	470	0
44	Correct	75	237	561	9	0	0	446877	683	0	correct_rejection	NA	0
44	Correct	76	238	562	7	0	0	447593	684	0	correct_rejection	NA	0
44	Correct	77	239	563	0	1	1	448310	683	1	hit	467	0
44	Correct	78	240	564	8	0	0	449027	683	0	correct_rejection	NA	0
44	Correct	79	241	565	9	0	0	449743	684	0	correct_rejection	NA	0
44	Correct	80	242	566	7	0	0	450460	683	0	correct_rejection	NA	0
44	Correct	81	243	567	0	1	1	451177	683	1	hit	469	0
44	Correct	82	244	568	8	0	0	451893	684	0	correct_rejection	NA	0
44	Correct	83	245	569	9	0	0	452610	683	0	correct_rejection	NA	0
44	Correct	84	246	570	4	0	0	453327	683	0	correct_rejection	NA	0
44	Correct	85	247	571	5	0	0	454043	684	0	correct_rejection	NA	0
44	Correct	86	248	572	6	0	0	454760	683	0	correct_rejection	NA	0
44	Correct	87	249	573	0	1	2	455476	684	1	hit	444	0
44	Correct	88	250	574	4	0	0	456193	683	0	correct_rejection	NA	0
44	Correct	89	251	575	5	0	0	456910	683	0	correct_rejection	NA	0
44	Correct	90	252	576	6	0	0	457626	684	0	correct_rejection	NA	0
44	Correct	91	253	577	4	0	0	458343	683	0	correct_rejection	NA	0
44	Correct	92	254	578	5	0	0	459060	683	0	correct_rejection	NA	0
44	Correct	93	255	579	6	0	0	459776	684	0	correct_rejection	NA	0
44	Correct	94	256	580	6	0	0	460493	683	0	correct_rejection	NA	0
44	Correct	95	257	581	0	1	1	461210	683	1	hit	475	0
44	Correct	96	258	582	5	0	0	461926	684	0	correct_rejection	NA	0
44	Correct	97	259	583	4	0	0	462643	683	0	correct_rejection	NA	0
44	Correct	98	260	584	6	0	0	463360	683	0	correct_rejection	NA	0
44	Correct	99	261	585	5	0	0	464076	684	0	correct_rejection	NA	0
44	Correct	100	262	586	4	0	0	464793	683	0	correct_rejection	NA	0
44	Correct	101	263	587	6	0	0	465510	683	0	correct_rejection	NA	0
44	Correct	102	264	588	5	0	0	466226	684	0	correct_rejection	NA	0
44	Correct	103	265	589	4	0	0	466943	683	0	correct_rejection	NA	0
44	Correct	104	266	590	9	0	0	467660	683	0	correct_rejection	NA	0
44	Correct	105	267	591	8	0	0	468376	684	0	correct_rejection	NA	0
44	Correct	106	268	592	7	0	0	469093	683	0	correct_rejection	NA	0
44	Correct	107	269	593	9	0	0	469810	683	0	correct_rejection	NA	0
44	Correct	108	270	594	8	0	0	470526	684	0	correct_rejection	NA	0
44	Correct	109	271	595	7	0	0	471243	683	0	correct_rejection	NA	0
44	Correct	110	272	596	9	0	0	471960	683	0	correct_rejection	NA	0
44	Correct	111	273	597	8	0	0	472676	684	0	correct_rejection	NA	0
44	Correct	112	274	598	7	0	0	473393	683	0	correct_rejection	NA	0
44	Correct	113	275	599	7	0	0	474110	683	0	correct_rejection	NA	0
44	Correct	114	276	600	8	0	0	474826	684	0	correct_rejection	NA	0
44	Correct	115	277	601	0	1	1	475543	683	1	hit	470	0
44	Correct	116	278	602	9	0	0	476260	683	0	correct_rejection	NA	0
44	Correct	117	279	603	7	0	0	476976	684	0	correct_rejection	NA	0
44	Correct	118	280	604	8	0	0	477693	683	0	correct_rejection	NA	0
44	Correct	119	281	605	9	0	0	478409	684	0	correct_rejection	NA	0
44	Correct	120	282	606	0	1	2	479126	684	1	hit	472	0
44	Correct	121	283	607	7	0	0	479843	683	0	correct_rejection	NA	0
44	Correct	122	284	608	8	0	0	480559	684	0	correct_rejection	NA	0
44	Correct	123	285	609	9	0	0	481276	683	0	correct_rejection	NA	0
44	Correct	124	286	610	4	0	0	481993	683	0	correct_rejection	NA	0
44	Correct	125	287	611	5	0	0	482709	684	0	correct_rejection	NA	0
44	Correct	126	288	612	0	1	1	483426	683	1	hit	572	0
44	Correct	127	289	613	6	0	0	484143	683	0	correct_rejection	NA	0
44	Correct	128	290	614	4	0	0	484859	684	0	correct_rejection	NA	0
44	Correct	129	291	615	5	0	0	485576	683	0	correct_rejection	NA	0
44	Correct	130	292	616	6	0	0	486293	683	0	correct_rejection	NA	0
44	Correct	131	293	617	4	0	0	487009	684	0	correct_rejection	NA	0
44	Correct	132	294	618	5	0	0	487726	683	0	correct_rejection	NA	0
44	Correct	133	295	619	6	0	0	488443	683	0	correct_rejection	NA	0
44	Correct	134	296	620	6	0	0	489159	684	0	correct_rejection	NA	0
44	Correct	135	297	621	5	0	0	489876	683	0	correct_rejection	NA	0
44	Correct	136	298	622	4	0	0	490593	683	0	correct_rejection	NA	0
44	Correct	137	299	623	6	0	0	491309	684	0	correct_rejection	NA	0
44	Correct	138	300	624	5	0	0	492026	683	0	correct_rejection	NA	0
44	Correct	139	301	625	4	0	0	492743	683	0	correct_rejection	NA	0
44	Correct	140	302	626	6	0	0	493459	684	0	correct_rejection	NA	0
44	Correct	141	303	627	5	0	0	494176	683	0	correct_rejection	NA	0
44	Correct	142	304	628	4	0	0	494893	683	0	correct_rejection	NA	0
44	Correct	143	305	629	9	0	0	495609	684	0	correct_rejection	NA	0
44	Correct	144	306	630	8	0	0	496326	683	0	correct_rejection	NA	0
44	Correct	145	307	631	7	0	0	497043	683	0	correct_rejection	NA	0
44	Correct	146	308	632	9	0	0	497759	684	0	correct_rejection	NA	0
44	Correct	147	309	633	8	0	0	498476	683	0	correct_rejection	NA	0
44	Correct	148	310	634	0	1	1	499193	683	1	hit	484	0
44	Correct	149	311	635	7	0	0	499909	684	0	correct_rejection	NA	0
44	Correct	150	312	636	9	0	0	500626	683	0	correct_rejection	NA	0
44	Correct	151	313	637	8	0	0	501343	683	0	correct_rejection	NA	0
44	Correct	152	314	638	7	0	0	502059	684	0	correct_rejection	NA	0
44	Correct	153	315	639	7	0	0	502776	683	0	correct_rejection	NA	0
44	Correct	154	316	640	0	1	1	503492	684	1	hit	455	0
44	Correct	155	317	641	8	0	0	504209	683	0	correct_rejection	NA	0
44	Correct	156	318	642	9	0	0	504926	683	0	correct_rejection	NA	0
44	Correct	157	319	643	7	0	0	505642	684	0	correct_rejection	NA	0
44	Correct	158	320	644	8	0	0	506359	683	0	correct_rejection	NA	0
44	Correct	159	321	645	9	0	0	507076	683	0	correct_rejection	NA	0
44	Correct	160	322	646	7	0	0	507792	684	0	correct_rejection	NA	0
44	Correct	161	323	647	8	0	0	508509	683	0	correct_rejection	NA	0
44	Correct	162	324	648	9	0	0	509226	683	0	correct_rejection	NA	0
44	Triplet	1	1	649	9	0	0	519192	684	0	correct_rejection	NA	7837
44	Triplet	2	2	650	8	0	0	519909	683	0	correct_rejection	NA	0
44	Triplet	3	3	651	7	0	0	520626	683	0	correct_rejection	NA	0
44	Triplet	4	4	652	6	0	0	521342	684	0	correct_rejection	NA	0
44	Triplet	5	5	653	5	0	0	522059	683	0	correct_rejection	NA	0
44	Triplet	6	6	654	4	0	0	522776	683	0	correct_rejection	NA	0
44	Triplet	7	7	655	7	0	0	523492	684	0	correct_rejection	NA	0
44	Triplet	8	8	656	8	0	0	524209	683	0	correct_rejection	NA	0
44	Triplet	9	9	657	9	0	0	524926	683	0	correct_rejection	NA	0
44	Triplet	10	10	658	7	0	0	525642	684	0	correct_rejection	NA	0
44	Triplet	11	11	659	8	0	0	526359	683	0	correct_rejection	NA	0
44	Triplet	12	12	660	9	0	0	527075	684	0	correct_rejection	NA	0
44	Triplet	13	13	661	0	1	2	527792	683	1	hit	462	0
44	Triplet	14	14	662	4	0	0	528509	683	0	correct_rejection	NA	0
44	Triplet	15	15	663	5	0	0	529225	684	0	correct_rejection	NA	0
44	Triplet	16	16	664	0	1	1	529942	683	1	hit	478	0
44	Triplet	17	17	665	6	0	0	530659	683	0	correct_rejection	NA	0
44	Triplet	18	18	666	6	0	0	531375	684	0	correct_rejection	NA	0
44	Triplet	19	19	667	0	1	1	532092	683	1	hit	460	0
44	Triplet	20	20	668	5	0	0	532809	683	0	correct_rejection	NA	0
44	Triplet	21	21	669	4	0	0	533525	684	0	correct_rejection	NA	0
44	Triplet	22	22	670	4	0	0	534242	683	0	correct_rejection	NA	0
44	Triplet	23	23	671	5	0	0	534959	683	0	correct_rejection	NA	0
44	Triplet	24	24	672	6	0	0	535675	684	0	correct_rejection	NA	0
44	Triplet	25	25	673	0	1	2	536392	683	1	hit	443	0
44	Triplet	26	26	674	7	0	0	537109	683	0	correct_rejection	NA	0
44	Triplet	27	27	675	8	0	0	537825	684	0	correct_rejection	NA	0
44	Triplet	28	28	676	9	0	0	538542	683	0	correct_rejection	NA	0
44	Triplet	29	29	677	9	0	0	539259	683	0	correct_rejection	NA	0
44	Triplet	30	30	678	8	0	0	539975	684	0	correct_rejection	NA	0
44	Triplet	31	31	679	7	0	0	540692	683	0	correct_rejection	NA	0
44	Triplet	32	32	680	7	0	0	541409	683	0	correct_rejection	NA	0
44	Triplet	33	33	681	8	0	0	542125	684	0	correct_rejection	NA	0
44	Triplet	34	34	682	9	0	0	542842	683	0	correct_rejection	NA	0
44	Triplet	35	35	683	6	0	0	543559	683	0	correct_rejection	NA	0
44	Triplet	36	36	684	5	0	0	544275	684	0	correct_rejection	NA	0
44	Triplet	37	37	685	4	0	0	544992	683	0	correct_rejection	NA	0
44	Triplet	38	38	686	6	0	0	545709	683	0	correct_rejection	NA	0
44	Triplet	39	39	687	5	0	0	546425	684	0	correct_rejection	NA	0
44	Triplet	40	40	688	4	0	0	547142	683	0	correct_rejection	NA	0
44	Triplet	41	41	689	9	0	0	547859	683	0	correct_rejection	NA	0
44	Triplet	42	42	690	8	0	0	548575	684	0	correct_rejection	NA	0
44	Triplet	43	43	691	7	0	0	549292	683	0	correct_rejection	NA	0
44	Triplet	44	44	692	9	0	0	550008	684	0	correct_rejection	NA	0
44	Triplet	45	45	693	8	0	0	550725	683	0	correct_rejection	NA	0
44	Triplet	46	46	694	7	0	0	551442	683	0	correct_rejection	NA	0
44	Triplet	47	47	695	0	1	2	552158	684	1	hit	531	0
44	Triplet	48	48	696	4	0	0	552875	683	0	correct_rejection	NA	0
44	Triplet	49	49	697	5	0	0	553592	683	0	correct_rejection	NA	0
44	Triplet	50	50	698	0	1	1	554308	684	1	hit	567	0
44	Triplet	51	51	699	6	0	0	555025	683	0	correct_rejection	NA	0
44	Triplet	52	52	700	4	0	0	555742	683	0	correct_rejection	NA	0
44	Triplet	53	53	701	5	0	0	556458	684	0	correct_rejection	NA	0
44	Triplet	54	54	702	6	0	0	557175	683	0	correct_rejection	NA	0
44	Triplet	55	55	703	9	0	0	557892	683	0	correct_rejection	NA	0
44	Triplet	56	56	704	8	0	0	558608	684	0	correct_rejection	NA	0
44	Triplet	57	57	705	7	0	0	559325	683	0	correct_rejection	NA	0
44	Triplet	58	58	706	4	0	0	560042	683	0	correct_rejection	NA	0
44	Triplet	59	59	707	5	0	0	560758	684	0	correct_rejection	NA	0
44	Triplet	60	60	708	6	0	0	561475	683	0	correct_rejection	NA	0
44	Triplet	61	61	709	0	1	2	562192	683	1	hit	421	0
44	Triplet	62	62	710	6	0	0	562908	684	0	correct_rejection	NA	0
44	Triplet	63	63	711	5	0	0	563625	683	0	correct_rejection	NA	0
44	Triplet	64	64	712	0	1	1	564342	683	1	hit	463	0
44	Triplet	65	65	713	4	0	0	565058	684	0	correct_rejection	NA	0
44	Triplet	66	66	714	6	0	0	565775	683	0	correct_rejection	NA	0
44	Triplet	67	67	715	5	0	0	566492	683	0	correct_rejection	NA	0
44	Triplet	68	68	716	4	0	0	567208	684	0	correct_rejection	NA	0
44	Triplet	69	69	717	0	1	2	567925	683	1	hit	504	0
44	Triplet	70	70	718	7	0	0	568642	683	0	correct_rejection	NA	0
44	Triplet	71	71	719	8	0	0	569358	684	0	correct_rejection	NA	0
44	Triplet	72	72	720	0	1	1	570075	683	1	hit	541	0
44	Triplet	73	73	721	9	0	0	570792	683	0	correct_rejection	NA	0
44	Triplet	74	74	722	4	0	0	571508	684	0	correct_rejection	NA	0
44	Triplet	75	75	723	0	1	1	572225	683	1	hit	476	0
44	Triplet	76	76	724	5	0	0	572942	683	0	correct_rejection	NA	0
44	Triplet	77	77	725	6	0	0	573658	684	0	correct_rejection	NA	0
44	Triplet	78	78	726	9	0	0	574375	683	0	correct_rejection	NA	0
44	Triplet	79	79	727	8	0	0	575091	684	0	correct_rejection	NA	0
44	Triplet	80	80	728	7	0	0	575808	683	0	correct_rejection	NA	0
44	Triplet	81	81	729	7	0	0	576525	683	0	correct_rejection	NA	0
44	Triplet	82	82	730	8	0	0	577241	684	0	correct_rejection	NA	0
44	Triplet	83	83	731	9	0	0	577958	683	0	correct_rejection	NA	0
44	Triplet	84	84	732	0	1	2	578675	683	1	hit	517	0
44	Triplet	85	85	733	9	0	0	579391	684	0	correct_rejection	NA	0
44	Triplet	86	86	734	8	0	0	580108	683	0	correct_rejection	NA	0
44	Triplet	87	87	735	7	0	0	580825	683	0	correct_rejection	NA	0
44	Triplet	88	88	736	6	0	0	581541	684	0	correct_rejection	NA	0
44	Triplet	89	89	737	5	0	0	582258	683	0	correct_rejection	NA	0
44	Triplet	90	90	738	4	0	0	582975	683	0	correct_rejection	NA	0
44	Triplet	91	91	739	4	0	0	583691	684	0	correct_rejection	NA	0
44	Triplet	92	92	740	5	0	0	584408	683	0	correct_rejection	NA	0
44	Triplet	93	93	741	6	0	0	585125	683	0	correct_rejection	NA	0
44	Triplet	94	94	742	4	0	0	585841	684	0	correct_rejection	NA	0
44	Triplet	95	95	743	0	1	1	586558	683	1	hit	474	0
44	Triplet	96	96	744	5	0	0	587275	683	0	correct_rejection	NA	0
44	Triplet	97	97	745	6	0	0	587991	684	0	correct_rejection	NA	0
44	Triplet	98	98	746	7	0	0	588708	683	0	correct_rejection	NA	0
44	Triplet	99	99	747	8	0	0	589425	683	0	correct_rejection	NA	0
44	Triplet	100	100	748	9	0	0	590141	684	0	correct_rejection	NA	0
44	Triplet	101	101	749	7	0	0	590858	683	0	correct_rejection	NA	0
44	Triplet	102	102	750	8	0	0	591575	683	0	correct_rejection	NA	0
44	Triplet	103	103	751	9	0	0	592291	684	0	correct_rejection	NA	0
44	Triplet	104	104	752	6	0	0	593008	683	0	correct_rejection	NA	0
44	Triplet	105	105	753	5	0	0	593725	683	0	correct_rejection	NA	0
44	Triplet	106	106	754	4	0	0	594441	684	0	correct_rejection	NA	0
44	Triplet	107	107	755	9	0	0	595158	683	0	correct_rejection	NA	0
44	Triplet	108	108	756	8	0	0	595875	683	0	correct_rejection	NA	0
44	Triplet	109	109	757	0	1	1	596591	684	1	hit	568	0
44	Triplet	110	110	758	7	0	0	597308	683	0	correct_rejection	NA	0
44	Triplet	111	111	759	7	0	0	598024	684	0	correct_rejection	NA	0
44	Triplet	112	112	760	8	0	0	598741	683	0	correct_rejection	NA	0
44	Triplet	113	113	761	9	0	0	599458	683	0	correct_rejection	NA	0
44	Triplet	114	114	762	4	0	0	600174	684	0	correct_rejection	NA	0
44	Triplet	115	115	763	5	0	0	600891	683	0	correct_rejection	NA	0
44	Triplet	116	116	764	6	0	0	601608	683	0	correct_rejection	NA	0
44	Triplet	117	117	765	4	0	0	602324	684	0	correct_rejection	NA	0
44	Triplet	118	118	766	5	0	0	603041	683	0	correct_rejection	NA	0
44	Triplet	119	119	767	6	0	0	603758	683	0	correct_rejection	NA	0
44	Triplet	120	120	768	0	1	2	604474	684	1	hit	571	0
44	Triplet	121	121	769	9	0	0	605191	683	0	correct_rejection	NA	0
44	Triplet	122	122	770	8	0	0	605908	683	0	correct_rejection	NA	0
44	Triplet	123	123	771	7	0	0	606624	684	0	correct_rejection	NA	0
44	Triplet	124	124	772	4	0	0	607341	683	0	correct_rejection	NA	0
44	Triplet	125	125	773	5	0	0	608058	683	0	correct_rejection	NA	0
44	Triplet	126	126	774	6	0	0	608774	684	0	correct_rejection	NA	0
44	Triplet	127	127	775	7	0	0	609491	683	0	correct_rejection	NA	0
44	Triplet	128	128	776	8	0	0	610208	683	0	correct_rejection	NA	0
44	Triplet	129	129	777	0	1	1	610924	684	0	miss	NA	0
44	Triplet	130	130	778	9	0	0	611641	683	0	correct_rejection	NA	0
44	Triplet	131	131	779	6	0	0	612358	683	0	correct_rejection	NA	0
44	Triplet	132	132	780	5	0	0	613074	684	0	correct_rejection	NA	0
44	Triplet	133	133	781	4	0	0	613791	683	0	correct_rejection	NA	0
44	Triplet	134	134	782	0	1	2	614508	683	1	hit	436	0
44	Triplet	135	135	783	4	0	0	615224	684	0	correct_rejection	NA	0
44	Triplet	136	136	784	5	0	0	615941	683	0	correct_rejection	NA	0
44	Triplet	137	137	785	6	0	0	616658	683	0	correct_rejection	NA	0
44	Triplet	138	138	786	6	0	0	617374	684	0	correct_rejection	NA	0
44	Triplet	139	139	787	5	0	0	618091	683	0	correct_rejection	NA	0
44	Triplet	140	140	788	4	0	0	618808	683	0	correct_rejection	NA	0
44	Triplet	141	141	789	9	0	0	619524	684	0	correct_rejection	NA	0
44	Triplet	142	142	790	8	0	0	620241	683	0	correct_rejection	NA	0
44	Triplet	143	143	791	7	0	0	620958	683	0	correct_rejection	NA	0
44	Triplet	144	144	792	7	0	0	621674	684	0	correct_rejection	NA	0
44	Triplet	145	145	793	8	0	0	622391	683	0	correct_rejection	NA	0
44	Triplet	146	146	794	9	0	0	623107	684	0	correct_rejection	NA	0
44	Triplet	147	147	795	7	0	0	623824	683	0	correct_rejection	NA	0
44	Triplet	148	148	796	8	0	0	624541	683	0	correct_rejection	NA	0
44	Triplet	149	149	797	9	0	0	625257	684	0	correct_rejection	NA	0
44	Triplet	150	150	798	9	0	0	625974	683	0	correct_rejection	NA	0
44	Triplet	151	151	799	0	1	1	626691	683	1	hit	473	0
44	Triplet	152	152	800	8	0	0	627407	684	0	correct_rejection	NA	0
44	Triplet	153	153	801	7	0	0	628124	683	0	correct_rejection	NA	0
44	Triplet	154	154	802	9	0	0	628841	683	0	correct_rejection	NA	0
44	Triplet	155	155	803	8	0	0	629557	684	0	correct_rejection	NA	0
44	Triplet	156	156	804	7	0	0	630274	683	0	correct_rejection	NA	0
44	Triplet	157	157	805	6	0	0	630991	683	0	correct_rejection	NA	0
44	Triplet	158	158	806	5	0	0	631707	684	0	correct_rejection	NA	0
44	Triplet	159	159	807	4	0	0	632424	683	0	correct_rejection	NA	0
44	Triplet	160	160	808	6	0	0	633141	683	0	correct_rejection	NA	0
44	Triplet	161	161	809	5	0	0	633857	684	0	correct_rejection	NA	0
44	Triplet	162	162	810	4	0	0	634574	683	0	correct_rejection	NA	0
trigger nr 626 at 636277
trigger nr 631 at 710370
44	Single	1	325	811	9	0	0	718056	683	0	correct_rejection	NA	7617
44	Single	2	326	812	5	0	0	718773	683	0	correct_rejection	NA	0
44	Single	3	327	813	7	0	0	719489	684	0	correct_rejection	NA	0
44	Single	4	328	814	6	0	0	720206	683	0	correct_rejection	NA	0
44	Single	5	329	815	0	1	1	720923	683	1	hit	470	0
44	Single	6	330	816	9	0	0	721639	684	0	correct_rejection	NA	0
44	Single	7	331	817	4	0	0	722356	683	0	correct_rejection	NA	0
44	Single	8	332	818	4	0	0	723073	683	0	correct_rejection	NA	0
44	Single	9	333	819	7	0	0	723789	684	0	correct_rejection	NA	0
44	Single	10	334	820	8	0	0	724506	683	0	correct_rejection	NA	0
44	Single	11	335	821	5	0	0	725223	683	0	correct_rejection	NA	0
44	Single	12	336	822	9	0	0	725939	684	0	correct_rejection	NA	0
44	Single	13	337	823	0	1	1	726656	683	1	hit	482	0
44	Single	14	338	824	8	0	0	727373	683	0	correct_rejection	NA	0
44	Single	15	339	825	6	0	0	728089	684	0	correct_rejection	NA	0
44	Single	16	340	826	7	0	0	728806	683	0	correct_rejection	NA	0
44	Single	17	341	827	4	0	0	729523	683	0	correct_rejection	NA	0
44	Single	18	342	828	0	1	1	730239	684	1	hit	472	0
44	Single	19	343	829	5	0	0	730956	683	0	correct_rejection	NA	0
44	Single	20	344	830	8	0	0	731673	683	0	correct_rejection	NA	0
44	Single	21	345	831	8	0	0	732389	684	0	correct_rejection	NA	0
44	Single	22	346	832	9	0	0	733106	683	0	correct_rejection	NA	0
44	Single	23	347	833	7	0	0	733823	683	0	correct_rejection	NA	0
44	Single	24	348	834	5	0	0	734539	684	0	correct_rejection	NA	0
44	Single	25	349	835	5	0	0	735256	683	0	correct_rejection	NA	0
44	Single	26	350	836	4	0	0	735973	683	0	correct_rejection	NA	0
44	Single	27	351	837	9	0	0	736689	684	0	correct_rejection	NA	0
44	Single	28	352	838	9	0	0	737406	683	0	correct_rejection	NA	0
44	Single	29	353	839	6	0	0	738123	683	0	correct_rejection	NA	0
44	Single	30	354	840	8	0	0	738839	684	0	correct_rejection	NA	0
44	Single	31	355	841	4	0	0	739556	683	0	correct_rejection	NA	0
44	Single	32	356	842	6	0	0	740273	683	0	correct_rejection	NA	0
44	Single	33	357	843	0	1	1	740989	684	1	hit	512	0
44	Single	34	358	844	6	0	0	741706	683	0	correct_rejection	NA	0
44	Single	35	359	845	5	0	0	742422	684	0	correct_rejection	NA	0
44	Single	36	360	846	6	0	0	743139	683	0	correct_rejection	NA	0
44	Single	37	361	847	4	0	0	743856	683	0	correct_rejection	NA	0
44	Single	38	362	848	8	0	0	744572	684	0	correct_rejection	NA	0
44	Single	39	363	849	7	0	0	745289	683	0	correct_rejection	NA	0
44	Single	40	364	850	7	0	0	746006	683	0	correct_rejection	NA	0
44	Single	41	365	851	5	0	0	746722	684	0	correct_rejection	NA	0
44	Single	42	366	852	8	0	0	747439	683	0	correct_rejection	NA	0
44	Single	43	367	853	4	0	0	748156	683	0	correct_rejection	NA	0
44	Single	44	368	854	5	0	0	748872	684	0	correct_rejection	NA	0
44	Single	45	369	855	6	0	0	749589	683	0	correct_rejection	NA	0
44	Single	46	370	856	8	0	0	750306	683	0	correct_rejection	NA	0
44	Single	47	371	857	6	0	0	751022	684	0	correct_rejection	NA	0
44	Single	48	372	858	6	0	0	751739	683	0	correct_rejection	NA	0
44	Single	49	373	859	0	1	1	752456	683	1	hit	542	0
44	Single	50	374	860	4	0	0	753172	684	0	correct_rejection	NA	0
44	Single	51	375	861	7	0	0	753889	683	0	correct_rejection	NA	0
44	Single	52	376	862	9	0	0	754606	683	0	correct_rejection	NA	0
44	Single	53	377	863	0	1	1	755322	684	1	hit	546	0
44	Single	54	378	864	7	0	0	756039	683	0	correct_rejection	NA	0
44	Single	55	379	865	7	0	0	756756	683	0	correct_rejection	NA	0
44	Single	56	380	866	8	0	0	757472	684	0	correct_rejection	NA	0
44	Single	57	381	867	0	1	1	758189	683	1	hit	509	0
44	Single	58	382	868	7	0	0	758906	683	0	correct_rejection	NA	0
44	Single	59	383	869	4	0	0	759622	684	0	correct_rejection	NA	0
44	Single	60	384	870	0	1	1	760339	683	1	hit	586	0
44	Single	61	385	871	9	0	0	761056	683	0	correct_rejection	NA	0
44	Single	62	386	872	8	0	0	761772	684	0	correct_rejection	NA	0
44	Single	63	387	873	9	0	0	762489	683	0	correct_rejection	NA	0
44	Single	64	388	874	5	0	0	763206	683	0	correct_rejection	NA	0
44	Single	65	389	875	5	0	0	763922	684	0	correct_rejection	NA	0
44	Single	66	390	876	7	0	0	764639	683	0	correct_rejection	NA	0
44	Single	67	391	877	5	0	0	765355	684	0	correct_rejection	NA	0
44	Single	68	392	878	9	0	0	766072	683	0	correct_rejection	NA	0
44	Single	69	393	879	6	0	0	766789	683	0	correct_rejection	NA	0
44	Single	70	394	880	9	0	0	767505	684	0	correct_rejection	NA	0
44	Single	71	395	881	9	0	0	768222	683	0	correct_rejection	NA	0
44	Single	72	396	882	4	0	0	768939	683	0	correct_rejection	NA	0
44	Single	73	397	883	6	0	0	769655	684	0	correct_rejection	NA	0
44	Single	74	398	884	7	0	0	770372	683	0	correct_rejection	NA	0
44	Single	75	399	885	6	0	0	771089	683	0	correct_rejection	NA	0
44	Single	76	400	886	5	0	0	771805	684	0	correct_rejection	NA	0
44	Single	77	401	887	0	1	1	772522	683	1	hit	520	0
44	Single	78	402	888	4	0	0	773239	683	0	correct_rejection	NA	0
44	Single	79	403	889	4	0	0	773955	684	0	correct_rejection	NA	0
44	Single	80	404	890	8	0	0	774672	683	0	correct_rejection	NA	0
44	Single	81	405	891	8	0	0	775389	683	0	correct_rejection	NA	0
44	Single	82	406	892	0	1	1	776105	684	1	hit	541	0
44	Single	83	407	893	8	0	0	776822	683	0	correct_rejection	NA	0
44	Single	84	408	894	4	0	0	777539	683	0	correct_rejection	NA	0
44	Single	85	409	895	9	0	0	778255	684	0	correct_rejection	NA	0
44	Single	86	410	896	7	0	0	778972	683	0	correct_rejection	NA	0
44	Single	87	411	897	4	0	0	779689	683	0	correct_rejection	NA	0
44	Single	88	412	898	8	0	0	780405	684	0	correct_rejection	NA	0
44	Single	89	413	899	9	0	0	781122	683	0	correct_rejection	NA	0
44	Single	90	414	900	4	0	0	781839	683	0	correct_rejection	NA	0
44	Single	91	415	901	7	0	0	782555	684	0	correct_rejection	NA	0
44	Single	92	416	902	6	0	0	783272	683	0	correct_rejection	NA	0
44	Single	93	417	903	6	0	0	783989	683	0	correct_rejection	NA	0
44	Single	94	418	904	0	1	1	784705	684	1	hit	501	0
44	Single	95	419	905	8	0	0	785422	683	0	correct_rejection	NA	0
44	Single	96	420	906	8	0	0	786139	683	0	correct_rejection	NA	0
44	Single	97	421	907	5	0	0	786855	684	0	correct_rejection	NA	0
44	Single	98	422	908	5	0	0	787572	683	0	correct_rejection	NA	0
44	Single	99	423	909	6	0	0	788288	684	0	correct_rejection	NA	0
44	Single	100	424	910	0	1	1	789005	683	1	hit	546	0
44	Single	101	425	911	7	0	0	789722	683	0	correct_rejection	NA	0
44	Single	102	426	912	9	0	0	790438	684	0	correct_rejection	NA	0
44	Single	103	427	913	6	0	0	791155	683	0	correct_rejection	NA	0
44	Single	104	428	914	4	0	0	791872	683	0	correct_rejection	NA	0
44	Single	105	429	915	4	0	0	792588	684	0	correct_rejection	NA	0
44	Single	106	430	916	6	0	0	793305	683	0	correct_rejection	NA	0
44	Single	107	431	917	9	0	0	794022	683	0	correct_rejection	NA	0
44	Single	108	432	918	5	0	0	794738	684	0	correct_rejection	NA	0
44	Single	109	433	919	4	0	0	795455	683	0	correct_rejection	NA	0
44	Single	110	434	920	5	0	0	796172	683	0	correct_rejection	NA	0
44	Single	111	435	921	9	0	0	796888	684	0	correct_rejection	NA	0
44	Single	112	436	922	9	0	0	797605	683	0	correct_rejection	NA	0
44	Single	113	437	923	8	0	0	798322	683	0	correct_rejection	NA	0
44	Single	114	438	924	7	0	0	799038	684	0	correct_rejection	NA	0
44	Single	115	439	925	8	0	0	799755	683	0	correct_rejection	NA	0
44	Single	116	440	926	6	0	0	800472	683	0	correct_rejection	NA	0
44	Single	117	441	927	5	0	0	801188	684	0	correct_rejection	NA	0
44	Single	118	442	928	7	0	0	801905	683	0	correct_rejection	NA	0
44	Single	119	443	929	7	0	0	802622	683	0	correct_rejection	NA	0
44	Single	120	444	930	5	0	0	803338	684	0	correct_rejection	NA	0
44	Single	121	445	931	8	0	0	804055	683	0	correct_rejection	NA	0
44	Single	122	446	932	7	0	0	804772	683	0	correct_rejection	NA	0
44	Single	123	447	933	9	0	0	805488	684	0	correct_rejection	NA	0
44	Single	124	448	934	0	1	1	806205	683	1	hit	539	0
44	Single	125	449	935	9	0	0	806922	683	0	correct_rejection	NA	0
44	Single	126	450	936	6	0	0	807638	684	0	correct_rejection	NA	0
44	Single	127	451	937	0	1	1	808355	683	0	miss	NA	0
44	Single	128	452	938	5	0	0	809072	683	1	false_alarm	55	0
44	Single	129	453	939	5	0	0	809788	684	0	correct_rejection	NA	0
44	Single	130	454	940	9	0	0	810505	683	0	correct_rejection	NA	0
44	Single	131	455	941	4	0	0	811222	683	0	correct_rejection	NA	0
44	Single	132	456	942	9	0	0	811938	684	0	correct_rejection	NA	0
44	Single	133	457	943	5	0	0	812655	683	0	correct_rejection	NA	0
44	Single	134	458	944	7	0	0	813371	684	0	correct_rejection	NA	0
44	Single	135	459	945	4	0	0	814088	683	0	correct_rejection	NA	0
44	Single	136	460	946	4	0	0	814805	683	0	correct_rejection	NA	0
44	Single	137	461	947	5	0	0	815521	684	0	correct_rejection	NA	0
44	Single	138	462	948	8	0	0	816238	683	0	correct_rejection	NA	0
44	Single	139	463	949	8	0	0	816955	683	0	correct_rejection	NA	0
44	Single	140	464	950	0	1	1	817671	684	1	hit	504	0
44	Single	141	465	951	9	0	0	818388	683	0	correct_rejection	NA	0
44	Single	142	466	952	7	0	0	819105	683	0	correct_rejection	NA	0
44	Single	143	467	953	8	0	0	819821	684	0	correct_rejection	NA	0
44	Single	144	468	954	4	0	0	820538	683	0	correct_rejection	NA	0
44	Single	145	469	955	8	0	0	821255	683	0	correct_rejection	NA	0
44	Single	146	470	956	6	0	0	821971	684	0	correct_rejection	NA	0
44	Single	147	471	957	9	0	0	822688	683	0	correct_rejection	NA	0
44	Single	148	472	958	8	0	0	823405	683	0	correct_rejection	NA	0
44	Single	149	473	959	0	1	1	824121	684	1	hit	567	0
44	Single	150	474	960	5	0	0	824838	683	0	correct_rejection	NA	0
44	Single	151	475	961	4	0	0	825555	683	0	correct_rejection	NA	0
44	Single	152	476	962	0	1	1	826271	684	1	hit	552	0
44	Single	153	477	963	7	0	0	826988	683	0	correct_rejection	NA	0
44	Single	154	478	964	5	0	0	827705	683	0	correct_rejection	NA	0
44	Single	155	479	965	0	1	1	828421	684	1	hit	531	0
44	Single	156	480	966	6	0	0	829138	683	0	correct_rejection	NA	0
44	Single	157	481	967	6	0	0	829855	683	0	correct_rejection	NA	0
44	Single	158	482	968	7	0	0	830571	684	0	correct_rejection	NA	0
44	Single	159	483	969	7	0	0	831288	683	0	correct_rejection	NA	0
44	Single	160	484	970	6	0	0	832005	683	0	correct_rejection	NA	0
44	Single	161	485	971	4	0	0	832721	684	0	correct_rejection	NA	0
44	Single	162	486	972	6	0	0	833438	683	0	correct_rejection	NA	0
44	Triplet	1	649	973	4	0	0	843154	684	0	correct_rejection	NA	7727
44	Triplet	2	650	974	5	0	0	843871	683	0	correct_rejection	NA	0
44	Triplet	3	651	975	6	0	0	844588	683	0	correct_rejection	NA	0
44	Triplet	4	652	976	6	0	0	845304	684	0	correct_rejection	NA	0
44	Triplet	5	653	977	5	0	0	846021	683	0	correct_rejection	NA	0
44	Triplet	6	654	978	4	0	0	846738	683	0	correct_rejection	NA	0
44	Triplet	7	655	979	4	0	0	847454	684	0	correct_rejection	NA	0
44	Triplet	8	656	980	5	0	0	848171	683	0	correct_rejection	NA	0
44	Triplet	9	657	981	6	0	0	848888	683	0	correct_rejection	NA	0
44	Triplet	10	658	982	9	0	0	849604	684	0	correct_rejection	NA	0
44	Triplet	11	659	983	0	1	1	850321	683	1	hit	461	0
44	Triplet	12	660	984	8	0	0	851038	683	0	correct_rejection	NA	0
44	Triplet	13	661	985	7	0	0	851754	684	0	correct_rejection	NA	0
44	Triplet	14	662	986	6	0	0	852471	683	0	correct_rejection	NA	0
44	Triplet	15	663	987	0	1	1	853188	683	1	hit	518	0
44	Triplet	16	664	988	5	0	0	853904	684	0	correct_rejection	NA	0
44	Triplet	17	665	989	4	0	0	854621	683	0	correct_rejection	NA	0
44	Triplet	18	666	990	6	0	0	855338	683	0	correct_rejection	NA	0
44	Triplet	19	667	991	5	0	0	856054	684	0	correct_rejection	NA	0
44	Triplet	20	668	992	4	0	0	856771	683	0	correct_rejection	NA	0
44	Triplet	21	669	993	7	0	0	857488	683	0	correct_rejection	NA	0
44	Triplet	22	670	994	8	0	0	858204	684	0	correct_rejection	NA	0
44	Triplet	23	671	995	9	0	0	858921	683	0	correct_rejection	NA	0
44	Triplet	24	672	996	6	0	0	859637	684	0	correct_rejection	NA	0
44	Triplet	25	673	997	0	1	1	860354	684	1	hit	485	0
44	Triplet	26	674	998	5	0	0	861071	683	0	correct_rejection	NA	0
44	Triplet	27	675	999	4	0	0	861787	684	0	correct_rejection	NA	0
44	Triplet	28	676	1000	9	0	0	862504	683	0	correct_rejection	NA	0
44	Triplet	29	677	1001	8	0	0	863221	683	0	correct_rejection	NA	0
44	Triplet	30	678	1002	7	0	0	863937	684	0	correct_rejection	NA	0
44	Triplet	31	679	1003	7	0	0	864654	683	0	correct_rejection	NA	0
44	Triplet	32	680	1004	8	0	0	865371	683	0	correct_rejection	NA	0
44	Triplet	33	681	1005	9	0	0	866087	684	0	correct_rejection	NA	0
44	Triplet	34	682	1006	4	0	0	866804	683	0	correct_rejection	NA	0
44	Triplet	35	683	1007	5	0	0	867521	683	0	correct_rejection	NA	0
44	Triplet	36	684	1008	6	0	0	868237	684	0	correct_rejection	NA	0
44	Triplet	37	685	1009	4	0	0	868954	683	0	correct_rejection	NA	0
44	Triplet	38	686	1010	5	0	0	869671	683	0	correct_rejection	NA	0
44	Triplet	39	687	1011	0	1	1	870387	684	1	hit	473	0
44	Triplet	40	688	1012	6	0	0	871104	683	0	correct_rejection	NA	0
44	Triplet	41	689	1013	7	0	0	871821	683	0	correct_rejection	NA	0
44	Triplet	42	690	1014	8	0	0	872537	684	0	correct_rejection	NA	0
44	Triplet	43	691	1015	9	0	0	873254	683	0	correct_rejection	NA	0
44	Triplet	44	692	1016	7	0	0	873971	683	0	correct_rejection	NA	0
44	Triplet	45	693	1017	8	0	0	874687	684	0	correct_rejection	NA	0
44	Triplet	46	694	1018	9	0	0	875404	683	0	correct_rejection	NA	0
44	Triplet	47	695	1019	9	0	0	876121	683	0	correct_rejection	NA	0
44	Triplet	48	696	1020	8	0	0	876837	684	0	correct_rejection	NA	0
44	Triplet	49	697	1021	0	1	1	877554	683	1	hit	516	0
44	Triplet	50	698	1022	7	0	0	878271	683	0	correct_rejection	NA	0
44	Triplet	51	699	1023	9	0	0	878987	684	0	correct_rejection	NA	0
44	Triplet	52	700	1024	8	0	0	879704	683	0	correct_rejection	NA	0
44	Triplet	53	701	1025	7	0	0	880421	683	0	correct_rejection	NA	0
44	Triplet	54	702	1026	7	0	0	881137	684	0	correct_rejection	NA	0
44	Triplet	55	703	1027	0	1	1	881854	683	1	hit	485	0
44	Triplet	56	704	1028	8	0	0	882571	683	0	correct_rejection	NA	0
44	Triplet	57	705	1029	9	0	0	883287	684	0	correct_rejection	NA	0
44	Triplet	58	706	1030	7	0	0	884004	683	0	correct_rejection	NA	0
44	Triplet	59	707	1031	8	0	0	884720	684	0	correct_rejection	NA	0
44	Triplet	60	708	1032	0	1	1	885437	683	1	hit	510	0
44	Triplet	61	709	1033	9	0	0	886154	683	0	correct_rejection	NA	0
44	Triplet	62	710	1034	6	0	0	886870	684	0	correct_rejection	NA	0
44	Triplet	63	711	1035	5	0	0	887587	683	0	correct_rejection	NA	0
44	Triplet	64	712	1036	4	0	0	888304	683	0	correct_rejection	NA	0
44	Triplet	65	713	1037	6	0	0	889020	684	0	correct_rejection	NA	0
44	Triplet	66	714	1038	5	0	0	889737	683	0	correct_rejection	NA	0
44	Triplet	67	715	1039	4	0	0	890454	683	0	correct_rejection	NA	0
44	Triplet	68	716	1040	0	1	2	891170	684	1	hit	461	0
44	Triplet	69	717	1041	4	0	0	891887	683	0	correct_rejection	NA	0
44	Triplet	70	718	1042	5	0	0	892604	683	0	correct_rejection	NA	0
44	Triplet	71	719	1043	6	0	0	893320	684	0	correct_rejection	NA	0
44	Triplet	72	720	1044	4	0	0	894037	683	0	correct_rejection	NA	0
44	Triplet	73	721	1045	5	0	0	894754	683	0	correct_rejection	NA	0
44	Triplet	74	722	1046	6	0	0	895470	684	0	correct_rejection	NA	0
44	Triplet	75	723	1047	6	0	0	896187	683	0	correct_rejection	NA	0
44	Triplet	76	724	1048	5	0	0	896904	683	0	correct_rejection	NA	0
44	Triplet	77	725	1049	0	1	1	897620	684	1	hit	545	0
44	Triplet	78	726	1050	4	0	0	898337	683	0	correct_rejection	NA	0
44	Triplet	79	727	1051	7	0	0	899054	683	0	correct_rejection	NA	0
44	Triplet	80	728	1052	8	0	0	899770	684	0	correct_rejection	NA	0
44	Triplet	81	729	1053	9	0	0	900487	683	0	correct_rejection	NA	0
44	Triplet	82	730	1054	4	0	0	901204	683	0	correct_rejection	NA	0
44	Triplet	83	731	1055	5	0	0	901920	684	0	correct_rejection	NA	0
44	Triplet	84	732	1056	6	0	0	902637	683	0	correct_rejection	NA	0
44	Triplet	85	733	1057	9	0	0	903354	683	0	correct_rejection	NA	0
44	Triplet	86	734	1058	8	0	0	904070	684	0	correct_rejection	NA	0
44	Triplet	87	735	1059	7	0	0	904787	683	0	correct_rejection	NA	0
44	Triplet	88	736	1060	9	0	0	905504	683	0	correct_rejection	NA	0
44	Triplet	89	737	1061	8	0	0	906220	684	0	correct_rejection	NA	0
44	Triplet	90	738	1062	7	0	0	906937	683	0	correct_rejection	NA	0
44	Triplet	91	739	1063	7	0	0	907653	684	0	correct_rejection	NA	0
44	Triplet	92	740	1064	8	0	0	908370	683	0	correct_rejection	NA	0
44	Triplet	93	741	1065	9	0	0	909087	683	0	correct_rejection	NA	0
44	Triplet	94	742	1066	9	0	0	909803	684	0	correct_rejection	NA	0
44	Triplet	95	743	1067	8	0	0	910520	683	0	correct_rejection	NA	0
44	Triplet	96	744	1068	7	0	0	911237	683	0	correct_rejection	NA	0
44	Triplet	97	745	1069	6	0	0	911953	684	0	correct_rejection	NA	0
44	Triplet	98	746	1070	5	0	0	912670	683	0	correct_rejection	NA	0
44	Triplet	99	747	1071	4	0	0	913387	683	0	correct_rejection	NA	0
44	Triplet	100	748	1072	9	0	0	914103	684	0	correct_rejection	NA	0
44	Triplet	101	749	1073	8	0	0	914820	683	0	correct_rejection	NA	0
44	Triplet	102	750	1074	0	1	1	915537	683	1	hit	491	0
44	Triplet	103	751	1075	7	0	0	916253	684	0	correct_rejection	NA	0
44	Triplet	104	752	1076	4	0	0	916970	683	0	correct_rejection	NA	0
44	Triplet	105	753	1077	5	0	0	917687	683	0	correct_rejection	NA	0
44	Triplet	106	754	1078	6	0	0	918403	684	0	correct_rejection	NA	0
44	Triplet	107	755	1079	7	0	0	919120	683	0	correct_rejection	NA	0
44	Triplet	108	756	1080	8	0	0	919837	683	0	correct_rejection	NA	0
44	Triplet	109	757	1081	9	0	0	920553	684	0	correct_rejection	NA	0
44	Triplet	110	758	1082	0	1	2	921270	683	1	hit	528	0
44	Triplet	111	759	1083	9	0	0	921987	683	0	correct_rejection	NA	0
44	Triplet	112	760	1084	8	0	0	922703	684	0	correct_rejection	NA	0
44	Triplet	113	761	1085	7	0	0	923420	683	0	correct_rejection	NA	0
44	Triplet	114	762	1086	4	0	0	924137	683	0	correct_rejection	NA	0
44	Triplet	115	763	1087	5	0	0	924853	684	0	correct_rejection	NA	0
44	Triplet	116	764	1088	6	0	0	925570	683	0	correct_rejection	NA	0
44	Triplet	117	765	1089	0	1	2	926287	683	1	hit	481	0
44	Triplet	118	766	1090	4	0	0	927003	684	0	correct_rejection	NA	0
44	Triplet	119	767	1091	5	0	0	927720	683	0	correct_rejection	NA	0
44	Triplet	120	768	1092	6	0	0	928437	683	0	correct_rejection	NA	0
44	Triplet	121	769	1093	9	0	0	929153	684	0	correct_rejection	NA	0
44	Triplet	122	770	1094	8	0	0	929870	683	0	correct_rejection	NA	0
44	Triplet	123	771	1095	0	1	1	930586	684	1	hit	536	0
44	Triplet	124	772	1096	7	0	0	931303	684	0	correct_rejection	NA	0
44	Triplet	125	773	1097	7	0	0	932020	683	0	correct_rejection	NA	0
44	Triplet	126	774	1098	8	0	0	932736	684	0	correct_rejection	NA	0
44	Triplet	127	775	1099	9	0	0	933453	683	0	correct_rejection	NA	0
44	Triplet	128	776	1100	0	1	2	934170	683	1	hit	523	0
44	Triplet	129	777	1101	6	0	0	934886	684	0	correct_rejection	NA	0
44	Triplet	130	778	1102	5	0	0	935603	683	0	correct_rejection	NA	0
44	Triplet	131	779	1103	4	0	0	936320	683	0	correct_rejection	NA	0
44	Triplet	132	780	1104	7	0	0	937036	684	0	correct_rejection	NA	0
44	Triplet	133	781	1105	8	0	0	937753	683	0	correct_rejection	NA	0
44	Triplet	134	782	1106	9	0	0	938470	683	0	correct_rejection	NA	0
44	Triplet	135	783	1107	7	0	0	939186	684	0	correct_rejection	NA	0
44	Triplet	136	784	1108	8	0	0	939903	683	0	correct_rejection	NA	0
44	Triplet	137	785	1109	9	0	0	940620	683	0	correct_rejection	NA	0
44	Triplet	138	786	1110	4	0	0	941336	684	0	correct_rejection	NA	0
44	Triplet	139	787	1111	0	1	1	942053	683	1	hit	533	0
44	Triplet	140	788	1112	5	0	0	942770	683	0	correct_rejection	NA	0
44	Triplet	141	789	1113	6	0	0	943486	684	0	correct_rejection	NA	0
44	Triplet	142	790	1114	0	1	2	944203	683	1	hit	637	0
44	Triplet	143	791	1115	6	0	0	944920	683	0	correct_rejection	NA	0
44	Triplet	144	792	1116	5	0	0	945636	684	0	correct_rejection	NA	0
44	Triplet	145	793	1117	4	0	0	946353	683	0	correct_rejection	NA	0
44	Triplet	146	794	1118	6	0	0	947070	683	0	correct_rejection	NA	0
44	Triplet	147	795	1119	5	0	0	947786	684	0	correct_rejection	NA	0
44	Triplet	148	796	1120	4	0	0	948503	683	0	correct_rejection	NA	0
44	Triplet	149	797	1121	0	1	2	949220	683	1	hit	523	0
44	Triplet	150	798	1122	9	0	0	949936	684	0	correct_rejection	NA	0
44	Triplet	151	799	1123	8	0	0	950653	683	0	correct_rejection	NA	0
44	Triplet	152	800	1124	7	0	0	951370	683	0	correct_rejection	NA	0
44	Triplet	153	801	1125	0	1	2	952086	684	1	hit	606	0
44	Triplet	154	802	1126	9	0	0	952803	683	0	correct_rejection	NA	0
44	Triplet	155	803	1127	8	0	0	953520	683	0	correct_rejection	NA	0
44	Triplet	156	804	1128	7	0	0	954236	684	0	correct_rejection	NA	0
44	Triplet	157	805	1129	6	0	0	954953	683	0	correct_rejection	NA	0
44	Triplet	158	806	1130	5	0	0	955669	684	0	correct_rejection	NA	0
44	Triplet	159	807	1131	4	0	0	956386	684	0	correct_rejection	NA	0
44	Triplet	160	808	1132	4	0	0	957103	683	0	correct_rejection	NA	0
44	Triplet	161	809	1133	5	0	0	957819	684	0	correct_rejection	NA	0
44	Triplet	162	810	1134	6	0	0	958536	683	0	correct_rejection	NA	0
44	Nonet	1	163	1135	4	0	0	968103	683	0	correct_rejection	NA	7666
44	Nonet	2	164	1136	5	0	0	968819	684	0	correct_rejection	NA	0
44	Nonet	3	165	1137	6	0	0	969536	683	0	correct_rejection	NA	0
44	Nonet	4	166	1138	4	0	0	970253	683	0	correct_rejection	NA	0
44	Nonet	5	167	1139	5	0	0	970969	684	0	correct_rejection	NA	0
44	Nonet	6	168	1140	6	0	0	971686	683	0	correct_rejection	NA	0
44	Nonet	7	169	1141	4	0	0	972403	683	0	correct_rejection	NA	0
44	Nonet	8	170	1142	5	0	0	973119	684	0	correct_rejection	NA	0
44	Nonet	9	171	1143	0	1	1	973836	683	1	hit	450	0
44	Nonet	10	172	1144	6	0	0	974553	683	0	correct_rejection	NA	0
44	Nonet	11	173	1145	4	0	0	975269	684	0	correct_rejection	NA	0
44	Nonet	12	174	1146	5	0	0	975986	683	0	correct_rejection	NA	0
44	Nonet	13	175	1147	6	0	0	976703	683	0	correct_rejection	NA	0
44	Nonet	14	176	1148	4	0	0	977419	684	0	correct_rejection	NA	0
44	Nonet	15	177	1149	5	0	0	978136	683	0	correct_rejection	NA	0
44	Nonet	16	178	1150	6	0	0	978852	684	0	correct_rejection	NA	0
44	Nonet	17	179	1151	4	0	0	979569	684	0	correct_rejection	NA	0
44	Nonet	18	180	1152	5	0	0	980286	683	0	correct_rejection	NA	0
44	Nonet	19	181	1153	6	0	0	981002	684	0	correct_rejection	NA	0
44	Nonet	20	182	1154	7	0	0	981719	683	0	correct_rejection	NA	0
44	Nonet	21	183	1155	8	0	0	982436	683	0	correct_rejection	NA	0
44	Nonet	22	184	1156	9	0	0	983152	684	0	correct_rejection	NA	0
44	Nonet	23	185	1157	7	0	0	983869	683	0	correct_rejection	NA	0
44	Nonet	24	186	1158	8	0	0	984586	683	0	correct_rejection	NA	0
44	Nonet	25	187	1159	9	0	0	985302	684	0	correct_rejection	NA	0
44	Nonet	26	188	1160	7	0	0	986019	683	0	correct_rejection	NA	0
44	Nonet	27	189	1161	0	1	1	986736	683	1	hit	482	0
44	Nonet	28	190	1162	8	0	0	987452	684	0	correct_rejection	NA	0
44	Nonet	29	191	1163	9	0	0	988169	683	0	correct_rejection	NA	0
44	Nonet	30	192	1164	0	1	3	988886	683	1	hit	606	0
44	Nonet	31	193	1165	7	0	0	989602	684	0	correct_rejection	NA	0
44	Nonet	32	194	1166	8	0	0	990319	683	0	correct_rejection	NA	0
44	Nonet	33	195	1167	9	0	0	991036	683	0	correct_rejection	NA	0
44	Nonet	34	196	1168	7	0	0	991752	684	0	correct_rejection	NA	0
44	Nonet	35	197	1169	0	1	1	992469	683	1	hit	489	0
44	Nonet	36	198	1170	8	0	0	993186	683	0	correct_rejection	NA	0
44	Nonet	37	199	1171	9	0	0	993902	684	0	correct_rejection	NA	0
44	Nonet	38	200	1172	7	0	0	994619	683	0	correct_rejection	NA	0
44	Nonet	39	201	1173	8	0	0	995336	683	0	correct_rejection	NA	0
44	Nonet	40	202	1174	9	0	0	996052	684	0	correct_rejection	NA	0
44	Nonet	41	203	1175	6	0	0	996769	683	0	correct_rejection	NA	0
44	Nonet	42	204	1176	5	0	0	997486	683	0	correct_rejection	NA	0
44	Nonet	43	205	1177	4	0	0	998202	684	0	correct_rejection	NA	0
44	Nonet	44	206	1178	6	0	0	998919	683	0	correct_rejection	NA	0
44	Nonet	45	207	1179	5	0	0	999636	683	0	correct_rejection	NA	0
44	Nonet	46	208	1180	4	0	0	1000352	684	0	correct_rejection	NA	0
44	Nonet	47	209	1181	6	0	0	1001069	683	0	correct_rejection	NA	0
44	Nonet	48	210	1182	5	0	0	1001786	683	0	correct_rejection	NA	0
44	Nonet	49	211	1183	0	1	1	1002502	684	1	hit	570	0
44	Nonet	50	212	1184	4	0	0	1003219	683	0	correct_rejection	NA	0
44	Nonet	51	213	1185	6	0	0	1003935	684	0	correct_rejection	NA	0
44	Nonet	52	214	1186	5	0	0	1004652	683	0	correct_rejection	NA	0
44	Nonet	53	215	1187	4	0	0	1005369	683	0	correct_rejection	NA	0
44	Nonet	54	216	1188	6	0	0	1006085	684	0	correct_rejection	NA	0
44	Nonet	55	217	1189	0	1	1	1006802	683	1	hit	598	0
44	Nonet	56	218	1190	5	0	0	1007519	683	0	correct_rejection	NA	0
44	Nonet	57	219	1191	4	0	0	1008235	684	0	correct_rejection	NA	0
44	Nonet	58	220	1192	6	0	0	1008952	683	0	correct_rejection	NA	0
44	Nonet	59	221	1193	5	0	0	1009669	683	0	correct_rejection	NA	0
44	Nonet	60	222	1194	4	0	0	1010385	684	0	correct_rejection	NA	0
44	Nonet	61	223	1195	4	0	0	1011102	683	0	correct_rejection	NA	0
44	Nonet	62	224	1196	0	1	1	1011819	683	1	hit	454	0
44	Nonet	63	225	1197	5	0	0	1012535	684	0	correct_rejection	NA	0
44	Nonet	64	226	1198	6	0	0	1013252	683	0	correct_rejection	NA	0
44	Nonet	65	227	1199	4	0	0	1013969	683	0	correct_rejection	NA	0
44	Nonet	66	228	1200	5	0	0	1014685	684	0	correct_rejection	NA	0
44	Nonet	67	229	1201	6	0	0	1015402	683	0	correct_rejection	NA	0
44	Nonet	68	230	1202	4	0	0	1016119	683	0	correct_rejection	NA	0
44	Nonet	69	231	1203	5	0	0	1016835	684	0	correct_rejection	NA	0
44	Nonet	70	232	1204	6	0	0	1017552	683	0	correct_rejection	NA	0
44	Nonet	71	233	1205	6	0	0	1018269	683	0	correct_rejection	NA	0
44	Nonet	72	234	1206	5	0	0	1018985	684	0	correct_rejection	NA	0
44	Nonet	73	235	1207	4	0	0	1019702	683	0	correct_rejection	NA	0
44	Nonet	74	236	1208	6	0	0	1020419	683	0	correct_rejection	NA	0
44	Nonet	75	237	1209	0	1	1	1021135	684	1	hit	557	0
44	Nonet	76	238	1210	5	0	0	1021852	683	0	correct_rejection	NA	0
44	Nonet	77	239	1211	4	0	0	1022569	683	0	correct_rejection	NA	0
44	Nonet	78	240	1212	0	1	2	1023285	684	1	hit	523	0
44	Nonet	79	241	1213	6	0	0	1024002	683	0	correct_rejection	NA	0
44	Nonet	80	242	1214	5	0	0	1024719	683	0	correct_rejection	NA	0
44	Nonet	81	243	1215	4	0	0	1025435	684	0	correct_rejection	NA	0
44	Nonet	82	244	1216	9	0	0	1026152	683	0	correct_rejection	NA	0
44	Nonet	83	245	1217	0	1	1	1026868	684	1	hit	540	0
44	Nonet	84	246	1218	8	0	0	1027585	684	0	correct_rejection	NA	0
44	Nonet	85	247	1219	7	0	0	1028302	683	0	correct_rejection	NA	0
44	Nonet	86	248	1220	9	0	0	1029018	684	0	correct_rejection	NA	0
44	Nonet	87	249	1221	8	0	0	1029735	683	0	correct_rejection	NA	0
44	Nonet	88	250	1222	7	0	0	1030452	683	0	correct_rejection	NA	0
44	Nonet	89	251	1223	9	0	0	1031168	684	0	correct_rejection	NA	0
44	Nonet	90	252	1224	8	0	0	1031885	683	0	correct_rejection	NA	0
44	Nonet	91	253	1225	7	0	0	1032602	683	0	correct_rejection	NA	0
44	Nonet	92	254	1226	4	0	0	1033318	684	0	correct_rejection	NA	0
44	Nonet	93	255	1227	5	0	0	1034035	683	0	correct_rejection	NA	0
44	Nonet	94	256	1228	6	0	0	1034752	683	0	correct_rejection	NA	0
44	Nonet	95	257	1229	0	1	2	1035468	684	1	hit	497	0
44	Nonet	96	258	1230	4	0	0	1036185	683	0	correct_rejection	NA	0
44	Nonet	97	259	1231	5	0	0	1036902	683	0	correct_rejection	NA	0
44	Nonet	98	260	1232	6	0	0	1037618	684	0	correct_rejection	NA	0
44	Nonet	99	261	1233	4	0	0	1038335	683	0	correct_rejection	NA	0
44	Nonet	100	262	1234	0	1	1	1039052	683	1	hit	511	0
44	Nonet	101	263	1235	5	0	0	1039768	684	0	correct_rejection	NA	0
44	Nonet	102	264	1236	6	0	0	1040485	683	0	correct_rejection	NA	0
44	Nonet	103	265	1237	9	0	0	1041202	683	0	correct_rejection	NA	0
44	Nonet	104	266	1238	0	1	1	1041918	684	1	hit	566	0
44	Nonet	105	267	1239	8	0	0	1042635	683	0	correct_rejection	NA	0
44	Nonet	106	268	1240	7	0	0	1043352	683	0	correct_rejection	NA	0
44	Nonet	107	269	1241	9	0	0	1044068	684	0	correct_rejection	NA	0
44	Nonet	108	270	1242	0	1	1	1044785	683	1	hit	480	0
44	Nonet	109	271	1243	8	0	0	1045502	683	0	correct_rejection	NA	0
44	Nonet	110	272	1244	7	0	0	1046218	684	0	correct_rejection	NA	0
44	Nonet	111	273	1245	9	0	0	1046935	683	0	correct_rejection	NA	0
44	Nonet	112	274	1246	8	0	0	1047652	683	0	correct_rejection	NA	0
44	Nonet	113	275	1247	7	0	0	1048368	684	0	correct_rejection	NA	0
44	Nonet	114	276	1248	0	1	3	1049085	683	1	hit	430	0
44	Nonet	115	277	1249	7	0	0	1049801	684	0	correct_rejection	NA	0
44	Nonet	116	278	1250	8	0	0	1050518	684	0	correct_rejection	NA	0
44	Nonet	117	279	1251	9	0	0	1051235	683	0	correct_rejection	NA	0
44	Nonet	118	280	1252	7	0	0	1051951	684	0	correct_rejection	NA	0
44	Nonet	119	281	1253	8	0	0	1052668	683	0	correct_rejection	NA	0
44	Nonet	120	282	1254	9	0	0	1053385	683	0	correct_rejection	NA	0
44	Nonet	121	283	1255	7	0	0	1054101	684	0	correct_rejection	NA	0
44	Nonet	122	284	1256	8	0	0	1054818	683	0	correct_rejection	NA	0
44	Nonet	123	285	1257	9	0	0	1055535	683	0	correct_rejection	NA	0
44	Nonet	124	286	1258	9	0	0	1056251	684	0	correct_rejection	NA	0
44	Nonet	125	287	1259	8	0	0	1056968	683	0	correct_rejection	NA	0
44	Nonet	126	288	1260	7	0	0	1057685	683	0	correct_rejection	NA	0
44	Nonet	127	289	1261	9	0	0	1058401	684	0	correct_rejection	NA	0
44	Nonet	128	290	1262	8	0	0	1059118	683	0	correct_rejection	NA	0
44	Nonet	129	291	1263	7	0	0	1059835	683	0	correct_rejection	NA	0
44	Nonet	130	292	1264	9	0	0	1060551	684	0	correct_rejection	NA	0
44	Nonet	131	293	1265	8	0	0	1061268	683	0	correct_rejection	NA	0
44	Nonet	132	294	1266	7	0	0	1061985	683	0	correct_rejection	NA	0
44	Nonet	133	295	1267	0	1	3	1062701	684	1	hit	554	0
44	Nonet	134	296	1268	9	0	0	1063418	683	0	correct_rejection	NA	0
44	Nonet	135	297	1269	8	0	0	1064135	683	0	correct_rejection	NA	0
44	Nonet	136	298	1270	7	0	0	1064851	684	0	correct_rejection	NA	0
44	Nonet	137	299	1271	9	0	0	1065568	683	0	correct_rejection	NA	0
44	Nonet	138	300	1272	8	0	0	1066285	683	0	correct_rejection	NA	0
44	Nonet	139	301	1273	7	0	0	1067001	684	0	correct_rejection	NA	0
44	Nonet	140	302	1274	9	0	0	1067718	683	0	correct_rejection	NA	0
44	Nonet	141	303	1275	8	0	0	1068435	683	0	correct_rejection	NA	0
44	Nonet	142	304	1276	7	0	0	1069151	684	0	correct_rejection	NA	0
44	Nonet	143	305	1277	6	0	0	1069868	683	0	correct_rejection	NA	0
44	Nonet	144	306	1278	5	0	0	1070585	683	0	correct_rejection	NA	0
44	Nonet	145	307	1279	4	0	0	1071301	684	0	correct_rejection	NA	0
44	Nonet	146	308	1280	0	1	2	1072018	683	1	hit	529	0
44	Nonet	147	309	1281	6	0	0	1072735	683	0	correct_rejection	NA	0
44	Nonet	148	310	1282	5	0	0	1073451	684	0	correct_rejection	NA	0
44	Nonet	149	311	1283	4	0	0	1074168	683	0	correct_rejection	NA	0
44	Nonet	150	312	1284	6	0	0	1074884	684	0	correct_rejection	NA	0
44	Nonet	151	313	1285	5	0	0	1075601	683	0	correct_rejection	NA	0
44	Nonet	152	314	1286	4	0	0	1076318	683	0	correct_rejection	NA	0
44	Nonet	153	315	1287	7	0	0	1077034	684	0	correct_rejection	NA	0
44	Nonet	154	316	1288	8	0	0	1077751	683	0	correct_rejection	NA	0
44	Nonet	155	317	1289	0	1	1	1078468	683	0	miss	NA	0
44	Nonet	156	318	1290	9	0	0	1079184	684	1	false_alarm	74	0
44	Nonet	157	319	1291	7	0	0	1079901	683	0	correct_rejection	NA	0
44	Nonet	158	320	1292	8	0	0	1080618	683	0	correct_rejection	NA	0
44	Nonet	159	321	1293	9	0	0	1081334	684	0	correct_rejection	NA	0
44	Nonet	160	322	1294	7	0	0	1082051	683	0	correct_rejection	NA	0
44	Nonet	161	323	1295	8	0	0	1082768	683	0	correct_rejection	NA	0
44	Nonet	162	324	1296	9	0	0	1083484	684	0	correct_rejection	NA	0
44	Correct	1	487	1297	4	0	0	1093151	683	0	correct_rejection	NA	7717
44	Correct	2	488	1298	5	0	0	1093868	683	0	correct_rejection	NA	0
44	Correct	3	489	1299	6	0	0	1094584	684	0	correct_rejection	NA	0
44	Correct	4	490	1300	4	0	0	1095301	683	0	correct_rejection	NA	0
44	Correct	5	491	1301	0	1	1	1096018	683	1	hit	485	0
44	Correct	6	492	1302	5	0	0	1096734	684	0	correct_rejection	NA	0
44	Correct	7	493	1303	6	0	0	1097451	683	0	correct_rejection	NA	0
44	Correct	8	494	1304	0	1	2	1098167	684	1	hit	498	0
44	Correct	9	495	1305	4	0	0	1098884	683	0	correct_rejection	NA	0
44	Correct	10	496	1306	5	0	0	1099601	683	0	correct_rejection	NA	0
44	Correct	11	497	1307	6	0	0	1100317	684	0	correct_rejection	NA	0
44	Correct	12	498	1308	6	0	0	1101034	683	0	correct_rejection	NA	0
44	Correct	13	499	1309	5	0	0	1101751	683	0	correct_rejection	NA	0
44	Correct	14	500	1310	4	0	0	1102467	684	0	correct_rejection	NA	0
44	Correct	15	501	1311	0	1	2	1103184	683	1	hit	428	0
44	Correct	16	502	1312	6	0	0	1103901	683	0	correct_rejection	NA	0
44	Correct	17	503	1313	5	0	0	1104617	684	0	correct_rejection	NA	0
44	Correct	18	504	1314	4	0	0	1105334	683	0	correct_rejection	NA	0
44	Correct	19	505	1315	6	0	0	1106051	683	0	correct_rejection	NA	0
44	Correct	20	506	1316	0	1	1	1106767	684	1	hit	511	0
44	Correct	21	507	1317	5	0	0	1107484	683	0	correct_rejection	NA	0
44	Correct	22	508	1318	4	0	0	1108201	683	0	correct_rejection	NA	0
44	Correct	23	509	1319	9	0	0	1108917	684	0	correct_rejection	NA	0
44	Correct	24	510	1320	8	0	0	1109634	683	0	correct_rejection	NA	0
44	Correct	25	511	1321	7	0	0	1110351	683	0	correct_rejection	NA	0
44	Correct	26	512	1322	9	0	0	1111067	684	0	correct_rejection	NA	0
44	Correct	27	513	1323	0	1	1	1111784	683	1	hit	398	0
44	Correct	28	514	1324	8	0	0	1112501	683	0	correct_rejection	NA	0
44	Correct	29	515	1325	7	0	0	1113217	684	0	correct_rejection	NA	0
44	Correct	30	516	1326	9	0	0	1113934	683	0	correct_rejection	NA	0
44	Correct	31	517	1327	8	0	0	1114651	683	0	correct_rejection	NA	0
44	Correct	32	518	1328	0	1	1	1115367	684	1	hit	462	0
44	Correct	33	519	1329	7	0	0	1116084	683	0	correct_rejection	NA	0
44	Correct	34	520	1330	7	0	0	1116801	683	0	correct_rejection	NA	0
44	Correct	35	521	1331	8	0	0	1117517	684	0	correct_rejection	NA	0
44	Correct	36	522	1332	9	0	0	1118234	683	0	correct_rejection	NA	0
44	Correct	37	523	1333	7	0	0	1118951	683	0	correct_rejection	NA	0
44	Correct	38	524	1334	8	0	0	1119667	684	0	correct_rejection	NA	0
44	Correct	39	525	1335	9	0	0	1120384	683	0	correct_rejection	NA	0
44	Correct	40	526	1336	7	0	0	1121101	683	0	correct_rejection	NA	0
44	Correct	41	527	1337	8	0	0	1121817	684	0	correct_rejection	NA	0
44	Correct	42	528	1338	9	0	0	1122534	683	0	correct_rejection	NA	0
44	Correct	43	529	1339	4	0	0	1123250	684	0	correct_rejection	NA	0
44	Correct	44	530	1340	5	0	0	1123967	683	0	correct_rejection	NA	0
44	Correct	45	531	1341	6	0	0	1124684	683	0	correct_rejection	NA	0
44	Correct	46	532	1342	4	0	0	1125400	684	0	correct_rejection	NA	0
44	Correct	47	533	1343	5	0	0	1126117	683	0	correct_rejection	NA	0
44	Correct	48	534	1344	6	0	0	1126834	683	0	correct_rejection	NA	0
44	Correct	49	535	1345	4	0	0	1127550	684	0	correct_rejection	NA	0
44	Correct	50	536	1346	5	0	0	1128267	683	0	correct_rejection	NA	0
44	Correct	51	537	1347	0	1	1	1128984	683	1	hit	486	0
44	Correct	52	538	1348	6	0	0	1129700	684	0	correct_rejection	NA	0
44	Correct	53	539	1349	6	0	0	1130417	683	0	correct_rejection	NA	0
44	Correct	54	540	1350	5	0	0	1131134	683	0	correct_rejection	NA	0
44	Correct	55	541	1351	4	0	0	1131850	684	0	correct_rejection	NA	0
44	Correct	56	542	1352	6	0	0	1132567	683	0	correct_rejection	NA	0
44	Correct	57	543	1353	5	0	0	1133284	683	0	correct_rejection	NA	0
44	Correct	58	544	1354	4	0	0	1134000	684	0	correct_rejection	NA	0
44	Correct	59	545	1355	0	1	2	1134717	683	1	hit	494	0
44	Correct	60	546	1356	6	0	0	1135434	683	0	correct_rejection	NA	0
44	Correct	61	547	1357	5	0	0	1136150	684	0	correct_rejection	NA	0
44	Correct	62	548	1358	0	1	1	1136867	683	1	hit	554	0
44	Correct	63	549	1359	4	0	0	1137584	683	0	correct_rejection	NA	0
44	Correct	64	550	1360	9	0	0	1138300	684	0	correct_rejection	NA	0
44	Correct	65	551	1361	0	1	1	1139017	683	1	hit	478	0
44	Correct	66	552	1362	8	0	0	1139734	683	0	correct_rejection	NA	0
44	Correct	67	553	1363	7	0	0	1140450	684	0	correct_rejection	NA	0
44	Correct	68	554	1364	9	0	0	1141167	683	0	correct_rejection	NA	0
44	Correct	69	555	1365	8	0	0	1141884	683	0	correct_rejection	NA	0
44	Correct	70	556	1366	0	1	1	1142600	684	1	hit	477	0
44	Correct	71	557	1367	7	0	0	1143317	683	0	correct_rejection	NA	0
44	Correct	72	558	1368	9	0	0	1144034	683	0	correct_rejection	NA	0
44	Correct	73	559	1369	8	0	0	1144750	684	0	correct_rejection	NA	0
44	Correct	74	560	1370	7	0	0	1145467	683	0	correct_rejection	NA	0
44	Correct	75	561	1371	7	0	0	1146183	684	0	correct_rejection	NA	0
44	Correct	76	562	1372	8	0	0	1146900	684	0	correct_rejection	NA	0
44	Correct	77	563	1373	9	0	0	1147617	683	0	correct_rejection	NA	0
44	Correct	78	564	1374	7	0	0	1148333	684	0	correct_rejection	NA	0
44	Correct	79	565	1375	8	0	0	1149050	683	0	correct_rejection	NA	0
44	Correct	80	566	1376	9	0	0	1149767	683	0	correct_rejection	NA	0
44	Correct	81	567	1377	7	0	0	1150483	684	0	correct_rejection	NA	0
44	Correct	82	568	1378	8	0	0	1151200	683	0	correct_rejection	NA	0
44	Correct	83	569	1379	9	0	0	1151917	683	0	correct_rejection	NA	0
44	Correct	84	570	1380	4	0	0	1152633	684	0	correct_rejection	NA	0
44	Correct	85	571	1381	5	0	0	1153350	683	0	correct_rejection	NA	0
44	Correct	86	572	1382	6	0	0	1154067	683	0	correct_rejection	NA	0
44	Correct	87	573	1383	4	0	0	1154783	684	0	correct_rejection	NA	0
44	Correct	88	574	1384	5	0	0	1155500	683	0	correct_rejection	NA	0
44	Correct	89	575	1385	0	1	1	1156217	683	1	hit	635	0
44	Correct	90	576	1386	6	0	0	1156933	684	0	correct_rejection	NA	0
44	Correct	91	577	1387	4	0	0	1157650	683	0	correct_rejection	NA	0
44	Correct	92	578	1388	5	0	0	1158367	683	0	correct_rejection	NA	0
44	Correct	93	579	1389	6	0	0	1159083	684	0	correct_rejection	NA	0
44	Correct	94	580	1390	6	0	0	1159800	683	0	correct_rejection	NA	0
44	Correct	95	581	1391	0	1	1	1160517	683	1	hit	630	0
44	Correct	96	582	1392	5	0	0	1161233	684	0	correct_rejection	NA	0
44	Correct	97	583	1393	4	0	0	1161950	683	0	correct_rejection	NA	0
44	Correct	98	584	1394	6	0	0	1162667	683	0	correct_rejection	NA	0
44	Correct	99	585	1395	5	0	0	1163383	684	0	correct_rejection	NA	0
44	Correct	100	586	1396	4	0	0	1164100	683	0	correct_rejection	NA	0
44	Correct	101	587	1397	6	0	0	1164817	683	0	correct_rejection	NA	0
44	Correct	102	588	1398	5	0	0	1165533	684	0	correct_rejection	NA	0
44	Correct	103	589	1399	4	0	0	1166250	683	0	correct_rejection	NA	0
44	Correct	104	590	1400	9	0	0	1166967	683	0	correct_rejection	NA	0
44	Correct	105	591	1401	8	0	0	1167683	684	0	correct_rejection	NA	0
44	Correct	106	592	1402	7	0	0	1168400	683	0	correct_rejection	NA	0
44	Correct	107	593	1403	9	0	0	1169116	684	0	correct_rejection	NA	0
44	Correct	108	594	1404	8	0	0	1169833	684	0	correct_rejection	NA	0
44	Correct	109	595	1405	7	0	0	1170550	683	0	correct_rejection	NA	0
44	Correct	110	596	1406	9	0	0	1171266	684	0	correct_rejection	NA	0
44	Correct	111	597	1407	8	0	0	1171983	683	0	correct_rejection	NA	0
44	Correct	112	598	1408	7	0	0	1172700	683	0	correct_rejection	NA	0
44	Correct	113	599	1409	7	0	0	1173416	684	0	correct_rejection	NA	0
44	Correct	114	600	1410	8	0	0	1174133	683	0	correct_rejection	NA	0
44	Correct	115	601	1411	0	1	1	1174850	683	1	hit	427	0
44	Correct	116	602	1412	9	0	0	1175566	684	0	correct_rejection	NA	0
44	Correct	117	603	1413	7	0	0	1176283	683	0	correct_rejection	NA	0
44	Correct	118	604	1414	8	0	0	1177000	683	0	correct_rejection	NA	0
44	Correct	119	605	1415	9	0	0	1177716	684	0	correct_rejection	NA	0
44	Correct	120	606	1416	7	0	0	1178433	683	0	correct_rejection	NA	0
44	Correct	121	607	1417	8	0	0	1179150	683	0	correct_rejection	NA	0
44	Correct	122	608	1418	9	0	0	1179866	684	0	correct_rejection	NA	0
44	Correct	123	609	1419	0	1	4	1180583	683	1	hit	502	0
44	Correct	124	610	1420	4	0	0	1181300	683	0	correct_rejection	NA	0
44	Correct	125	611	1421	5	0	0	1182016	684	0	correct_rejection	NA	0
44	Correct	126	612	1422	6	0	0	1182733	683	0	correct_rejection	NA	0
44	Correct	127	613	1423	4	0	0	1183450	683	0	correct_rejection	NA	0
44	Correct	128	614	1424	5	0	0	1184166	684	0	correct_rejection	NA	0
44	Correct	129	615	1425	6	0	0	1184883	683	0	correct_rejection	NA	0
44	Correct	130	616	1426	0	1	2	1185600	683	1	hit	600	0
44	Correct	131	617	1427	4	0	0	1186316	684	0	correct_rejection	NA	0
44	Correct	132	618	1428	5	0	0	1187033	683	0	correct_rejection	NA	0
44	Correct	133	619	1429	6	0	0	1187750	683	0	correct_rejection	NA	0
44	Correct	134	620	1430	6	0	0	1188466	684	0	correct_rejection	NA	0
44	Correct	135	621	1431	5	0	0	1189183	683	0	correct_rejection	NA	0
44	Correct	136	622	1432	4	0	0	1189900	683	0	correct_rejection	NA	0
44	Correct	137	623	1433	6	0	0	1190616	684	0	correct_rejection	NA	0
44	Correct	138	624	1434	5	0	0	1191333	683	0	correct_rejection	NA	0
44	Correct	139	625	1435	0	1	1	1192050	683	1	hit	651	0
44	Correct	140	626	1436	4	0	0	1192766	684	0	correct_rejection	NA	0
44	Correct	141	627	1437	6	0	0	1193483	683	0	correct_rejection	NA	0
44	Correct	142	628	1438	5	0	0	1194199	684	0	correct_rejection	NA	0
44	Correct	143	629	1439	4	0	0	1194916	683	0	correct_rejection	NA	0
44	Correct	144	630	1440	0	1	3	1195633	683	1	hit	554	0
44	Correct	145	631	1441	9	0	0	1196349	684	0	correct_rejection	NA	0
44	Correct	146	632	1442	8	0	0	1197066	683	0	correct_rejection	NA	0
44	Correct	147	633	1443	7	0	0	1197783	683	0	correct_rejection	NA	0
44	Correct	148	634	1444	9	0	0	1198499	684	0	correct_rejection	NA	0
44	Correct	149	635	1445	8	0	0	1199216	683	0	correct_rejection	NA	0
44	Correct	150	636	1446	7	0	0	1199933	683	0	correct_rejection	NA	0
44	Correct	151	637	1447	9	0	0	1200649	684	0	correct_rejection	NA	0
44	Correct	152	638	1448	8	0	0	1201366	683	0	correct_rejection	NA	0
44	Correct	153	639	1449	7	0	0	1202083	683	0	correct_rejection	NA	0
44	Correct	154	640	1450	7	0	0	1202799	684	0	correct_rejection	NA	0
44	Correct	155	641	1451	8	0	0	1203516	683	0	correct_rejection	NA	0
44	Correct	156	642	1452	9	0	0	1204233	683	0	correct_rejection	NA	0
44	Correct	157	643	1453	7	0	0	1204949	684	0	correct_rejection	NA	0
44	Correct	158	644	1454	8	0	0	1205666	683	0	correct_rejection	NA	0
44	Correct	159	645	1455	9	0	0	1206383	683	0	correct_rejection	NA	0
44	Correct	160	646	1456	7	0	0	1207099	684	0	correct_rejection	NA	0
44	Correct	161	647	1457	8	0	0	1207816	683	0	correct_rejection	NA	0
44	Correct	162	648	1458	9	0	0	1208533	683	0	correct_rejection	NA	0
44	Nonet	1	487	1459	7	0	0	1218049	684	0	correct_rejection	NA	7627
44	Nonet	2	488	1460	8	0	0	1218766	683	0	correct_rejection	NA	0
44	Nonet	3	489	1461	9	0	0	1219482	684	0	correct_rejection	NA	0
44	Nonet	4	490	1462	0	1	2	1220199	683	1	hit	480	0
44	Nonet	5	491	1463	7	0	0	1220916	683	0	correct_rejection	NA	0
44	Nonet	6	492	1464	8	0	0	1221632	684	0	correct_rejection	NA	0
44	Nonet	7	493	1465	9	0	0	1222349	683	0	correct_rejection	NA	0
44	Nonet	8	494	1466	7	0	0	1223066	683	0	correct_rejection	NA	0
44	Nonet	9	495	1467	8	0	0	1223782	684	0	correct_rejection	NA	0
44	Nonet	10	496	1468	9	0	0	1224499	683	0	correct_rejection	NA	0
44	Nonet	11	497	1469	7	0	0	1225216	683	0	correct_rejection	NA	0
44	Nonet	12	498	1470	8	0	0	1225932	684	0	correct_rejection	NA	0
44	Nonet	13	499	1471	0	1	1	1226649	683	1	hit	530	0
44	Nonet	14	500	1472	9	0	0	1227366	683	0	correct_rejection	NA	0
44	Nonet	15	501	1473	7	0	0	1228082	684	0	correct_rejection	NA	0
44	Nonet	16	502	1474	0	1	1	1228799	683	1	hit	530	0
44	Nonet	17	503	1475	8	0	0	1229516	683	0	correct_rejection	NA	0
44	Nonet	18	504	1476	9	0	0	1230232	684	0	correct_rejection	NA	0
44	Nonet	19	505	1477	7	0	0	1230949	683	0	correct_rejection	NA	0
44	Nonet	20	506	1478	8	0	0	1231666	683	0	correct_rejection	NA	0
44	Nonet	21	507	1479	9	0	0	1232382	684	0	correct_rejection	NA	0
44	Nonet	22	508	1480	9	0	0	1233099	683	0	correct_rejection	NA	0
44	Nonet	23	509	1481	8	0	0	1233816	683	0	correct_rejection	NA	0
44	Nonet	24	510	1482	7	0	0	1234532	684	0	correct_rejection	NA	0
44	Nonet	25	511	1483	9	0	0	1235249	683	0	correct_rejection	NA	0
44	Nonet	26	512	1484	8	0	0	1235966	683	0	correct_rejection	NA	0
44	Nonet	27	513	1485	7	0	0	1236682	684	0	correct_rejection	NA	0
44	Nonet	28	514	1486	9	0	0	1237399	683	0	correct_rejection	NA	0
44	Nonet	29	515	1487	0	1	1	1238116	683	1	hit	461	0
44	Nonet	30	516	1488	8	0	0	1238832	684	0	correct_rejection	NA	0
44	Nonet	31	517	1489	7	0	0	1239549	683	0	correct_rejection	NA	0
44	Nonet	32	518	1490	9	0	0	1240266	683	0	correct_rejection	NA	0
44	Nonet	33	519	1491	8	0	0	1240982	684	0	correct_rejection	NA	0
44	Nonet	34	520	1492	7	0	0	1241699	683	0	correct_rejection	NA	0
44	Nonet	35	521	1493	9	0	0	1242415	684	0	correct_rejection	NA	0
44	Nonet	36	522	1494	0	1	1	1243132	683	1	hit	502	0
44	Nonet	37	523	1495	8	0	0	1243849	683	0	correct_rejection	NA	0
44	Nonet	38	524	1496	7	0	0	1244565	684	0	correct_rejection	NA	0
44	Nonet	39	525	1497	9	0	0	1245282	683	0	correct_rejection	NA	0
44	Nonet	40	526	1498	8	0	0	1245999	683	0	correct_rejection	NA	0
44	Nonet	41	527	1499	7	0	0	1246715	684	0	correct_rejection	NA	0
44	Nonet	42	528	1500	4	0	0	1247432	683	0	correct_rejection	NA	0
44	Nonet	43	529	1501	5	0	0	1248149	683	0	correct_rejection	NA	0
44	Nonet	44	530	1502	6	0	0	1248865	684	0	correct_rejection	NA	0
44	Nonet	45	531	1503	4	0	0	1249582	683	0	correct_rejection	NA	0
44	Nonet	46	532	1504	5	0	0	1250299	683	0	correct_rejection	NA	0
44	Nonet	47	533	1505	0	1	1	1251015	684	1	hit	514	0
44	Nonet	48	534	1506	6	0	0	1251732	683	0	correct_rejection	NA	0
44	Nonet	49	535	1507	4	0	0	1252449	683	0	correct_rejection	NA	0
44	Nonet	50	536	1508	5	0	0	1253165	684	0	correct_rejection	NA	0
44	Nonet	51	537	1509	6	0	0	1253882	683	0	correct_rejection	NA	0
44	Nonet	52	538	1510	6	0	0	1254599	683	0	correct_rejection	NA	0
44	Nonet	53	539	1511	5	0	0	1255315	684	0	correct_rejection	NA	0
44	Nonet	54	540	1512	4	0	0	1256032	683	0	correct_rejection	NA	0
44	Nonet	55	541	1513	6	0	0	1256749	683	0	correct_rejection	NA	0
44	Nonet	56	542	1514	5	0	0	1257465	684	0	correct_rejection	NA	0
44	Nonet	57	543	1515	4	0	0	1258182	683	0	correct_rejection	NA	0
44	Nonet	58	544	1516	6	0	0	1258899	683	0	correct_rejection	NA	0
44	Nonet	59	545	1517	5	0	0	1259615	684	0	correct_rejection	NA	0
44	Nonet	60	546	1518	4	0	0	1260332	683	0	correct_rejection	NA	0
44	Nonet	61	547	1519	4	0	0	1261049	683	0	correct_rejection	NA	0
44	Nonet	62	548	1520	5	0	0	1261765	684	0	correct_rejection	NA	0
44	Nonet	63	549	1521	6	0	0	1262482	683	0	correct_rejection	NA	0
44	Nonet	64	550	1522	4	0	0	1263199	683	0	correct_rejection	NA	0
44	Nonet	65	551	1523	5	0	0	1263915	684	0	correct_rejection	NA	0
44	Nonet	66	552	1524	6	0	0	1264632	683	0	correct_rejection	NA	0
44	Nonet	67	553	1525	0	1	2	1265348	684	1	hit	655	0
44	Nonet	68	554	1526	4	0	0	1266065	683	0	correct_rejection	NA	0
44	Nonet	69	555	1527	5	0	0	1266782	683	0	correct_rejection	NA	0
44	Nonet	70	556	1528	6	0	0	1267498	684	0	correct_rejection	NA	0
44	Nonet	71	557	1529	7	0	0	1268215	683	0	correct_rejection	NA	0
44	Nonet	72	558	1530	8	0	0	1268932	683	0	correct_rejection	NA	0
44	Nonet	73	559	1531	9	0	0	1269648	684	0	correct_rejection	NA	0
44	Nonet	74	560	1532	7	0	0	1270365	683	0	correct_rejection	NA	0
44	Nonet	75	561	1533	8	0	0	1271082	683	0	correct_rejection	NA	0
44	Nonet	76	562	1534	9	0	0	1271798	684	0	correct_rejection	NA	0
44	Nonet	77	563	1535	7	0	0	1272515	683	0	correct_rejection	NA	0
44	Nonet	78	564	1536	8	0	0	1273232	683	0	correct_rejection	NA	0
44	Nonet	79	565	1537	9	0	0	1273948	684	0	correct_rejection	NA	0
44	Nonet	80	566	1538	6	0	0	1274665	683	0	correct_rejection	NA	0
44	Nonet	81	567	1539	5	0	0	1275382	683	0	correct_rejection	NA	0
44	Nonet	82	568	1540	0	1	1	1276098	684	1	hit	613	0
44	Nonet	83	569	1541	4	0	0	1276815	683	0	correct_rejection	NA	0
44	Nonet	84	570	1542	6	0	0	1277532	683	0	correct_rejection	NA	0
44	Nonet	85	571	1543	5	0	0	1278248	684	0	correct_rejection	NA	0
44	Nonet	86	572	1544	4	0	0	1278965	683	0	correct_rejection	NA	0
44	Nonet	87	573	1545	0	1	2	1279682	683	1	hit	562	0
44	Nonet	88	574	1546	6	0	0	1280398	684	0	correct_rejection	NA	0
44	Nonet	89	575	1547	5	0	0	1281115	683	0	correct_rejection	NA	0
44	Nonet	90	576	1548	4	0	0	1281832	683	0	correct_rejection	NA	0
44	Nonet	91	577	1549	9	0	0	1282548	684	0	correct_rejection	NA	0
44	Nonet	92	578	1550	8	0	0	1283265	683	0	correct_rejection	NA	0
44	Nonet	93	579	1551	7	0	0	1283982	683	0	correct_rejection	NA	0
44	Nonet	94	580	1552	9	0	0	1284698	684	0	correct_rejection	NA	0
44	Nonet	95	581	1553	8	0	0	1285415	683	0	correct_rejection	NA	0
44	Nonet	96	582	1554	7	0	0	1286132	683	0	correct_rejection	NA	0
44	Nonet	97	583	1555	0	1	2	1286848	684	1	hit	603	0
44	Nonet	98	584	1556	9	0	0	1287565	683	0	correct_rejection	NA	0
44	Nonet	99	585	1557	8	0	0	1288281	684	0	correct_rejection	NA	0
44	Nonet	100	586	1558	7	0	0	1288998	684	0	correct_rejection	NA	0
44	Nonet	101	587	1559	6	0	0	1289715	683	0	correct_rejection	NA	0
44	Nonet	102	588	1560	5	0	0	1290431	684	0	correct_rejection	NA	0
44	Nonet	103	589	1561	0	1	1	1291148	683	1	hit	500	0
44	Nonet	104	590	1562	4	0	0	1291865	683	0	correct_rejection	NA	0
44	Nonet	105	591	1563	6	0	0	1292581	684	0	correct_rejection	NA	0
44	Nonet	106	592	1564	5	0	0	1293298	683	0	correct_rejection	NA	0
44	Nonet	107	593	1565	4	0	0	1294015	683	0	correct_rejection	NA	0
44	Nonet	108	594	1566	6	0	0	1294731	684	0	correct_rejection	NA	0
44	Nonet	109	595	1567	5	0	0	1295448	683	0	correct_rejection	NA	0
44	Nonet	110	596	1568	4	0	0	1296165	683	0	correct_rejection	NA	0
44	Nonet	111	597	1569	6	0	0	1296881	684	0	correct_rejection	NA	0
44	Nonet	112	598	1570	5	0	0	1297598	683	0	correct_rejection	NA	0
44	Nonet	113	599	1571	4	0	0	1298315	683	0	correct_rejection	NA	0
44	Nonet	114	600	1572	6	0	0	1299031	684	0	correct_rejection	NA	0
44	Nonet	115	601	1573	5	0	0	1299748	683	0	correct_rejection	NA	0
44	Nonet	116	602	1574	4	0	0	1300465	683	0	correct_rejection	NA	0
44	Nonet	117	603	1575	6	0	0	1301181	684	0	correct_rejection	NA	0
44	Nonet	118	604	1576	0	1	1	1301898	683	1	hit	506	0
44	Nonet	119	605	1577	5	0	0	1302615	683	0	correct_rejection	NA	0
44	Nonet	120	606	1578	4	0	0	1303331	684	0	correct_rejection	NA	0
44	Nonet	121	607	1579	7	0	0	1304048	683	0	correct_rejection	NA	0
44	Nonet	122	608	1580	8	0	0	1304765	683	0	correct_rejection	NA	0
44	Nonet	123	609	1581	0	1	1	1305481	684	1	hit	550	0
44	Nonet	124	610	1582	9	0	0	1306198	683	0	correct_rejection	NA	0
44	Nonet	125	611	1583	7	0	0	1306915	683	0	correct_rejection	NA	0
44	Nonet	126	612	1584	0	1	1	1307631	684	1	hit	491	0
44	Nonet	127	613	1585	8	0	0	1308348	683	0	correct_rejection	NA	0
44	Nonet	128	614	1586	9	0	0	1309065	683	0	correct_rejection	NA	0
44	Nonet	129	615	1587	0	1	2	1309781	684	1	hit	493	0
44	Nonet	130	616	1588	7	0	0	1310498	683	0	correct_rejection	NA	0
44	Nonet	131	617	1589	8	0	0	1311215	683	0	correct_rejection	NA	0
44	Nonet	132	618	1590	9	0	0	1311931	684	0	correct_rejection	NA	0
44	Nonet	133	619	1591	4	0	0	1312648	683	0	correct_rejection	NA	0
44	Nonet	134	620	1592	5	0	0	1313364	684	0	correct_rejection	NA	0
44	Nonet	135	621	1593	6	0	0	1314081	683	0	correct_rejection	NA	0
44	Nonet	136	622	1594	4	0	0	1314798	683	0	correct_rejection	NA	0
44	Nonet	137	623	1595	5	0	0	1315514	684	0	correct_rejection	NA	0
44	Nonet	138	624	1596	6	0	0	1316231	683	0	correct_rejection	NA	0
44	Nonet	139	625	1597	4	0	0	1316948	683	0	correct_rejection	NA	0
