ID	block	trial_block	trial_cat	trial_total	number	violation	level_violation	onset	duration	Response	Hit_Miss	RT	pre_trial_fixcross_ISI
first_trigger_at: 11126
trigger nr 53 at 63125
45	Single	1	649	1	8	0	0	70532	683	0	correct_rejection	NA	7337
45	Single	2	650	2	9	0	0	71249	683	0	correct_rejection	NA	0
45	Single	3	651	3	8	0	0	71965	684	0	correct_rejection	NA	0
45	Single	4	652	4	5	0	0	72682	683	0	correct_rejection	NA	0
45	Single	5	653	5	4	0	0	73399	683	0	correct_rejection	NA	0
45	Single	6	654	6	4	0	0	74115	684	0	correct_rejection	NA	0
45	Single	7	655	7	9	0	0	74832	683	0	correct_rejection	NA	0
45	Single	8	656	8	9	0	0	75549	683	0	correct_rejection	NA	0
45	Single	9	657	9	4	0	0	76265	684	0	correct_rejection	NA	0
45	Single	10	658	10	7	0	0	76982	683	0	correct_rejection	NA	0
45	Single	11	659	11	4	0	0	77699	683	0	correct_rejection	NA	0
45	Single	12	660	12	5	0	0	78415	684	0	correct_rejection	NA	0
45	Single	13	661	13	7	0	0	79132	683	0	correct_rejection	NA	0
45	Single	14	662	14	6	0	0	79849	683	0	correct_rejection	NA	0
45	Single	15	663	15	8	0	0	80565	684	0	correct_rejection	NA	0
45	Single	16	664	16	7	0	0	81282	683	0	correct_rejection	NA	0
45	Single	17	665	17	5	0	0	81999	683	0	correct_rejection	NA	0
45	Single	18	666	18	5	0	0	82715	684	0	correct_rejection	NA	0
45	Single	19	667	19	9	0	0	83432	683	0	correct_rejection	NA	0
45	Single	20	668	20	5	0	0	84148	684	0	correct_rejection	NA	0
45	Single	21	669	21	0	1	1	84865	683	1	hit	509	0
45	Single	22	670	22	8	0	0	85582	683	0	correct_rejection	NA	0
45	Single	23	671	23	6	0	0	86298	684	0	correct_rejection	NA	0
45	Single	24	672	24	5	0	0	87015	683	0	correct_rejection	NA	0
45	Single	25	673	25	6	0	0	87732	683	0	correct_rejection	NA	0
45	Single	26	674	26	6	0	0	88448	684	0	correct_rejection	NA	0
45	Single	27	675	27	7	0	0	89165	683	0	correct_rejection	NA	0
45	Single	28	676	28	9	0	0	89882	683	0	correct_rejection	NA	0
45	Single	29	677	29	6	0	0	90598	684	0	correct_rejection	NA	0
45	Single	30	678	30	9	0	0	91315	683	0	correct_rejection	NA	0
45	Single	31	679	31	7	0	0	92032	683	0	correct_rejection	NA	0
45	Single	32	680	32	7	0	0	92748	684	0	correct_rejection	NA	0
45	Single	33	681	33	0	1	1	93465	683	1	hit	546	0
45	Single	34	682	34	8	0	0	94182	683	0	correct_rejection	NA	0
45	Single	35	683	35	8	0	0	94898	684	0	correct_rejection	NA	0
45	Single	36	684	36	4	0	0	95615	683	0	correct_rejection	NA	0
45	Single	37	685	37	6	0	0	96332	683	0	correct_rejection	NA	0
45	Single	38	686	38	4	0	0	97048	684	0	correct_rejection	NA	0
45	Single	39	687	39	7	0	0	97765	683	0	correct_rejection	NA	0
45	Single	40	688	40	9	0	0	98482	683	0	correct_rejection	NA	0
45	Single	41	689	41	5	0	0	99198	684	0	correct_rejection	NA	0
45	Single	42	690	42	9	0	0	99915	683	0	correct_rejection	NA	0
45	Single	43	691	43	4	0	0	100632	683	0	correct_rejection	NA	0
45	Single	44	692	44	8	0	0	101348	684	0	correct_rejection	NA	0
45	Single	45	693	45	4	0	0	102065	683	0	correct_rejection	NA	0
45	Single	46	694	46	9	0	0	102782	683	0	correct_rejection	NA	0
45	Single	47	695	47	7	0	0	103498	684	0	correct_rejection	NA	0
45	Single	48	696	48	8	0	0	104215	683	0	correct_rejection	NA	0
45	Single	49	697	49	9	0	0	104932	683	0	correct_rejection	NA	0
45	Single	50	698	50	6	0	0	105648	684	0	correct_rejection	NA	0
45	Single	51	699	51	8	0	0	106365	683	0	correct_rejection	NA	0
45	Single	52	700	52	8	0	0	107082	683	0	correct_rejection	NA	0
45	Single	53	701	53	5	0	0	107798	684	0	correct_rejection	NA	0
45	Single	54	702	54	8	0	0	108515	683	0	correct_rejection	NA	0
45	Single	55	703	55	7	0	0	109232	683	0	correct_rejection	NA	0
45	Single	56	704	56	7	0	0	109948	684	0	correct_rejection	NA	0
45	Single	57	705	57	4	0	0	110665	683	0	correct_rejection	NA	0
45	Single	58	706	58	0	1	1	111381	684	1	hit	494	0
45	Single	59	707	59	4	0	0	112098	684	0	correct_rejection	NA	0
45	Single	60	708	60	6	0	0	112815	683	0	correct_rejection	NA	0
45	Single	61	709	61	5	0	0	113531	684	0	correct_rejection	NA	0
45	Single	62	710	62	4	0	0	114248	684	0	correct_rejection	NA	0
45	Single	63	711	63	7	0	0	114965	683	0	correct_rejection	NA	0
45	Single	64	712	64	6	0	0	115681	684	0	correct_rejection	NA	0
45	Single	65	713	65	6	0	0	116398	683	0	correct_rejection	NA	0
45	Single	66	714	66	9	0	0	117115	683	0	correct_rejection	NA	0
45	Single	67	715	67	0	1	1	117831	684	1	hit	578	0
45	Single	68	716	68	9	0	0	118548	683	0	correct_rejection	NA	0
45	Single	69	717	69	8	0	0	119265	683	0	correct_rejection	NA	0
45	Single	70	718	70	0	1	1	119981	684	1	hit	546	0
45	Single	71	719	71	6	0	0	120698	683	0	correct_rejection	NA	0
45	Single	72	720	72	4	0	0	121415	683	0	correct_rejection	NA	0
45	Single	73	721	73	5	0	0	122131	684	0	correct_rejection	NA	0
45	Single	74	722	74	5	0	0	122848	683	0	correct_rejection	NA	0
45	Single	75	723	75	0	1	1	123565	683	1	hit	417	0
45	Single	76	724	76	6	0	0	124281	684	0	correct_rejection	NA	0
45	Single	77	725	77	7	0	0	124998	683	0	correct_rejection	NA	0
45	Single	78	726	78	0	1	1	125715	683	1	hit	452	0
45	Single	79	727	79	5	0	0	126431	684	0	correct_rejection	NA	0
45	Single	80	728	80	5	0	0	127148	683	0	correct_rejection	NA	0
45	Single	81	729	81	4	0	0	127865	683	0	correct_rejection	NA	0
45	Single	82	730	82	0	1	1	128581	684	1	hit	443	0
45	Single	83	731	83	9	0	0	129298	683	0	correct_rejection	NA	0
45	Single	84	732	84	5	0	0	130015	683	0	correct_rejection	NA	0
45	Single	85	733	85	6	0	0	130731	684	0	correct_rejection	NA	0
45	Single	86	734	86	4	0	0	131448	683	0	correct_rejection	NA	0
45	Single	87	735	87	0	1	1	132165	683	1	hit	466	0
45	Single	88	736	88	7	0	0	132881	684	0	correct_rejection	NA	0
45	Single	89	737	89	9	0	0	133598	683	0	correct_rejection	NA	0
45	Single	90	738	90	8	0	0	134315	683	0	correct_rejection	NA	0
45	Single	91	739	91	8	0	0	135031	684	0	correct_rejection	NA	0
45	Single	92	740	92	7	0	0	135748	683	0	correct_rejection	NA	0
45	Single	93	741	93	8	0	0	136465	683	0	correct_rejection	NA	0
45	Single	94	742	94	0	1	1	137181	684	1	hit	474	0
45	Single	95	743	95	4	0	0	137898	683	0	correct_rejection	NA	0
45	Single	96	744	96	8	0	0	138614	684	0	correct_rejection	NA	0
45	Single	97	745	97	5	0	0	139331	684	0	correct_rejection	NA	0
45	Single	98	746	98	5	0	0	140048	683	0	correct_rejection	NA	0
45	Single	99	747	99	8	0	0	140764	684	0	correct_rejection	NA	0
45	Single	100	748	100	9	0	0	141481	683	0	correct_rejection	NA	0
45	Single	101	749	101	4	0	0	142198	683	0	correct_rejection	NA	0
45	Single	102	750	102	4	0	0	142914	684	0	correct_rejection	NA	0
45	Single	103	751	103	0	1	1	143631	683	1	hit	484	0
45	Single	104	752	104	5	0	0	144348	683	0	correct_rejection	NA	0
45	Single	105	753	105	9	0	0	145064	684	0	correct_rejection	NA	0
45	Single	106	754	106	9	0	0	145781	683	0	correct_rejection	NA	0
45	Single	107	755	107	7	0	0	146498	683	0	correct_rejection	NA	0
45	Single	108	756	108	6	0	0	147214	684	0	correct_rejection	NA	0
45	Single	109	757	109	7	0	0	147931	683	0	correct_rejection	NA	0
45	Single	110	758	110	7	0	0	148648	683	0	correct_rejection	NA	0
45	Single	111	759	111	5	0	0	149364	684	0	correct_rejection	NA	0
45	Single	112	760	112	0	1	1	150081	683	1	hit	521	0
45	Single	113	761	113	7	0	0	150798	683	0	correct_rejection	NA	0
45	Single	114	762	114	4	0	0	151514	684	0	correct_rejection	NA	0
45	Single	115	763	115	6	0	0	152231	683	0	correct_rejection	NA	0
45	Single	116	764	116	9	0	0	152948	683	0	correct_rejection	NA	0
45	Single	117	765	117	6	0	0	153664	684	0	correct_rejection	NA	0
45	Single	118	766	118	6	0	0	154381	683	0	correct_rejection	NA	0
45	Single	119	767	119	8	0	0	155098	683	0	correct_rejection	NA	0
45	Single	120	768	120	6	0	0	155814	684	0	correct_rejection	NA	0
45	Single	121	769	121	0	1	1	156531	683	1	hit	522	0
45	Single	122	770	122	7	0	0	157248	683	0	correct_rejection	NA	0
45	Single	123	771	123	7	0	0	157964	684	0	correct_rejection	NA	0
45	Single	124	772	124	8	0	0	158681	683	0	correct_rejection	NA	0
45	Single	125	773	125	7	0	0	159398	683	0	correct_rejection	NA	0
45	Single	126	774	126	6	0	0	160114	684	0	correct_rejection	NA	0
45	Single	127	775	127	9	0	0	160831	683	0	correct_rejection	NA	0
45	Single	128	776	128	7	0	0	161548	683	0	correct_rejection	NA	0
45	Single	129	777	129	0	1	1	162264	684	1	hit	579	0
45	Single	130	778	130	4	0	0	162981	683	0	correct_rejection	NA	0
45	Single	131	779	131	9	0	0	163698	683	0	correct_rejection	NA	0
45	Single	132	780	132	6	0	0	164414	684	0	correct_rejection	NA	0
45	Single	133	781	133	5	0	0	165131	683	0	correct_rejection	NA	0
45	Single	134	782	134	6	0	0	165847	684	0	correct_rejection	NA	0
45	Single	135	783	135	0	1	1	166564	684	1	hit	508	0
45	Single	136	784	136	6	0	0	167281	683	0	correct_rejection	NA	0
45	Single	137	785	137	7	0	0	167997	684	0	correct_rejection	NA	0
45	Single	138	786	138	9	0	0	168714	683	0	correct_rejection	NA	0
45	Single	139	787	139	9	0	0	169431	683	0	correct_rejection	NA	0
45	Single	140	788	140	4	0	0	170147	684	0	correct_rejection	NA	0
45	Single	141	789	141	5	0	0	170864	683	0	correct_rejection	NA	0
45	Single	142	790	142	8	0	0	171581	683	0	correct_rejection	NA	0
45	Single	143	791	143	6	0	0	172297	684	0	correct_rejection	NA	0
45	Single	144	792	144	8	0	0	173014	683	0	correct_rejection	NA	0
45	Single	145	793	145	9	0	0	173731	683	0	correct_rejection	NA	0
45	Single	146	794	146	5	0	0	174447	684	0	correct_rejection	NA	0
45	Single	147	795	147	7	0	0	175164	683	0	correct_rejection	NA	0
45	Single	148	796	148	5	0	0	175881	683	0	correct_rejection	NA	0
45	Single	149	797	149	5	0	0	176597	684	0	correct_rejection	NA	0
45	Single	150	798	150	9	0	0	177314	683	0	correct_rejection	NA	0
45	Single	151	799	151	8	0	0	178031	683	0	correct_rejection	NA	0
45	Single	152	800	152	0	1	1	178747	684	1	hit	509	0
45	Single	153	801	153	5	0	0	179464	683	0	correct_rejection	NA	0
45	Single	154	802	154	4	0	0	180181	683	0	correct_rejection	NA	0
45	Single	155	803	155	6	0	0	180897	684	0	correct_rejection	NA	0
45	Single	156	804	156	0	1	1	181614	683	1	hit	585	0
45	Single	157	805	157	4	0	0	182331	683	0	correct_rejection	NA	0
45	Single	158	806	158	4	0	0	183047	684	0	correct_rejection	NA	0
45	Single	159	807	159	8	0	0	183764	683	0	correct_rejection	NA	0
45	Single	160	808	160	0	1	1	184481	683	1	hit	477	0
45	Single	161	809	161	8	0	0	185197	684	0	correct_rejection	NA	0
45	Single	162	810	162	4	0	0	185914	683	0	correct_rejection	NA	0
45	Triplet	1	487	163	6	0	0	195414	683	0	correct_rejection	NA	7226
45	Triplet	2	488	164	5	0	0	196130	684	0	correct_rejection	NA	0
45	Triplet	3	489	165	4	0	0	196847	683	0	correct_rejection	NA	0
45	Triplet	4	490	166	4	0	0	197564	683	0	correct_rejection	NA	0
45	Triplet	5	491	167	5	0	0	198280	684	0	correct_rejection	NA	0
45	Triplet	6	492	168	6	0	0	198997	683	0	correct_rejection	NA	0
45	Triplet	7	493	169	9	0	0	199714	683	0	correct_rejection	NA	0
45	Triplet	8	494	170	8	0	0	200430	684	0	correct_rejection	NA	0
45	Triplet	9	495	171	7	0	0	201147	683	0	correct_rejection	NA	0
45	Triplet	10	496	172	0	1	2	201864	683	1	hit	432	0
45	Triplet	11	497	173	4	0	0	202580	684	0	correct_rejection	NA	0
45	Triplet	12	498	174	5	0	0	203297	683	0	correct_rejection	NA	0
45	Triplet	13	499	175	0	1	1	204014	683	1	hit	514	0
45	Triplet	14	500	176	6	0	0	204730	684	0	correct_rejection	NA	0
45	Triplet	15	501	177	6	0	0	205447	683	0	correct_rejection	NA	0
45	Triplet	16	502	178	5	0	0	206164	683	0	correct_rejection	NA	0
45	Triplet	17	503	179	0	1	1	206880	684	1	hit	461	0
45	Triplet	18	504	180	4	0	0	207597	683	0	correct_rejection	NA	0
45	Triplet	19	505	181	6	0	0	208314	683	0	correct_rejection	NA	0
45	Triplet	20	506	182	5	0	0	209030	684	0	correct_rejection	NA	0
45	Triplet	21	507	183	4	0	0	209747	683	0	correct_rejection	NA	0
45	Triplet	22	508	184	7	0	0	210464	683	0	correct_rejection	NA	0
45	Triplet	23	509	185	0	1	1	211180	684	1	hit	469	0
45	Triplet	24	510	186	8	0	0	211897	683	0	correct_rejection	NA	0
45	Triplet	25	511	187	9	0	0	212614	683	0	correct_rejection	NA	0
45	Triplet	26	512	188	6	0	0	213330	684	0	correct_rejection	NA	0
45	Triplet	27	513	189	0	1	1	214047	683	1	hit	506	0
45	Triplet	28	514	190	5	0	0	214764	683	0	correct_rejection	NA	0
45	Triplet	29	515	191	4	0	0	215480	684	0	correct_rejection	NA	0
45	Triplet	30	516	192	9	0	0	216197	683	0	correct_rejection	NA	0
45	Triplet	31	517	193	0	1	1	216914	683	1	hit	448	0
45	Triplet	32	518	194	8	0	0	217630	684	0	correct_rejection	NA	0
45	Triplet	33	519	195	7	0	0	218347	683	0	correct_rejection	NA	0
45	Triplet	34	520	196	9	0	0	219064	683	0	correct_rejection	NA	0
45	Triplet	35	521	197	8	0	0	219780	684	0	correct_rejection	NA	0
45	Triplet	36	522	198	0	1	1	220497	683	1	hit	472	0
45	Triplet	37	523	199	7	0	0	221213	684	0	correct_rejection	NA	0
45	Triplet	38	524	200	7	0	0	221930	684	0	correct_rejection	NA	0
45	Triplet	39	525	201	8	0	0	222647	683	0	correct_rejection	NA	0
45	Triplet	40	526	202	9	0	0	223363	684	0	correct_rejection	NA	0
45	Triplet	41	527	203	0	1	2	224080	683	1	hit	461	0
45	Triplet	42	528	204	4	0	0	224797	683	0	correct_rejection	NA	0
45	Triplet	43	529	205	5	0	0	225513	684	0	correct_rejection	NA	0
45	Triplet	44	530	206	6	0	0	226230	683	0	correct_rejection	NA	0
45	Triplet	45	531	207	4	0	0	226947	683	0	correct_rejection	NA	0
45	Triplet	46	532	208	5	0	0	227663	684	0	correct_rejection	NA	0
45	Triplet	47	533	209	6	0	0	228380	683	0	correct_rejection	NA	0
45	Triplet	48	534	210	7	0	0	229097	683	0	correct_rejection	NA	0
45	Triplet	49	535	211	8	0	0	229813	684	0	correct_rejection	NA	0
45	Triplet	50	536	212	9	0	0	230530	683	0	correct_rejection	NA	0
45	Triplet	51	537	213	7	0	0	231247	683	0	correct_rejection	NA	0
45	Triplet	52	538	214	8	0	0	231963	684	0	correct_rejection	NA	0
45	Triplet	53	539	215	0	1	1	232680	683	1	hit	506	0
45	Triplet	54	540	216	9	0	0	233397	683	0	correct_rejection	NA	0
45	Triplet	55	541	217	9	0	0	234113	684	0	correct_rejection	NA	0
45	Triplet	56	542	218	8	0	0	234830	683	0	correct_rejection	NA	0
45	Triplet	57	543	219	7	0	0	235547	683	0	correct_rejection	NA	0
45	Triplet	58	544	220	4	0	0	236263	684	0	correct_rejection	NA	0
45	Triplet	59	545	221	5	0	0	236980	683	0	correct_rejection	NA	0
45	Triplet	60	546	222	0	1	1	237697	683	1	hit	452	0
45	Triplet	61	547	223	6	0	0	238413	684	0	correct_rejection	NA	0
45	Triplet	62	548	224	7	0	0	239130	683	0	correct_rejection	NA	0
45	Triplet	63	549	225	8	0	0	239847	683	0	correct_rejection	NA	0
45	Triplet	64	550	226	9	0	0	240563	684	0	correct_rejection	NA	0
45	Triplet	65	551	227	6	0	0	241280	683	0	correct_rejection	NA	0
45	Triplet	66	552	228	0	1	1	241997	683	1	hit	462	0
45	Triplet	67	553	229	5	0	0	242713	684	0	correct_rejection	NA	0
45	Triplet	68	554	230	4	0	0	243430	683	0	correct_rejection	NA	0
45	Triplet	69	555	231	6	0	0	244147	683	0	correct_rejection	NA	0
45	Triplet	70	556	232	5	0	0	244863	684	0	correct_rejection	NA	0
45	Triplet	71	557	233	4	0	0	245580	683	0	correct_rejection	NA	0
45	Triplet	72	558	234	4	0	0	246297	683	0	correct_rejection	NA	0
45	Triplet	73	559	235	5	0	0	247013	684	0	correct_rejection	NA	0
45	Triplet	74	560	236	6	0	0	247730	683	0	correct_rejection	NA	0
45	Triplet	75	561	237	4	0	0	248447	683	0	correct_rejection	NA	0
45	Triplet	76	562	238	5	0	0	249163	684	0	correct_rejection	NA	0
45	Triplet	77	563	239	6	0	0	249880	683	0	correct_rejection	NA	0
45	Triplet	78	564	240	0	1	2	250596	684	1	hit	462	0
45	Triplet	79	565	241	6	0	0	251313	683	0	correct_rejection	NA	0
45	Triplet	80	566	242	5	0	0	252030	683	0	correct_rejection	NA	0
45	Triplet	81	567	243	4	0	0	252746	684	0	correct_rejection	NA	0
45	Triplet	82	568	244	7	0	0	253463	683	0	correct_rejection	NA	0
45	Triplet	83	569	245	0	1	1	254180	683	1	hit	469	0
45	Triplet	84	570	246	8	0	0	254896	684	0	correct_rejection	NA	0
45	Triplet	85	571	247	9	0	0	255613	683	0	correct_rejection	NA	0
45	Triplet	86	572	248	0	1	2	256330	683	1	hit	536	0
45	Triplet	87	573	249	9	0	0	257046	684	0	correct_rejection	NA	0
45	Triplet	88	574	250	8	0	0	257763	683	0	correct_rejection	NA	0
45	Triplet	89	575	251	0	1	1	258480	683	1	hit	452	0
45	Triplet	90	576	252	7	0	0	259196	684	0	correct_rejection	NA	0
45	Triplet	91	577	253	4	0	0	259913	683	0	correct_rejection	NA	0
45	Triplet	92	578	254	5	0	0	260630	683	0	correct_rejection	NA	0
45	Triplet	93	579	255	6	0	0	261346	684	0	correct_rejection	NA	0
45	Triplet	94	580	256	9	0	0	262063	683	0	correct_rejection	NA	0
45	Triplet	95	581	257	8	0	0	262780	683	0	correct_rejection	NA	0
45	Triplet	96	582	258	7	0	0	263496	684	0	correct_rejection	NA	0
45	Triplet	97	583	259	9	0	0	264213	683	0	correct_rejection	NA	0
45	Triplet	98	584	260	8	0	0	264930	683	0	correct_rejection	NA	0
45	Triplet	99	585	261	0	1	1	265646	684	1	hit	474	0
45	Triplet	100	586	262	7	0	0	266363	683	0	correct_rejection	NA	0
45	Triplet	101	587	263	6	0	0	267080	683	0	correct_rejection	NA	0
45	Triplet	102	588	264	5	0	0	267796	684	0	correct_rejection	NA	0
45	Triplet	103	589	265	4	0	0	268513	683	0	correct_rejection	NA	0
45	Triplet	104	590	266	9	0	0	269230	683	0	correct_rejection	NA	0
45	Triplet	105	591	267	8	0	0	269946	684	0	correct_rejection	NA	0
45	Triplet	106	592	268	7	0	0	270663	683	0	correct_rejection	NA	0
45	Triplet	107	593	269	7	0	0	271380	683	0	correct_rejection	NA	0
45	Triplet	108	594	270	8	0	0	272096	684	0	correct_rejection	NA	0
45	Triplet	109	595	271	9	0	0	272813	683	0	correct_rejection	NA	0
45	Triplet	110	596	272	7	0	0	273530	683	0	correct_rejection	NA	0
45	Triplet	111	597	273	8	0	0	274246	684	0	correct_rejection	NA	0
45	Triplet	112	598	274	9	0	0	274963	683	0	correct_rejection	NA	0
45	Triplet	113	599	275	6	0	0	275680	683	0	correct_rejection	NA	0
45	Triplet	114	600	276	5	0	0	276396	684	0	correct_rejection	NA	0
45	Triplet	115	601	277	4	0	0	277113	683	0	correct_rejection	NA	0
45	Triplet	116	602	278	0	1	2	277829	684	1	hit	470	0
45	Triplet	117	603	279	9	0	0	278546	683	0	correct_rejection	NA	0
45	Triplet	118	604	280	8	0	0	279263	683	0	correct_rejection	NA	0
45	Triplet	119	605	281	7	0	0	279979	684	0	correct_rejection	NA	0
45	Triplet	120	606	282	6	0	0	280696	683	0	correct_rejection	NA	0
45	Triplet	121	607	283	5	0	0	281413	683	0	correct_rejection	NA	0
45	Triplet	122	608	284	4	0	0	282129	684	0	correct_rejection	NA	0
45	Triplet	123	609	285	7	0	0	282846	683	0	correct_rejection	NA	0
45	Triplet	124	610	286	8	0	0	283563	683	0	correct_rejection	NA	0
45	Triplet	125	611	287	9	0	0	284279	684	0	correct_rejection	NA	0
45	Triplet	126	612	288	7	0	0	284996	683	0	correct_rejection	NA	0
45	Triplet	127	613	289	8	0	0	285713	683	0	correct_rejection	NA	0
45	Triplet	128	614	290	9	0	0	286429	684	0	correct_rejection	NA	0
45	Triplet	129	615	291	4	0	0	287146	683	0	correct_rejection	NA	0
45	Triplet	130	616	292	5	0	0	287863	683	0	correct_rejection	NA	0
45	Triplet	131	617	293	6	0	0	288579	684	0	correct_rejection	NA	0
45	Triplet	132	618	294	6	0	0	289296	683	0	correct_rejection	NA	0
45	Triplet	133	619	295	5	0	0	290013	683	0	correct_rejection	NA	0
45	Triplet	134	620	296	4	0	0	290729	684	0	correct_rejection	NA	0
45	Triplet	135	621	297	4	0	0	291446	683	0	correct_rejection	NA	0
45	Triplet	136	622	298	5	0	0	292163	683	0	correct_rejection	NA	0
45	Triplet	137	623	299	6	0	0	292879	684	0	correct_rejection	NA	0
45	Triplet	138	624	300	7	0	0	293596	683	0	correct_rejection	NA	0
45	Triplet	139	625	301	8	0	0	294313	683	0	correct_rejection	NA	0
45	Triplet	140	626	302	9	0	0	295029	684	0	correct_rejection	NA	0
45	Triplet	141	627	303	9	0	0	295746	683	0	correct_rejection	NA	0
45	Triplet	142	628	304	8	0	0	296463	683	0	correct_rejection	NA	0
45	Triplet	143	629	305	7	0	0	297179	684	0	correct_rejection	NA	0
45	Triplet	144	630	306	0	1	2	297896	683	1	hit	439	0
45	Triplet	145	631	307	9	0	0	298613	683	0	correct_rejection	NA	0
45	Triplet	146	632	308	8	0	0	299329	684	0	correct_rejection	NA	0
45	Triplet	147	633	309	7	0	0	300046	683	0	correct_rejection	NA	0
45	Triplet	148	634	310	4	0	0	300763	683	0	correct_rejection	NA	0
45	Triplet	149	635	311	5	0	0	301479	684	0	correct_rejection	NA	0
45	Triplet	150	636	312	6	0	0	302196	683	0	correct_rejection	NA	0
45	Triplet	151	637	313	4	0	0	302913	683	0	correct_rejection	NA	0
45	Triplet	152	638	314	5	0	0	303629	684	0	correct_rejection	NA	0
45	Triplet	153	639	315	6	0	0	304346	683	0	correct_rejection	NA	0
45	Triplet	154	640	316	9	0	0	305062	684	0	correct_rejection	NA	0
45	Triplet	155	641	317	8	0	0	305779	683	0	correct_rejection	NA	0
45	Triplet	156	642	318	7	0	0	306496	683	0	correct_rejection	NA	0
45	Triplet	157	643	319	7	0	0	307212	684	0	correct_rejection	NA	0
45	Triplet	158	644	320	8	0	0	307929	683	0	correct_rejection	NA	0
45	Triplet	159	645	321	9	0	0	308646	683	0	correct_rejection	NA	0
45	Triplet	160	646	322	6	0	0	309362	684	0	correct_rejection	NA	0
45	Triplet	161	647	323	5	0	0	310079	683	0	correct_rejection	NA	0
45	Triplet	162	648	324	4	0	0	310796	683	0	correct_rejection	NA	0
45	Correct	1	487	325	4	0	0	320912	684	0	correct_rejection	NA	7717
45	Correct	2	488	326	5	0	0	321629	683	0	correct_rejection	NA	0
45	Correct	3	489	327	6	0	0	322346	683	0	correct_rejection	NA	0
45	Correct	4	490	328	4	0	0	323062	684	0	correct_rejection	NA	0
45	Correct	5	491	329	0	1	1	323779	683	1	hit	452	0
45	Correct	6	492	330	5	0	0	324496	683	0	correct_rejection	NA	0
45	Correct	7	493	331	6	0	0	325212	684	0	correct_rejection	NA	0
45	Correct	8	494	332	0	1	2	325929	683	1	hit	517	0
45	Correct	9	495	333	4	0	0	326646	683	0	correct_rejection	NA	0
45	Correct	10	496	334	5	0	0	327362	684	0	correct_rejection	NA	0
45	Correct	11	497	335	6	0	0	328079	683	0	correct_rejection	NA	0
45	Correct	12	498	336	6	0	0	328796	683	0	correct_rejection	NA	0
45	Correct	13	499	337	5	0	0	329512	684	0	correct_rejection	NA	0
45	Correct	14	500	338	4	0	0	330229	683	0	correct_rejection	NA	0
45	Correct	15	501	339	0	1	2	330946	683	1	hit	452	0
45	Correct	16	502	340	6	0	0	331662	684	0	correct_rejection	NA	0
45	Correct	17	503	341	5	0	0	332379	683	0	correct_rejection	NA	0
45	Correct	18	504	342	4	0	0	333095	684	0	correct_rejection	NA	0
45	Correct	19	505	343	6	0	0	333812	684	0	correct_rejection	NA	0
45	Correct	20	506	344	0	1	1	334529	683	1	hit	553	0
45	Correct	21	507	345	5	0	0	335245	684	0	correct_rejection	NA	0
45	Correct	22	508	346	4	0	0	335962	683	0	correct_rejection	NA	0
45	Correct	23	509	347	9	0	0	336679	683	0	correct_rejection	NA	0
45	Correct	24	510	348	8	0	0	337395	684	0	correct_rejection	NA	0
45	Correct	25	511	349	7	0	0	338112	683	0	correct_rejection	NA	0
45	Correct	26	512	350	9	0	0	338829	683	0	correct_rejection	NA	0
45	Correct	27	513	351	0	1	1	339545	684	1	hit	392	0
45	Correct	28	514	352	8	0	0	340262	683	0	correct_rejection	NA	0
45	Correct	29	515	353	7	0	0	340979	683	0	correct_rejection	NA	0
45	Correct	30	516	354	9	0	0	341695	684	0	correct_rejection	NA	0
45	Correct	31	517	355	8	0	0	342412	683	0	correct_rejection	NA	0
45	Correct	32	518	356	0	1	1	343129	683	1	hit	493	0
45	Correct	33	519	357	7	0	0	343845	684	0	correct_rejection	NA	0
45	Correct	34	520	358	7	0	0	344562	683	0	correct_rejection	NA	0
45	Correct	35	521	359	8	0	0	345279	683	0	correct_rejection	NA	0
45	Correct	36	522	360	9	0	0	345995	684	0	correct_rejection	NA	0
45	Correct	37	523	361	7	0	0	346712	683	0	correct_rejection	NA	0
45	Correct	38	524	362	8	0	0	347429	683	0	correct_rejection	NA	0
45	Correct	39	525	363	9	0	0	348145	684	0	correct_rejection	NA	0
45	Correct	40	526	364	7	0	0	348862	683	0	correct_rejection	NA	0
45	Correct	41	527	365	8	0	0	349579	683	0	correct_rejection	NA	0
45	Correct	42	528	366	9	0	0	350295	684	0	correct_rejection	NA	0
45	Correct	43	529	367	4	0	0	351012	683	0	correct_rejection	NA	0
45	Correct	44	530	368	5	0	0	351729	683	0	correct_rejection	NA	0
45	Correct	45	531	369	6	0	0	352445	684	0	correct_rejection	NA	0
45	Correct	46	532	370	4	0	0	353162	683	0	correct_rejection	NA	0
45	Correct	47	533	371	5	0	0	353879	683	0	correct_rejection	NA	0
45	Correct	48	534	372	6	0	0	354595	684	0	correct_rejection	NA	0
45	Correct	49	535	373	4	0	0	355312	683	0	correct_rejection	NA	0
45	Correct	50	536	374	5	0	0	356029	683	0	correct_rejection	NA	0
45	Correct	51	537	375	0	1	1	356745	684	1	hit	475	0
45	Correct	52	538	376	6	0	0	357462	683	0	correct_rejection	NA	0
45	Correct	53	539	377	6	0	0	358179	683	0	correct_rejection	NA	0
45	Correct	54	540	378	5	0	0	358895	684	0	correct_rejection	NA	0
45	Correct	55	541	379	4	0	0	359612	683	0	correct_rejection	NA	0
45	Correct	56	542	380	6	0	0	360328	684	0	correct_rejection	NA	0
45	Correct	57	543	381	5	0	0	361045	684	0	correct_rejection	NA	0
45	Correct	58	544	382	4	0	0	361762	683	0	correct_rejection	NA	0
45	Correct	59	545	383	0	1	2	362478	684	1	hit	473	0
45	Correct	60	546	384	6	0	0	363195	683	0	correct_rejection	NA	0
45	Correct	61	547	385	5	0	0	363912	683	0	correct_rejection	NA	0
45	Correct	62	548	386	0	1	1	364628	684	1	hit	460	0
45	Correct	63	549	387	4	0	0	365345	683	0	correct_rejection	NA	0
45	Correct	64	550	388	9	0	0	366062	683	0	correct_rejection	NA	0
45	Correct	65	551	389	0	1	1	366778	684	1	hit	540	0
45	Correct	66	552	390	8	0	0	367495	683	0	correct_rejection	NA	0
45	Correct	67	553	391	7	0	0	368212	683	0	correct_rejection	NA	0
45	Correct	68	554	392	9	0	0	368928	684	0	correct_rejection	NA	0
45	Correct	69	555	393	8	0	0	369645	683	0	correct_rejection	NA	0
45	Correct	70	556	394	0	1	1	370362	683	1	hit	441	0
45	Correct	71	557	395	7	0	0	371078	684	0	correct_rejection	NA	0
45	Correct	72	558	396	9	0	0	371795	683	0	correct_rejection	NA	0
45	Correct	73	559	397	8	0	0	372512	683	0	correct_rejection	NA	0
45	Correct	74	560	398	7	0	0	373228	684	0	correct_rejection	NA	0
45	Correct	75	561	399	7	0	0	373945	683	0	correct_rejection	NA	0
45	Correct	76	562	400	8	0	0	374662	683	0	correct_rejection	NA	0
45	Correct	77	563	401	9	0	0	375378	684	0	correct_rejection	NA	0
45	Correct	78	564	402	7	0	0	376095	683	0	correct_rejection	NA	0
45	Correct	79	565	403	8	0	0	376812	683	0	correct_rejection	NA	0
45	Correct	80	566	404	9	0	0	377528	684	0	correct_rejection	NA	0
45	Correct	81	567	405	7	0	0	378245	683	0	correct_rejection	NA	0
45	Correct	82	568	406	8	0	0	378962	683	0	correct_rejection	NA	0
45	Correct	83	569	407	9	0	0	379678	684	0	correct_rejection	NA	0
45	Correct	84	570	408	4	0	0	380395	683	0	correct_rejection	NA	0
45	Correct	85	571	409	5	0	0	381112	683	0	correct_rejection	NA	0
45	Correct	86	572	410	6	0	0	381828	684	0	correct_rejection	NA	0
45	Correct	87	573	411	4	0	0	382545	683	0	correct_rejection	NA	0
45	Correct	88	574	412	5	0	0	383262	683	0	correct_rejection	NA	0
45	Correct	89	575	413	0	1	1	383978	684	1	hit	424	0
45	Correct	90	576	414	6	0	0	384695	683	0	correct_rejection	NA	0
45	Correct	91	577	415	4	0	0	385412	683	0	correct_rejection	NA	0
45	Correct	92	578	416	5	0	0	386128	684	0	correct_rejection	NA	0
45	Correct	93	579	417	6	0	0	386845	683	0	correct_rejection	NA	0
45	Correct	94	580	418	6	0	0	387561	684	0	correct_rejection	NA	0
45	Correct	95	581	419	0	1	1	388278	684	1	hit	539	0
45	Correct	96	582	420	5	0	0	388995	683	0	correct_rejection	NA	0
45	Correct	97	583	421	4	0	0	389711	684	0	correct_rejection	NA	0
45	Correct	98	584	422	6	0	0	390428	683	0	correct_rejection	NA	0
45	Correct	99	585	423	5	0	0	391145	683	0	correct_rejection	NA	0
45	Correct	100	586	424	4	0	0	391861	684	0	correct_rejection	NA	0
45	Correct	101	587	425	6	0	0	392578	683	0	correct_rejection	NA	0
45	Correct	102	588	426	5	0	0	393295	683	0	correct_rejection	NA	0
45	Correct	103	589	427	4	0	0	394011	684	0	correct_rejection	NA	0
45	Correct	104	590	428	9	0	0	394728	683	0	correct_rejection	NA	0
45	Correct	105	591	429	8	0	0	395445	683	0	correct_rejection	NA	0
45	Correct	106	592	430	7	0	0	396161	684	0	correct_rejection	NA	0
45	Correct	107	593	431	9	0	0	396878	683	0	correct_rejection	NA	0
45	Correct	108	594	432	8	0	0	397595	683	0	correct_rejection	NA	0
45	Correct	109	595	433	7	0	0	398311	684	0	correct_rejection	NA	0
45	Correct	110	596	434	9	0	0	399028	683	0	correct_rejection	NA	0
45	Correct	111	597	435	8	0	0	399745	683	0	correct_rejection	NA	0
45	Correct	112	598	436	7	0	0	400461	684	0	correct_rejection	NA	0
45	Correct	113	599	437	7	0	0	401178	683	0	correct_rejection	NA	0
45	Correct	114	600	438	8	0	0	401895	683	0	correct_rejection	NA	0
45	Correct	115	601	439	0	1	1	402611	684	1	hit	498	0
45	Correct	116	602	440	9	0	0	403328	683	0	correct_rejection	NA	0
45	Correct	117	603	441	7	0	0	404045	683	0	correct_rejection	NA	0
45	Correct	118	604	442	8	0	0	404761	684	0	correct_rejection	NA	0
45	Correct	119	605	443	9	0	0	405478	683	0	correct_rejection	NA	0
45	Correct	120	606	444	7	0	0	406195	683	0	correct_rejection	NA	0
45	Correct	121	607	445	8	0	0	406911	684	0	correct_rejection	NA	0
45	Correct	122	608	446	9	0	0	407628	683	0	correct_rejection	NA	0
45	Correct	123	609	447	0	1	4	408345	683	1	hit	503	0
45	Correct	124	610	448	4	0	0	409061	684	0	correct_rejection	NA	0
45	Correct	125	611	449	5	0	0	409778	683	0	correct_rejection	NA	0
45	Correct	126	612	450	6	0	0	410495	683	0	correct_rejection	NA	0
45	Correct	127	613	451	4	0	0	411211	684	0	correct_rejection	NA	0
45	Correct	128	614	452	5	0	0	411928	683	0	correct_rejection	NA	0
45	Correct	129	615	453	6	0	0	412645	683	0	correct_rejection	NA	0
45	Correct	130	616	454	0	1	2	413361	684	1	hit	448	0
45	Correct	131	617	455	4	0	0	414078	683	0	correct_rejection	NA	0
45	Correct	132	618	456	5	0	0	414795	683	0	correct_rejection	NA	0
45	Correct	133	619	457	6	0	0	415511	684	0	correct_rejection	NA	0
45	Correct	134	620	458	6	0	0	416228	683	0	correct_rejection	NA	0
45	Correct	135	621	459	5	0	0	416944	684	0	correct_rejection	NA	0
45	Correct	136	622	460	4	0	0	417661	683	0	correct_rejection	NA	0
45	Correct	137	623	461	6	0	0	418378	683	0	correct_rejection	NA	0
45	Correct	138	624	462	5	0	0	419094	684	0	correct_rejection	NA	0
45	Correct	139	625	463	0	1	1	419811	683	1	hit	467	0
45	Correct	140	626	464	4	0	0	420528	683	0	correct_rejection	NA	0
45	Correct	141	627	465	6	0	0	421244	684	0	correct_rejection	NA	0
45	Correct	142	628	466	5	0	0	421961	683	0	correct_rejection	NA	0
45	Correct	143	629	467	4	0	0	422678	683	0	correct_rejection	NA	0
45	Correct	144	630	468	0	1	3	423394	684	1	hit	455	0
45	Correct	145	631	469	9	0	0	424111	683	0	correct_rejection	NA	0
45	Correct	146	632	470	8	0	0	424828	683	0	correct_rejection	NA	0
45	Correct	147	633	471	7	0	0	425544	684	0	correct_rejection	NA	0
45	Correct	148	634	472	9	0	0	426261	683	0	correct_rejection	NA	0
45	Correct	149	635	473	8	0	0	426978	683	0	correct_rejection	NA	0
45	Correct	150	636	474	7	0	0	427694	684	0	correct_rejection	NA	0
45	Correct	151	637	475	9	0	0	428411	683	0	correct_rejection	NA	0
45	Correct	152	638	476	8	0	0	429128	683	0	correct_rejection	NA	0
45	Correct	153	639	477	7	0	0	429844	684	0	correct_rejection	NA	0
45	Correct	154	640	478	7	0	0	430561	683	0	correct_rejection	NA	0
45	Correct	155	641	479	8	0	0	431278	683	0	correct_rejection	NA	0
45	Correct	156	642	480	9	0	0	431994	684	0	correct_rejection	NA	0
45	Correct	157	643	481	7	0	0	432711	683	0	correct_rejection	NA	0
45	Correct	158	644	482	8	0	0	433428	683	0	correct_rejection	NA	0
45	Correct	159	645	483	9	0	0	434144	684	0	correct_rejection	NA	0
45	Correct	160	646	484	7	0	0	434861	683	0	correct_rejection	NA	0
45	Correct	161	647	485	8	0	0	435578	683	0	correct_rejection	NA	0
45	Correct	162	648	486	9	0	0	436294	684	0	correct_rejection	NA	0
45	Nonet	1	487	487	7	0	0	445811	683	0	correct_rejection	NA	7626
45	Nonet	2	488	488	8	0	0	446527	684	0	correct_rejection	NA	0
45	Nonet	3	489	489	9	0	0	447244	683	0	correct_rejection	NA	0
45	Nonet	4	490	490	0	1	2	447961	683	1	hit	468	0
45	Nonet	5	491	491	7	0	0	448677	684	0	correct_rejection	NA	0
45	Nonet	6	492	492	8	0	0	449394	683	0	correct_rejection	NA	0
45	Nonet	7	493	493	9	0	0	450111	683	0	correct_rejection	NA	0
45	Nonet	8	494	494	7	0	0	450827	684	0	correct_rejection	NA	0
45	Nonet	9	495	495	8	0	0	451544	683	0	correct_rejection	NA	0
45	Nonet	10	496	496	9	0	0	452261	683	0	correct_rejection	NA	0
45	Nonet	11	497	497	7	0	0	452977	684	0	correct_rejection	NA	0
45	Nonet	12	498	498	8	0	0	453694	683	0	correct_rejection	NA	0
45	Nonet	13	499	499	0	1	1	454411	683	1	hit	469	0
45	Nonet	14	500	500	9	0	0	455127	684	0	correct_rejection	NA	0
45	Nonet	15	501	501	7	0	0	455844	683	0	correct_rejection	NA	0
45	Nonet	16	502	502	0	1	1	456561	683	1	hit	467	0
45	Nonet	17	503	503	8	0	0	457277	684	0	correct_rejection	NA	0
45	Nonet	18	504	504	9	0	0	457994	683	0	correct_rejection	NA	0
45	Nonet	19	505	505	7	0	0	458711	683	0	correct_rejection	NA	0
45	Nonet	20	506	506	8	0	0	459427	684	0	correct_rejection	NA	0
45	Nonet	21	507	507	9	0	0	460144	683	0	correct_rejection	NA	0
45	Nonet	22	508	508	9	0	0	460861	683	0	correct_rejection	NA	0
45	Nonet	23	509	509	8	0	0	461577	684	0	correct_rejection	NA	0
45	Nonet	24	510	510	7	0	0	462294	683	0	correct_rejection	NA	0
45	Nonet	25	511	511	9	0	0	463011	683	0	correct_rejection	NA	0
45	Nonet	26	512	512	8	0	0	463727	684	0	correct_rejection	NA	0
45	Nonet	27	513	513	7	0	0	464444	683	0	correct_rejection	NA	0
45	Nonet	28	514	514	9	0	0	465161	683	0	correct_rejection	NA	0
45	Nonet	29	515	515	0	1	1	465877	684	1	hit	463	0
45	Nonet	30	516	516	8	0	0	466594	683	0	correct_rejection	NA	0
45	Nonet	31	517	517	7	0	0	467311	683	0	correct_rejection	NA	0
45	Nonet	32	518	518	9	0	0	468027	684	0	correct_rejection	NA	0
45	Nonet	33	519	519	8	0	0	468744	683	0	correct_rejection	NA	0
45	Nonet	34	520	520	7	0	0	469461	683	0	correct_rejection	NA	0
45	Nonet	35	521	521	9	0	0	470177	684	0	correct_rejection	NA	0
45	Nonet	36	522	522	0	1	1	470894	683	1	hit	477	0
45	Nonet	37	523	523	8	0	0	471610	684	0	correct_rejection	NA	0
45	Nonet	38	524	524	7	0	0	472327	684	0	correct_rejection	NA	0
45	Nonet	39	525	525	9	0	0	473044	683	0	correct_rejection	NA	0
45	Nonet	40	526	526	8	0	0	473760	684	0	correct_rejection	NA	0
45	Nonet	41	527	527	7	0	0	474477	683	0	correct_rejection	NA	0
45	Nonet	42	528	528	4	0	0	475194	683	0	correct_rejection	NA	0
45	Nonet	43	529	529	5	0	0	475910	684	0	correct_rejection	NA	0
45	Nonet	44	530	530	6	0	0	476627	683	0	correct_rejection	NA	0
45	Nonet	45	531	531	4	0	0	477344	683	0	correct_rejection	NA	0
45	Nonet	46	532	532	5	0	0	478060	684	0	correct_rejection	NA	0
45	Nonet	47	533	533	0	1	1	478777	683	1	hit	450	0
45	Nonet	48	534	534	6	0	0	479494	683	0	correct_rejection	NA	0
45	Nonet	49	535	535	4	0	0	480210	684	0	correct_rejection	NA	0
45	Nonet	50	536	536	5	0	0	480927	683	0	correct_rejection	NA	0
45	Nonet	51	537	537	6	0	0	481644	683	0	correct_rejection	NA	0
45	Nonet	52	538	538	6	0	0	482360	684	0	correct_rejection	NA	0
45	Nonet	53	539	539	5	0	0	483077	683	0	correct_rejection	NA	0
45	Nonet	54	540	540	4	0	0	483794	683	0	correct_rejection	NA	0
45	Nonet	55	541	541	6	0	0	484510	684	0	correct_rejection	NA	0
45	Nonet	56	542	542	5	0	0	485227	683	0	correct_rejection	NA	0
45	Nonet	57	543	543	4	0	0	485944	683	0	correct_rejection	NA	0
45	Nonet	58	544	544	6	0	0	486660	684	0	correct_rejection	NA	0
45	Nonet	59	545	545	5	0	0	487377	683	0	correct_rejection	NA	0
45	Nonet	60	546	546	4	0	0	488094	683	0	correct_rejection	NA	0
45	Nonet	61	547	547	4	0	0	488810	684	0	correct_rejection	NA	0
45	Nonet	62	548	548	5	0	0	489527	683	0	correct_rejection	NA	0
45	Nonet	63	549	549	6	0	0	490244	683	0	correct_rejection	NA	0
45	Nonet	64	550	550	4	0	0	490960	684	0	correct_rejection	NA	0
45	Nonet	65	551	551	5	0	0	491677	683	0	correct_rejection	NA	0
45	Nonet	66	552	552	6	0	0	492394	683	0	correct_rejection	NA	0
45	Nonet	67	553	553	0	1	2	493110	684	1	hit	454	0
45	Nonet	68	554	554	4	0	0	493827	683	0	correct_rejection	NA	0
45	Nonet	69	555	555	5	0	0	494544	683	0	correct_rejection	NA	0
45	Nonet	70	556	556	6	0	0	495260	684	0	correct_rejection	NA	0
45	Nonet	71	557	557	7	0	0	495977	683	0	correct_rejection	NA	0
45	Nonet	72	558	558	8	0	0	496694	683	0	correct_rejection	NA	0
45	Nonet	73	559	559	9	0	0	497410	684	0	correct_rejection	NA	0
45	Nonet	74	560	560	7	0	0	498127	683	0	correct_rejection	NA	0
45	Nonet	75	561	561	8	0	0	498843	684	0	correct_rejection	NA	0
45	Nonet	76	562	562	9	0	0	499560	684	0	correct_rejection	NA	0
45	Nonet	77	563	563	7	0	0	500277	683	0	correct_rejection	NA	0
45	Nonet	78	564	564	8	0	0	500993	684	0	correct_rejection	NA	0
45	Nonet	79	565	565	9	0	0	501710	683	0	correct_rejection	NA	0
45	Nonet	80	566	566	6	0	0	502427	683	0	correct_rejection	NA	0
45	Nonet	81	567	567	5	0	0	503143	684	0	correct_rejection	NA	0
45	Nonet	82	568	568	0	1	1	503860	683	1	hit	459	0
45	Nonet	83	569	569	4	0	0	504577	683	0	correct_rejection	NA	0
45	Nonet	84	570	570	6	0	0	505293	684	0	correct_rejection	NA	0
45	Nonet	85	571	571	5	0	0	506010	683	0	correct_rejection	NA	0
45	Nonet	86	572	572	4	0	0	506727	683	0	correct_rejection	NA	0
45	Nonet	87	573	573	0	1	2	507443	684	1	hit	558	0
45	Nonet	88	574	574	6	0	0	508160	683	0	correct_rejection	NA	0
45	Nonet	89	575	575	5	0	0	508877	683	0	correct_rejection	NA	0
45	Nonet	90	576	576	4	0	0	509593	684	0	correct_rejection	NA	0
45	Nonet	91	577	577	9	0	0	510310	683	0	correct_rejection	NA	0
45	Nonet	92	578	578	8	0	0	511027	683	0	correct_rejection	NA	0
45	Nonet	93	579	579	7	0	0	511743	684	0	correct_rejection	NA	0
45	Nonet	94	580	580	9	0	0	512460	683	0	correct_rejection	NA	0
45	Nonet	95	581	581	8	0	0	513177	683	0	correct_rejection	NA	0
45	Nonet	96	582	582	7	0	0	513893	684	0	correct_rejection	NA	0
45	Nonet	97	583	583	0	1	2	514610	683	1	hit	395	0
45	Nonet	98	584	584	9	0	0	515327	683	0	correct_rejection	NA	0
45	Nonet	99	585	585	8	0	0	516043	684	0	correct_rejection	NA	0
45	Nonet	100	586	586	7	0	0	516760	683	0	correct_rejection	NA	0
45	Nonet	101	587	587	6	0	0	517477	683	0	correct_rejection	NA	0
45	Nonet	102	588	588	5	0	0	518193	684	0	correct_rejection	NA	0
45	Nonet	103	589	589	0	1	1	518910	683	1	hit	516	0
45	Nonet	104	590	590	4	0	0	519627	683	0	correct_rejection	NA	0
45	Nonet	105	591	591	6	0	0	520343	684	0	correct_rejection	NA	0
45	Nonet	106	592	592	5	0	0	521060	683	0	correct_rejection	NA	0
45	Nonet	107	593	593	4	0	0	521777	683	0	correct_rejection	NA	0
45	Nonet	108	594	594	6	0	0	522493	684	0	correct_rejection	NA	0
45	Nonet	109	595	595	5	0	0	523210	683	0	correct_rejection	NA	0
45	Nonet	110	596	596	4	0	0	523927	683	0	correct_rejection	NA	0
45	Nonet	111	597	597	6	0	0	524643	684	0	correct_rejection	NA	0
45	Nonet	112	598	598	5	0	0	525360	683	0	correct_rejection	NA	0
45	Nonet	113	599	599	4	0	0	526076	684	0	correct_rejection	NA	0
45	Nonet	114	600	600	6	0	0	526793	684	0	correct_rejection	NA	0
45	Nonet	115	601	601	5	0	0	527510	683	0	correct_rejection	NA	0
45	Nonet	116	602	602	4	0	0	528226	684	0	correct_rejection	NA	0
45	Nonet	117	603	603	6	0	0	528943	683	0	correct_rejection	NA	0
45	Nonet	118	604	604	0	1	1	529660	683	1	hit	495	0
45	Nonet	119	605	605	5	0	0	530376	684	0	correct_rejection	NA	0
45	Nonet	120	606	606	4	0	0	531093	683	0	correct_rejection	NA	0
45	Nonet	121	607	607	7	0	0	531810	683	0	correct_rejection	NA	0
45	Nonet	122	608	608	8	0	0	532526	684	0	correct_rejection	NA	0
45	Nonet	123	609	609	0	1	1	533243	683	1	hit	440	0
45	Nonet	124	610	610	9	0	0	533960	683	0	correct_rejection	NA	0
45	Nonet	125	611	611	7	0	0	534676	684	0	correct_rejection	NA	0
45	Nonet	126	612	612	0	1	1	535393	683	1	hit	438	0
45	Nonet	127	613	613	8	0	0	536110	683	0	correct_rejection	NA	0
45	Nonet	128	614	614	9	0	0	536826	684	0	correct_rejection	NA	0
45	Nonet	129	615	615	0	1	2	537543	683	1	hit	465	0
45	Nonet	130	616	616	7	0	0	538260	683	0	correct_rejection	NA	0
45	Nonet	131	617	617	8	0	0	538976	684	0	correct_rejection	NA	0
45	Nonet	132	618	618	9	0	0	539693	683	0	correct_rejection	NA	0
45	Nonet	133	619	619	4	0	0	540410	683	0	correct_rejection	NA	0
45	Nonet	134	620	620	5	0	0	541126	684	0	correct_rejection	NA	0
45	Nonet	135	621	621	6	0	0	541843	683	0	correct_rejection	NA	0
45	Nonet	136	622	622	4	0	0	542560	683	0	correct_rejection	NA	0
45	Nonet	137	623	623	5	0	0	543276	684	0	correct_rejection	NA	0
45	Nonet	138	624	624	6	0	0	543993	683	0	correct_rejection	NA	0
45	Nonet	139	625	625	4	0	0	544710	683	0	correct_rejection	NA	0
45	Nonet	140	626	626	5	0	0	545426	684	0	correct_rejection	NA	0
45	Nonet	141	627	627	6	0	0	546143	683	0	correct_rejection	NA	0
45	Nonet	142	628	628	4	0	0	546860	683	0	correct_rejection	NA	0
45	Nonet	143	629	629	5	0	0	547576	684	0	correct_rejection	NA	0
45	Nonet	144	630	630	6	0	0	548293	683	0	correct_rejection	NA	0
45	Nonet	145	631	631	4	0	0	549010	683	0	correct_rejection	NA	0
45	Nonet	146	632	632	0	1	1	549726	684	1	hit	403	0
45	Nonet	147	633	633	5	0	0	550443	683	0	correct_rejection	NA	0
45	Nonet	148	634	634	6	0	0	551160	683	0	correct_rejection	NA	0
45	Nonet	149	635	635	0	1	2	551876	684	1	hit	552	0
45	Nonet	150	636	636	4	0	0	552593	683	0	correct_rejection	NA	0
45	Nonet	151	637	637	5	0	0	553310	683	0	correct_rejection	NA	0
45	Nonet	152	638	638	6	0	0	554026	684	0	correct_rejection	NA	0
45	Nonet	153	639	639	9	0	0	554743	683	0	correct_rejection	NA	0
45	Nonet	154	640	640	8	0	0	555459	684	0	correct_rejection	NA	0
45	Nonet	155	641	641	7	0	0	556176	683	0	correct_rejection	NA	0
45	Nonet	156	642	642	9	0	0	556893	683	0	correct_rejection	NA	0
45	Nonet	157	643	643	8	0	0	557609	684	0	correct_rejection	NA	0
45	Nonet	158	644	644	7	0	0	558326	683	0	correct_rejection	NA	0
45	Nonet	159	645	645	9	0	0	559043	683	0	correct_rejection	NA	0
45	Nonet	160	646	646	8	0	0	559759	684	0	correct_rejection	NA	0
45	Nonet	161	647	647	0	1	1	560476	683	1	hit	456	0
45	Nonet	162	648	648	7	0	0	561193	683	0	correct_rejection	NA	0
45	Correct	1	649	649	4	0	0	571143	683	0	correct_rejection	NA	7956
45	Correct	2	650	650	5	0	0	571859	684	0	correct_rejection	NA	0
45	Correct	3	651	651	6	0	0	572576	683	0	correct_rejection	NA	0
45	Correct	4	652	652	4	0	0	573293	683	0	correct_rejection	NA	0
45	Correct	5	653	653	5	0	0	574009	684	0	correct_rejection	NA	0
45	Correct	6	654	654	6	0	0	574726	683	0	correct_rejection	NA	0
45	Correct	7	655	655	4	0	0	575443	683	0	correct_rejection	NA	0
45	Correct	8	656	656	5	0	0	576159	684	0	correct_rejection	NA	0
45	Correct	9	657	657	6	0	0	576876	683	0	correct_rejection	NA	0
45	Correct	10	658	658	6	0	0	577593	683	0	correct_rejection	NA	0
45	Correct	11	659	659	5	0	0	578309	684	0	correct_rejection	NA	0
45	Correct	12	660	660	4	0	0	579026	683	0	correct_rejection	NA	0
45	Correct	13	661	661	6	0	0	579743	683	0	correct_rejection	NA	0
45	Correct	14	662	662	5	0	0	580459	684	0	correct_rejection	NA	0
45	Correct	15	663	663	4	0	0	581176	683	0	correct_rejection	NA	0
45	Correct	16	664	664	6	0	0	581892	684	0	correct_rejection	NA	0
45	Correct	17	665	665	5	0	0	582609	683	0	correct_rejection	NA	0
45	Correct	18	666	666	4	0	0	583326	683	0	correct_rejection	NA	0
45	Correct	19	667	667	9	0	0	584042	684	0	correct_rejection	NA	0
45	Correct	20	668	668	8	0	0	584759	683	0	correct_rejection	NA	0
45	Correct	21	669	669	7	0	0	585476	683	0	correct_rejection	NA	0
45	Correct	22	670	670	0	1	2	586192	684	1	hit	481	0
45	Correct	23	671	671	9	0	0	586909	683	0	correct_rejection	NA	0
45	Correct	24	672	672	8	0	0	587626	683	0	correct_rejection	NA	0
45	Correct	25	673	673	7	0	0	588342	684	0	correct_rejection	NA	0
45	Correct	26	674	674	9	0	0	589059	683	0	correct_rejection	NA	0
45	Correct	27	675	675	8	0	0	589776	683	0	correct_rejection	NA	0
45	Correct	28	676	676	7	0	0	590492	684	0	correct_rejection	NA	0
45	Correct	29	677	677	7	0	0	591209	683	0	correct_rejection	NA	0
45	Correct	30	678	678	8	0	0	591926	683	0	correct_rejection	NA	0
45	Correct	31	679	679	9	0	0	592642	684	0	correct_rejection	NA	0
45	Correct	32	680	680	7	0	0	593359	683	0	correct_rejection	NA	0
45	Correct	33	681	681	8	0	0	594076	683	0	correct_rejection	NA	0
45	Correct	34	682	682	9	0	0	594792	684	0	correct_rejection	NA	0
45	Correct	35	683	683	0	1	2	595509	683	1	hit	473	0
45	Correct	36	684	684	7	0	0	596226	683	0	correct_rejection	NA	0
45	Correct	37	685	685	8	0	0	596942	684	0	correct_rejection	NA	0
45	Correct	38	686	686	9	0	0	597659	683	0	correct_rejection	NA	0
45	Correct	39	687	687	0	1	4	598376	683	1	hit	523	0
45	Correct	40	688	688	4	0	0	599092	684	0	correct_rejection	NA	0
45	Correct	41	689	689	5	0	0	599809	683	0	correct_rejection	NA	0
45	Correct	42	690	690	6	0	0	600526	683	0	correct_rejection	NA	0
45	Correct	43	691	691	4	0	0	601242	684	0	correct_rejection	NA	0
45	Correct	44	692	692	0	1	1	601959	683	1	hit	486	0
45	Correct	45	693	693	5	0	0	602676	683	0	correct_rejection	NA	0
45	Correct	46	694	694	6	0	0	603392	684	0	correct_rejection	NA	0
45	Correct	47	695	695	4	0	0	604109	683	0	correct_rejection	NA	0
45	Correct	48	696	696	5	0	0	604826	683	0	correct_rejection	NA	0
45	Correct	49	697	697	6	0	0	605542	684	0	correct_rejection	NA	0
45	Correct	50	698	698	6	0	0	606259	683	0	correct_rejection	NA	0
45	Correct	51	699	699	5	0	0	606976	683	0	correct_rejection	NA	0
45	Correct	52	700	700	4	0	0	607692	684	0	correct_rejection	NA	0
45	Correct	53	701	701	6	0	0	608409	683	0	correct_rejection	NA	0
45	Correct	54	702	702	5	0	0	609126	683	0	correct_rejection	NA	0
45	Correct	55	703	703	4	0	0	609842	684	0	correct_rejection	NA	0
45	Correct	56	704	704	6	0	0	610559	683	0	correct_rejection	NA	0
45	Correct	57	705	705	5	0	0	611275	684	0	correct_rejection	NA	0
45	Correct	58	706	706	0	1	1	611992	683	1	hit	470	0
45	Correct	59	707	707	4	0	0	612709	683	0	correct_rejection	NA	0
45	Correct	60	708	708	9	0	0	613425	684	0	correct_rejection	NA	0
45	Correct	61	709	709	8	0	0	614142	683	0	correct_rejection	NA	0
45	Correct	62	710	710	7	0	0	614859	683	0	correct_rejection	NA	0
45	Correct	63	711	711	9	0	0	615575	684	0	correct_rejection	NA	0
45	Correct	64	712	712	0	1	1	616292	683	1	hit	603	0
45	Correct	65	713	713	8	0	0	617009	683	0	correct_rejection	NA	0
45	Correct	66	714	714	7	0	0	617725	684	0	correct_rejection	NA	0
45	Correct	67	715	715	9	0	0	618442	683	0	correct_rejection	NA	0
45	Correct	68	716	716	8	0	0	619159	683	0	correct_rejection	NA	0
45	Correct	69	717	717	7	0	0	619875	684	0	correct_rejection	NA	0
45	Correct	70	718	718	7	0	0	620592	683	0	correct_rejection	NA	0
45	Correct	71	719	719	8	0	0	621309	683	0	correct_rejection	NA	0
45	Correct	72	720	720	9	0	0	622025	684	0	correct_rejection	NA	0
45	Correct	73	721	721	7	0	0	622742	683	0	correct_rejection	NA	0
45	Correct	74	722	722	8	0	0	623459	683	0	correct_rejection	NA	0
45	Correct	75	723	723	9	0	0	624175	684	0	correct_rejection	NA	0
45	Correct	76	724	724	7	0	0	624892	683	0	correct_rejection	NA	0
45	Correct	77	725	725	0	1	1	625609	683	1	hit	452	0
45	Correct	78	726	726	8	0	0	626325	684	0	correct_rejection	NA	0
45	Correct	79	727	727	9	0	0	627042	683	0	correct_rejection	NA	0
45	Correct	80	728	728	4	0	0	627759	683	0	correct_rejection	NA	0
45	Correct	81	729	729	5	0	0	628475	684	0	correct_rejection	NA	0
45	Correct	82	730	730	6	0	0	629192	683	0	correct_rejection	NA	0
45	Correct	83	731	731	4	0	0	629909	683	0	correct_rejection	NA	0
45	Correct	84	732	732	5	0	0	630625	684	0	correct_rejection	NA	0
45	Correct	85	733	733	6	0	0	631342	683	0	correct_rejection	NA	0
45	Correct	86	734	734	4	0	0	632059	683	0	correct_rejection	NA	0
45	Correct	87	735	735	5	0	0	632775	684	0	correct_rejection	NA	0
45	Correct	88	736	736	6	0	0	633492	683	0	correct_rejection	NA	0
45	Correct	89	737	737	6	0	0	634209	683	0	correct_rejection	NA	0
45	Correct	90	738	738	5	0	0	634925	684	0	correct_rejection	NA	0
45	Correct	91	739	739	4	0	0	635642	683	0	correct_rejection	NA	0
45	Correct	92	740	740	6	0	0	636359	683	0	correct_rejection	NA	0
45	Correct	93	741	741	0	1	1	637075	684	1	hit	426	0
45	Correct	94	742	742	5	0	0	637792	683	0	correct_rejection	NA	0
45	Correct	95	743	743	4	0	0	638508	684	0	correct_rejection	NA	0
45	Correct	96	744	744	6	0	0	639225	683	0	correct_rejection	NA	0
45	Correct	97	745	745	5	0	0	639942	683	0	correct_rejection	NA	0
45	Correct	98	746	746	4	0	0	640658	684	0	correct_rejection	NA	0
45	Correct	99	747	747	0	1	3	641375	683	1	hit	473	0
45	Correct	100	748	748	9	0	0	642092	683	0	correct_rejection	NA	0
45	Correct	101	749	749	8	0	0	642808	684	0	correct_rejection	NA	0
45	Correct	102	750	750	7	0	0	643525	683	0	correct_rejection	NA	0
45	Correct	103	751	751	9	0	0	644242	683	0	correct_rejection	NA	0
45	Correct	104	752	752	8	0	0	644958	684	0	correct_rejection	NA	0
45	Correct	105	753	753	7	0	0	645675	683	0	correct_rejection	NA	0
45	Correct	106	754	754	9	0	0	646392	683	0	correct_rejection	NA	0
45	Correct	107	755	755	8	0	0	647108	684	0	correct_rejection	NA	0
45	Correct	108	756	756	7	0	0	647825	683	0	correct_rejection	NA	0
45	Correct	109	757	757	0	1	3	648542	683	1	hit	488	0
45	Correct	110	758	758	7	0	0	649258	684	0	correct_rejection	NA	0
45	Correct	111	759	759	8	0	0	649975	683	0	correct_rejection	NA	0
45	Correct	112	760	760	9	0	0	650692	683	0	correct_rejection	NA	0
45	Correct	113	761	761	0	1	2	651408	684	1	hit	406	0
45	Correct	114	762	762	7	0	0	652125	683	0	correct_rejection	NA	0
45	Correct	115	763	763	8	0	0	652842	683	0	correct_rejection	NA	0
45	Correct	116	764	764	9	0	0	653558	684	0	correct_rejection	NA	0
45	Correct	117	765	765	7	0	0	654275	683	0	correct_rejection	NA	0
45	Correct	118	766	766	8	0	0	654992	683	0	correct_rejection	NA	0
45	Correct	119	767	767	9	0	0	655708	684	0	correct_rejection	NA	0
45	Correct	120	768	768	4	0	0	656425	683	0	correct_rejection	NA	0
45	Correct	121	769	769	0	1	1	657142	683	1	hit	512	0
45	Correct	122	770	770	5	0	0	657858	684	0	correct_rejection	NA	0
45	Correct	123	771	771	6	0	0	658575	683	0	correct_rejection	NA	0
45	Correct	124	772	772	4	0	0	659292	683	0	correct_rejection	NA	0
45	Correct	125	773	773	5	0	0	660008	684	0	correct_rejection	NA	0
45	Correct	126	774	774	0	1	1	660725	683	1	hit	407	0
45	Correct	127	775	775	6	0	0	661442	683	0	correct_rejection	NA	0
45	Correct	128	776	776	4	0	0	662158	684	0	correct_rejection	NA	0
45	Correct	129	777	777	5	0	0	662875	683	0	correct_rejection	NA	0
45	Correct	130	778	778	6	0	0	663591	684	0	correct_rejection	NA	0
45	Correct	131	779	779	6	0	0	664308	684	0	correct_rejection	NA	0
45	Correct	132	780	780	5	0	0	665025	683	0	correct_rejection	NA	0
45	Correct	133	781	781	0	1	1	665741	684	1	hit	411	0
45	Correct	134	782	782	4	0	0	666458	683	0	correct_rejection	NA	0
45	Correct	135	783	783	6	0	0	667175	683	0	correct_rejection	NA	0
45	Correct	136	784	784	0	1	1	667891	684	1	hit	446	0
45	Correct	137	785	785	5	0	0	668608	683	0	correct_rejection	NA	0
45	Correct	138	786	786	4	0	0	669325	683	0	correct_rejection	NA	0
45	Correct	139	787	787	6	0	0	670041	684	0	correct_rejection	NA	0
45	Correct	140	788	788	5	0	0	670758	683	0	correct_rejection	NA	0
45	Correct	141	789	789	4	0	0	671475	683	0	correct_rejection	NA	0
45	Correct	142	790	790	9	0	0	672191	684	0	correct_rejection	NA	0
45	Correct	143	791	791	8	0	0	672908	683	0	correct_rejection	NA	0
45	Correct	144	792	792	0	1	1	673625	683	1	hit	444	0
45	Correct	145	793	793	7	0	0	674341	684	0	correct_rejection	NA	0
45	Correct	146	794	794	9	0	0	675058	683	0	correct_rejection	NA	0
45	Correct	147	795	795	8	0	0	675775	683	0	correct_rejection	NA	0
45	Correct	148	796	796	7	0	0	676491	684	0	correct_rejection	NA	0
45	Correct	149	797	797	9	0	0	677208	683	0	correct_rejection	NA	0
45	Correct	150	798	798	8	0	0	677925	683	0	correct_rejection	NA	0
45	Correct	151	799	799	7	0	0	678641	684	0	correct_rejection	NA	0
45	Correct	152	800	800	7	0	0	679358	683	0	correct_rejection	NA	0
45	Correct	153	801	801	8	0	0	680075	683	0	correct_rejection	NA	0
45	Correct	154	802	802	9	0	0	680791	684	0	correct_rejection	NA	0
45	Correct	155	803	803	7	0	0	681508	683	0	correct_rejection	NA	0
45	Correct	156	804	804	8	0	0	682225	683	0	correct_rejection	NA	0
45	Correct	157	805	805	0	1	1	682941	684	1	hit	438	0
45	Correct	158	806	806	9	0	0	683658	683	0	correct_rejection	NA	0
45	Correct	159	807	807	7	0	0	684375	683	0	correct_rejection	NA	0
45	Correct	160	808	808	8	0	0	685091	684	0	correct_rejection	NA	0
45	Correct	161	809	809	0	1	1	685808	683	1	hit	448	0
45	Correct	162	810	810	9	0	0	686525	683	0	correct_rejection	NA	0
trigger nr 679 at 689111
trigger nr 683 at 764069
45	Single	1	163	811	8	0	0	771140	684	0	correct_rejection	NA	7007
45	Single	2	164	812	6	0	0	771857	683	0	correct_rejection	NA	0
45	Single	3	165	813	7	0	0	772574	683	0	correct_rejection	NA	0
45	Single	4	166	814	5	0	0	773290	684	0	correct_rejection	NA	0
45	Single	5	167	815	0	1	1	774007	683	1	hit	433	0
45	Single	6	168	816	5	0	0	774724	683	0	correct_rejection	NA	0
45	Single	7	169	817	7	0	0	775440	684	0	correct_rejection	NA	0
45	Single	8	170	818	6	0	0	776157	683	0	correct_rejection	NA	0
45	Single	9	171	819	0	1	1	776873	684	1	hit	492	0
45	Single	10	172	820	8	0	0	777590	683	0	correct_rejection	NA	0
45	Single	11	173	821	7	0	0	778307	683	0	correct_rejection	NA	0
45	Single	12	174	822	7	0	0	779023	684	0	correct_rejection	NA	0
45	Single	13	175	823	8	0	0	779740	683	0	correct_rejection	NA	0
45	Single	14	176	824	8	0	0	780457	683	0	correct_rejection	NA	0
45	Single	15	177	825	4	0	0	781173	684	0	correct_rejection	NA	0
45	Single	16	178	826	7	0	0	781890	683	0	correct_rejection	NA	0
45	Single	17	179	827	0	1	1	782607	683	1	hit	524	0
45	Single	18	180	828	9	0	0	783323	684	0	correct_rejection	NA	0
45	Single	19	181	829	6	0	0	784040	683	0	correct_rejection	NA	0
45	Single	20	182	830	5	0	0	784757	683	0	correct_rejection	NA	0
45	Single	21	183	831	9	0	0	785473	684	0	correct_rejection	NA	0
45	Single	22	184	832	7	0	0	786190	683	0	correct_rejection	NA	0
45	Single	23	185	833	4	0	0	786907	683	0	correct_rejection	NA	0
45	Single	24	186	834	4	0	0	787623	684	0	correct_rejection	NA	0
45	Single	25	187	835	0	1	1	788340	683	1	hit	462	0
45	Single	26	188	836	6	0	0	789057	683	0	correct_rejection	NA	0
45	Single	27	189	837	9	0	0	789773	684	0	correct_rejection	NA	0
45	Single	28	190	838	9	0	0	790490	683	0	correct_rejection	NA	0
45	Single	29	191	839	5	0	0	791207	683	0	correct_rejection	NA	0
45	Single	30	192	840	6	0	0	791923	684	0	correct_rejection	NA	0
45	Single	31	193	841	6	0	0	792640	683	0	correct_rejection	NA	0
45	Single	32	194	842	0	1	1	793357	683	1	hit	450	0
45	Single	33	195	843	4	0	0	794073	684	0	correct_rejection	NA	0
45	Single	34	196	844	8	0	0	794790	683	0	correct_rejection	NA	0
45	Single	35	197	845	5	0	0	795507	683	0	correct_rejection	NA	0
45	Single	36	198	846	4	0	0	796223	684	0	correct_rejection	NA	0
45	Single	37	199	847	9	0	0	796940	683	0	correct_rejection	NA	0
45	Single	38	200	848	4	0	0	797657	683	0	correct_rejection	NA	0
45	Single	39	201	849	5	0	0	798373	684	0	correct_rejection	NA	0
45	Single	40	202	850	8	0	0	799090	683	0	correct_rejection	NA	0
45	Single	41	203	851	9	0	0	799807	683	0	correct_rejection	NA	0
45	Single	42	204	852	9	0	0	800523	684	0	correct_rejection	NA	0
45	Single	43	205	853	7	0	0	801240	683	0	correct_rejection	NA	0
45	Single	44	206	854	6	0	0	801957	683	0	correct_rejection	NA	0
45	Single	45	207	855	9	0	0	802673	684	0	correct_rejection	NA	0
45	Single	46	208	856	6	0	0	803390	683	0	correct_rejection	NA	0
45	Single	47	209	857	8	0	0	804106	684	0	correct_rejection	NA	0
45	Single	48	210	858	0	1	1	804823	684	1	hit	424	0
45	Single	49	211	859	4	0	0	805540	683	0	correct_rejection	NA	0
45	Single	50	212	860	8	0	0	806256	684	0	correct_rejection	NA	0
45	Single	51	213	861	8	0	0	806973	683	0	correct_rejection	NA	0
45	Single	52	214	862	0	1	1	807690	683	1	hit	518	0
45	Single	53	215	863	5	0	0	808406	684	0	correct_rejection	NA	0
45	Single	54	216	864	7	0	0	809123	683	0	correct_rejection	NA	0
45	Single	55	217	865	7	0	0	809840	683	0	correct_rejection	NA	0
45	Single	56	218	866	5	0	0	810556	684	0	correct_rejection	NA	0
45	Single	57	219	867	6	0	0	811273	683	0	correct_rejection	NA	0
45	Single	58	220	868	4	0	0	811990	683	0	correct_rejection	NA	0
45	Single	59	221	869	7	0	0	812706	684	0	correct_rejection	NA	0
45	Single	60	222	870	0	1	1	813423	683	1	hit	466	0
45	Single	61	223	871	4	0	0	814140	683	0	correct_rejection	NA	0
45	Single	62	224	872	6	0	0	814856	684	0	correct_rejection	NA	0
45	Single	63	225	873	5	0	0	815573	683	0	correct_rejection	NA	0
45	Single	64	226	874	5	0	0	816290	683	0	correct_rejection	NA	0
45	Single	65	227	875	8	0	0	817006	684	0	correct_rejection	NA	0
45	Single	66	228	876	0	1	1	817723	683	1	hit	505	0
45	Single	67	229	877	7	0	0	818440	683	0	correct_rejection	NA	0
45	Single	68	230	878	8	0	0	819156	684	0	correct_rejection	NA	0
45	Single	69	231	879	9	0	0	819873	683	0	correct_rejection	NA	0
45	Single	70	232	880	0	1	1	820590	683	1	hit	465	0
45	Single	71	233	881	4	0	0	821306	684	0	correct_rejection	NA	0
45	Single	72	234	882	9	0	0	822023	683	0	correct_rejection	NA	0
45	Single	73	235	883	5	0	0	822740	683	0	correct_rejection	NA	0
45	Single	74	236	884	4	0	0	823456	684	0	correct_rejection	NA	0
45	Single	75	237	885	4	0	0	824173	683	0	correct_rejection	NA	0
45	Single	76	238	886	5	0	0	824890	683	0	correct_rejection	NA	0
45	Single	77	239	887	0	1	1	825606	684	1	hit	453	0
45	Single	78	240	888	9	0	0	826323	683	0	correct_rejection	NA	0
45	Single	79	241	889	9	0	0	827040	683	0	correct_rejection	NA	0
45	Single	80	242	890	8	0	0	827756	684	0	correct_rejection	NA	0
45	Single	81	243	891	6	0	0	828473	683	0	correct_rejection	NA	0
45	Single	82	244	892	6	0	0	829190	683	0	correct_rejection	NA	0
45	Single	83	245	893	7	0	0	829906	684	0	correct_rejection	NA	0
45	Single	84	246	894	7	0	0	830623	683	0	correct_rejection	NA	0
45	Single	85	247	895	5	0	0	831339	684	0	correct_rejection	NA	0
45	Single	86	248	896	7	0	0	832056	684	0	correct_rejection	NA	0
45	Single	87	249	897	9	0	0	832773	683	0	correct_rejection	NA	0
45	Single	88	250	898	9	0	0	833489	684	0	correct_rejection	NA	0
45	Single	89	251	899	7	0	0	834206	683	0	correct_rejection	NA	0
45	Single	90	252	900	7	0	0	834923	683	0	correct_rejection	NA	0
45	Single	91	253	901	4	0	0	835639	684	0	correct_rejection	NA	0
45	Single	92	254	902	8	0	0	836356	683	0	correct_rejection	NA	0
45	Single	93	255	903	7	0	0	837073	683	0	correct_rejection	NA	0
45	Single	94	256	904	6	0	0	837789	684	0	correct_rejection	NA	0
45	Single	95	257	905	5	0	0	838506	683	0	correct_rejection	NA	0
45	Single	96	258	906	6	0	0	839223	683	0	correct_rejection	NA	0
45	Single	97	259	907	7	0	0	839939	684	0	correct_rejection	NA	0
45	Single	98	260	908	8	0	0	840656	683	0	correct_rejection	NA	0
45	Single	99	261	909	5	0	0	841373	683	0	correct_rejection	NA	0
45	Single	100	262	910	9	0	0	842089	684	0	correct_rejection	NA	0
45	Single	101	263	911	4	0	0	842806	683	0	correct_rejection	NA	0
45	Single	102	264	912	4	0	0	843523	683	0	correct_rejection	NA	0
45	Single	103	265	913	9	0	0	844239	684	0	correct_rejection	NA	0
45	Single	104	266	914	0	1	1	844956	683	1	hit	443	0
45	Single	105	267	915	8	0	0	845673	683	0	correct_rejection	NA	0
45	Single	106	268	916	9	0	0	846389	684	0	correct_rejection	NA	0
45	Single	107	269	917	6	0	0	847106	683	0	correct_rejection	NA	0
45	Single	108	270	918	9	0	0	847823	683	0	correct_rejection	NA	0
45	Single	109	271	919	0	1	1	848539	684	1	hit	376	0
45	Single	110	272	920	5	0	0	849256	683	0	correct_rejection	NA	0
45	Single	111	273	921	8	0	0	849973	683	0	correct_rejection	NA	0
45	Single	112	274	922	4	0	0	850689	684	0	correct_rejection	NA	0
45	Single	113	275	923	5	0	0	851406	683	0	correct_rejection	NA	0
45	Single	114	276	924	5	0	0	852123	683	0	correct_rejection	NA	0
45	Single	115	277	925	4	0	0	852839	684	0	correct_rejection	NA	0
45	Single	116	278	926	6	0	0	853556	683	0	correct_rejection	NA	0
45	Single	117	279	927	6	0	0	854273	683	0	correct_rejection	NA	0
45	Single	118	280	928	8	0	0	854989	684	0	correct_rejection	NA	0
45	Single	119	281	929	8	0	0	855706	683	0	correct_rejection	NA	0
45	Single	120	282	930	6	0	0	856423	683	0	correct_rejection	NA	0
45	Single	121	283	931	4	0	0	857139	684	0	correct_rejection	NA	0
45	Single	122	284	932	8	0	0	857856	683	0	correct_rejection	NA	0
45	Single	123	285	933	4	0	0	858572	684	0	correct_rejection	NA	0
45	Single	124	286	934	6	0	0	859289	684	0	correct_rejection	NA	0
45	Single	125	287	935	0	1	1	860006	683	1	hit	458	0
45	Single	126	288	936	9	0	0	860722	684	0	correct_rejection	NA	0
45	Single	127	289	937	8	0	0	861439	683	0	correct_rejection	NA	0
45	Single	128	290	938	8	0	0	862156	683	0	correct_rejection	NA	0
45	Single	129	291	939	0	1	1	862872	684	1	hit	460	0
45	Single	130	292	940	9	0	0	863589	683	0	correct_rejection	NA	0
45	Single	131	293	941	5	0	0	864306	683	0	correct_rejection	NA	0
45	Single	132	294	942	9	0	0	865022	684	0	correct_rejection	NA	0
45	Single	133	295	943	7	0	0	865739	683	0	correct_rejection	NA	0
45	Single	134	296	944	5	0	0	866456	683	0	correct_rejection	NA	0
45	Single	135	297	945	8	0	0	867172	684	0	correct_rejection	NA	0
45	Single	136	298	946	5	0	0	867889	683	0	correct_rejection	NA	0
45	Single	137	299	947	5	0	0	868606	683	0	correct_rejection	NA	0
45	Single	138	300	948	6	0	0	869322	684	0	correct_rejection	NA	0
45	Single	139	301	949	8	0	0	870039	683	0	correct_rejection	NA	0
45	Single	140	302	950	0	1	1	870756	683	1	hit	448	0
45	Single	141	303	951	6	0	0	871472	684	0	correct_rejection	NA	0
45	Single	142	304	952	7	0	0	872189	683	0	correct_rejection	NA	0
45	Single	143	305	953	9	0	0	872906	683	0	correct_rejection	NA	0
45	Single	144	306	954	6	0	0	873622	684	0	correct_rejection	NA	0
45	Single	145	307	955	0	1	1	874339	683	1	hit	479	0
45	Single	146	308	956	5	0	0	875056	683	0	correct_rejection	NA	0
45	Single	147	309	957	4	0	0	875772	684	0	correct_rejection	NA	0
45	Single	148	310	958	0	1	1	876489	683	1	hit	396	0
45	Single	149	311	959	5	0	0	877206	683	0	correct_rejection	NA	0
45	Single	150	312	960	7	0	0	877922	684	0	correct_rejection	NA	0
45	Single	151	313	961	8	0	0	878639	683	0	correct_rejection	NA	0
45	Single	152	314	962	7	0	0	879356	683	0	correct_rejection	NA	0
45	Single	153	315	963	4	0	0	880072	684	0	correct_rejection	NA	0
45	Single	154	316	964	4	0	0	880789	683	0	correct_rejection	NA	0
45	Single	155	317	965	7	0	0	881506	683	0	correct_rejection	NA	0
45	Single	156	318	966	7	0	0	882222	684	0	correct_rejection	NA	0
45	Single	157	319	967	6	0	0	882939	683	0	correct_rejection	NA	0
45	Single	158	320	968	6	0	0	883656	683	0	correct_rejection	NA	0
45	Single	159	321	969	4	0	0	884372	684	0	correct_rejection	NA	0
45	Single	160	322	970	9	0	0	885089	683	0	correct_rejection	NA	0
45	Single	161	323	971	9	0	0	885805	684	0	correct_rejection	NA	0
45	Single	162	324	972	4	0	0	886522	684	0	correct_rejection	NA	0
45	Nonet	1	325	973	4	0	0	896672	683	0	correct_rejection	NA	7537
45	Nonet	2	326	974	5	0	0	897389	683	0	correct_rejection	NA	0
45	Nonet	3	327	975	6	0	0	898105	684	0	correct_rejection	NA	0
45	Nonet	4	328	976	4	0	0	898822	683	0	correct_rejection	NA	0
45	Nonet	5	329	977	5	0	0	899539	683	0	correct_rejection	NA	0
45	Nonet	6	330	978	6	0	0	900255	684	0	correct_rejection	NA	0
45	Nonet	7	331	979	0	1	2	900972	683	1	hit	435	0
45	Nonet	8	332	980	4	0	0	901689	683	0	correct_rejection	NA	0
45	Nonet	9	333	981	5	0	0	902405	684	0	correct_rejection	NA	0
45	Nonet	10	334	982	6	0	0	903122	683	0	correct_rejection	NA	0
45	Nonet	11	335	983	6	0	0	903839	683	0	correct_rejection	NA	0
45	Nonet	12	336	984	0	1	1	904555	684	1	hit	521	0
45	Nonet	13	337	985	5	0	0	905272	683	0	correct_rejection	NA	0
45	Nonet	14	338	986	4	0	0	905989	683	0	correct_rejection	NA	0
45	Nonet	15	339	987	6	0	0	906705	684	0	correct_rejection	NA	0
45	Nonet	16	340	988	5	0	0	907422	683	0	correct_rejection	NA	0
45	Nonet	17	341	989	4	0	0	908139	683	0	correct_rejection	NA	0
45	Nonet	18	342	990	6	0	0	908855	684	0	correct_rejection	NA	0
45	Nonet	19	343	991	5	0	0	909572	683	0	correct_rejection	NA	0
45	Nonet	20	344	992	4	0	0	910289	683	0	correct_rejection	NA	0
45	Nonet	21	345	993	4	0	0	911005	684	0	correct_rejection	NA	0
45	Nonet	22	346	994	5	0	0	911722	683	0	correct_rejection	NA	0
45	Nonet	23	347	995	6	0	0	912439	683	0	correct_rejection	NA	0
45	Nonet	24	348	996	4	0	0	913155	684	0	correct_rejection	NA	0
45	Nonet	25	349	997	0	1	1	913872	683	1	hit	386	0
45	Nonet	26	350	998	5	0	0	914588	684	0	correct_rejection	NA	0
45	Nonet	27	351	999	6	0	0	915305	684	0	correct_rejection	NA	0
45	Nonet	28	352	1000	4	0	0	916022	683	0	correct_rejection	NA	0
45	Nonet	29	353	1001	5	0	0	916738	684	0	correct_rejection	NA	0
45	Nonet	30	354	1002	6	0	0	917455	683	0	correct_rejection	NA	0
45	Nonet	31	355	1003	9	0	0	918172	683	0	correct_rejection	NA	0
45	Nonet	32	356	1004	8	0	0	918888	684	0	correct_rejection	NA	0
45	Nonet	33	357	1005	7	0	0	919605	683	0	correct_rejection	NA	0
45	Nonet	34	358	1006	9	0	0	920322	683	0	correct_rejection	NA	0
45	Nonet	35	359	1007	8	0	0	921038	684	0	correct_rejection	NA	0
45	Nonet	36	360	1008	7	0	0	921755	683	0	correct_rejection	NA	0
45	Nonet	37	361	1009	9	0	0	922472	683	0	correct_rejection	NA	0
45	Nonet	38	362	1010	8	0	0	923188	684	0	correct_rejection	NA	0
45	Nonet	39	363	1011	7	0	0	923905	683	0	correct_rejection	NA	0
45	Nonet	40	364	1012	4	0	0	924622	683	0	correct_rejection	NA	0
45	Nonet	41	365	1013	5	0	0	925338	684	0	correct_rejection	NA	0
45	Nonet	42	366	1014	6	0	0	926055	683	0	correct_rejection	NA	0
45	Nonet	43	367	1015	4	0	0	926772	683	0	correct_rejection	NA	0
45	Nonet	44	368	1016	5	0	0	927488	684	0	correct_rejection	NA	0
45	Nonet	45	369	1017	0	1	1	928205	683	1	hit	423	0
45	Nonet	46	370	1018	6	0	0	928922	683	0	correct_rejection	NA	0
45	Nonet	47	371	1019	4	0	0	929638	684	0	correct_rejection	NA	0
45	Nonet	48	372	1020	5	0	0	930355	683	0	correct_rejection	NA	0
45	Nonet	49	373	1021	6	0	0	931072	683	0	correct_rejection	NA	0
45	Nonet	50	374	1022	7	0	0	931788	684	0	correct_rejection	NA	0
45	Nonet	51	375	1023	0	1	1	932505	683	1	hit	515	0
45	Nonet	52	376	1024	8	0	0	933222	683	0	correct_rejection	NA	0
45	Nonet	53	377	1025	9	0	0	933938	684	0	correct_rejection	NA	0
45	Nonet	54	378	1026	7	0	0	934655	683	0	correct_rejection	NA	0
45	Nonet	55	379	1027	8	0	0	935372	683	0	correct_rejection	NA	0
45	Nonet	56	380	1028	9	0	0	936088	684	0	correct_rejection	NA	0
45	Nonet	57	381	1029	7	0	0	936805	683	0	correct_rejection	NA	0
45	Nonet	58	382	1030	8	0	0	937522	683	0	correct_rejection	NA	0
45	Nonet	59	383	1031	9	0	0	938238	684	0	correct_rejection	NA	0
45	Nonet	60	384	1032	9	0	0	938955	683	0	correct_rejection	NA	0
45	Nonet	61	385	1033	8	0	0	939672	683	0	correct_rejection	NA	0
45	Nonet	62	386	1034	7	0	0	940388	684	0	correct_rejection	NA	0
45	Nonet	63	387	1035	9	0	0	941105	683	0	correct_rejection	NA	0
45	Nonet	64	388	1036	8	0	0	941821	684	0	correct_rejection	NA	0
45	Nonet	65	389	1037	0	1	1	942538	683	1	hit	547	0
45	Nonet	66	390	1038	7	0	0	943255	683	0	correct_rejection	NA	0
45	Nonet	67	391	1039	9	0	0	943971	684	0	correct_rejection	NA	0
45	Nonet	68	392	1040	8	0	0	944688	683	0	correct_rejection	NA	0
45	Nonet	69	393	1041	7	0	0	945405	683	0	correct_rejection	NA	0
45	Nonet	70	394	1042	0	1	3	946121	684	1	hit	464	0
45	Nonet	71	395	1043	9	0	0	946838	683	0	correct_rejection	NA	0
45	Nonet	72	396	1044	8	0	0	947555	683	0	correct_rejection	NA	0
45	Nonet	73	397	1045	7	0	0	948271	684	0	correct_rejection	NA	0
45	Nonet	74	398	1046	9	0	0	948988	683	0	correct_rejection	NA	0
45	Nonet	75	399	1047	8	0	0	949705	683	0	correct_rejection	NA	0
45	Nonet	76	400	1048	7	0	0	950421	684	0	correct_rejection	NA	0
45	Nonet	77	401	1049	9	0	0	951138	683	0	correct_rejection	NA	0
45	Nonet	78	402	1050	0	1	1	951855	683	1	hit	429	0
45	Nonet	79	403	1051	8	0	0	952571	684	0	correct_rejection	NA	0
45	Nonet	80	404	1052	7	0	0	953288	683	0	correct_rejection	NA	0
45	Nonet	81	405	1053	6	0	0	954005	683	0	correct_rejection	NA	0
45	Nonet	82	406	1054	5	0	0	954721	684	0	correct_rejection	NA	0
45	Nonet	83	407	1055	4	0	0	955438	683	0	correct_rejection	NA	0
45	Nonet	84	408	1056	0	1	2	956155	683	1	hit	450	0
45	Nonet	85	409	1057	6	0	0	956871	684	0	correct_rejection	NA	0
45	Nonet	86	410	1058	5	0	0	957588	683	0	correct_rejection	NA	0
45	Nonet	87	411	1059	4	0	0	958305	683	0	correct_rejection	NA	0
45	Nonet	88	412	1060	6	0	0	959021	684	0	correct_rejection	NA	0
45	Nonet	89	413	1061	5	0	0	959738	683	0	correct_rejection	NA	0
45	Nonet	90	414	1062	4	0	0	960455	683	0	correct_rejection	NA	0
45	Nonet	91	415	1063	7	0	0	961171	684	0	correct_rejection	NA	0
45	Nonet	92	416	1064	8	0	0	961888	683	0	correct_rejection	NA	0
45	Nonet	93	417	1065	9	0	0	962605	683	0	correct_rejection	NA	0
45	Nonet	94	418	1066	7	0	0	963321	684	0	correct_rejection	NA	0
45	Nonet	95	419	1067	8	0	0	964038	683	0	correct_rejection	NA	0
45	Nonet	96	420	1068	9	0	0	964755	683	0	correct_rejection	NA	0
45	Nonet	97	421	1069	7	0	0	965471	684	0	correct_rejection	NA	0
45	Nonet	98	422	1070	8	0	0	966188	683	0	correct_rejection	NA	0
45	Nonet	99	423	1071	9	0	0	966905	683	0	correct_rejection	NA	0
45	Nonet	100	424	1072	6	0	0	967621	684	0	correct_rejection	NA	0
45	Nonet	101	425	1073	0	1	1	968338	683	1	hit	406	0
45	Nonet	102	426	1074	5	0	0	969055	683	0	correct_rejection	NA	0
45	Nonet	103	427	1075	4	0	0	969771	684	0	correct_rejection	NA	0
45	Nonet	104	428	1076	6	0	0	970488	683	0	correct_rejection	NA	0
45	Nonet	105	429	1077	5	0	0	971204	684	0	correct_rejection	NA	0
45	Nonet	106	430	1078	4	0	0	971921	683	0	correct_rejection	NA	0
45	Nonet	107	431	1079	6	0	0	972638	683	0	correct_rejection	NA	0
45	Nonet	108	432	1080	5	0	0	973354	684	0	correct_rejection	NA	0
45	Nonet	109	433	1081	4	0	0	974071	683	0	correct_rejection	NA	0
45	Nonet	110	434	1082	0	1	3	974788	683	1	hit	422	0
45	Nonet	111	435	1083	6	0	0	975504	684	0	correct_rejection	NA	0
45	Nonet	112	436	1084	5	0	0	976221	683	0	correct_rejection	NA	0
45	Nonet	113	437	1085	0	1	1	976938	683	1	hit	526	0
45	Nonet	114	438	1086	4	0	0	977654	684	0	correct_rejection	NA	0
45	Nonet	115	439	1087	6	0	0	978371	683	0	correct_rejection	NA	0
45	Nonet	116	440	1088	5	0	0	979088	683	0	correct_rejection	NA	0
45	Nonet	117	441	1089	4	0	0	979804	684	0	correct_rejection	NA	0
45	Nonet	118	442	1090	6	0	0	980521	683	0	correct_rejection	NA	0
45	Nonet	119	443	1091	5	0	0	981238	683	0	correct_rejection	NA	0
45	Nonet	120	444	1092	4	0	0	981954	684	0	correct_rejection	NA	0
45	Nonet	121	445	1093	9	0	0	982671	683	0	correct_rejection	NA	0
45	Nonet	122	446	1094	8	0	0	983388	683	0	correct_rejection	NA	0
45	Nonet	123	447	1095	0	1	1	984104	684	1	hit	536	0
45	Nonet	124	448	1096	7	0	0	984821	683	0	correct_rejection	NA	0
45	Nonet	125	449	1097	9	0	0	985538	683	0	correct_rejection	NA	0
45	Nonet	126	450	1098	8	0	0	986254	684	0	correct_rejection	NA	0
45	Nonet	127	451	1099	7	0	0	986971	683	0	correct_rejection	NA	0
45	Nonet	128	452	1100	9	0	0	987688	683	0	correct_rejection	NA	0
45	Nonet	129	453	1101	8	0	0	988404	684	0	correct_rejection	NA	0
45	Nonet	130	454	1102	7	0	0	989121	683	0	correct_rejection	NA	0
45	Nonet	131	455	1103	0	1	3	989838	683	1	hit	452	0
45	Nonet	132	456	1104	7	0	0	990554	684	0	correct_rejection	NA	0
45	Nonet	133	457	1105	8	0	0	991271	683	0	correct_rejection	NA	0
45	Nonet	134	458	1106	9	0	0	991988	683	0	correct_rejection	NA	0
45	Nonet	135	459	1107	7	0	0	992704	684	0	correct_rejection	NA	0
45	Nonet	136	460	1108	8	0	0	993421	683	0	correct_rejection	NA	0
45	Nonet	137	461	1109	0	1	1	994138	683	1	hit	504	0
45	Nonet	138	462	1110	9	0	0	994854	684	0	correct_rejection	NA	0
45	Nonet	139	463	1111	7	0	0	995571	683	0	correct_rejection	NA	0
45	Nonet	140	464	1112	8	0	0	996288	683	0	correct_rejection	NA	0
45	Nonet	141	465	1113	9	0	0	997004	684	0	correct_rejection	NA	0
45	Nonet	142	466	1114	0	1	3	997721	683	1	hit	415	0
45	Nonet	143	467	1115	7	0	0	998437	684	0	correct_rejection	NA	0
45	Nonet	144	468	1116	8	0	0	999154	684	0	correct_rejection	NA	0
45	Nonet	145	469	1117	9	0	0	999871	683	0	correct_rejection	NA	0
45	Nonet	146	470	1118	7	0	0	1000587	684	0	correct_rejection	NA	0
45	Nonet	147	471	1119	8	0	0	1001304	683	0	correct_rejection	NA	0
45	Nonet	148	472	1120	9	0	0	1002021	683	0	correct_rejection	NA	0
45	Nonet	149	473	1121	7	0	0	1002737	684	0	correct_rejection	NA	0
45	Nonet	150	474	1122	8	0	0	1003454	683	0	correct_rejection	NA	0
45	Nonet	151	475	1123	9	0	0	1004171	683	0	correct_rejection	NA	0
45	Nonet	152	476	1124	4	0	0	1004887	684	0	correct_rejection	NA	0
45	Nonet	153	477	1125	5	0	0	1005604	683	0	correct_rejection	NA	0
45	Nonet	154	478	1126	0	1	1	1006321	683	1	hit	389	0
45	Nonet	155	479	1127	6	0	0	1007037	684	0	correct_rejection	NA	0
45	Nonet	156	480	1128	4	0	0	1007754	683	0	correct_rejection	NA	0
45	Nonet	157	481	1129	0	1	1	1008471	683	1	hit	492	0
45	Nonet	158	482	1130	5	0	0	1009187	684	0	correct_rejection	NA	0
45	Nonet	159	483	1131	6	0	0	1009904	683	0	correct_rejection	NA	0
45	Nonet	160	484	1132	4	0	0	1010621	683	0	correct_rejection	NA	0
45	Nonet	161	485	1133	5	0	0	1011337	684	0	correct_rejection	NA	0
45	Nonet	162	486	1134	6	0	0	1012054	683	0	correct_rejection	NA	0
45	Triplet	1	649	1135	4	0	0	1021854	683	0	correct_rejection	NA	7727
45	Triplet	2	650	1136	5	0	0	1022571	683	0	correct_rejection	NA	0
45	Triplet	3	651	1137	6	0	0	1023287	684	0	correct_rejection	NA	0
45	Triplet	4	652	1138	6	0	0	1024004	683	0	correct_rejection	NA	0
45	Triplet	5	653	1139	5	0	0	1024720	684	0	correct_rejection	NA	0
45	Triplet	6	654	1140	4	0	0	1025437	684	0	correct_rejection	NA	0
45	Triplet	7	655	1141	4	0	0	1026154	683	0	correct_rejection	NA	0
45	Triplet	8	656	1142	5	0	0	1026870	684	0	correct_rejection	NA	0
45	Triplet	9	657	1143	6	0	0	1027587	683	0	correct_rejection	NA	0
45	Triplet	10	658	1144	9	0	0	1028304	683	0	correct_rejection	NA	0
45	Triplet	11	659	1145	0	1	1	1029020	684	1	hit	504	0
45	Triplet	12	660	1146	8	0	0	1029737	683	0	correct_rejection	NA	0
45	Triplet	13	661	1147	7	0	0	1030454	683	0	correct_rejection	NA	0
45	Triplet	14	662	1148	6	0	0	1031170	684	0	correct_rejection	NA	0
45	Triplet	15	663	1149	0	1	1	1031887	683	1	hit	439	0
45	Triplet	16	664	1150	5	0	0	1032604	683	0	correct_rejection	NA	0
45	Triplet	17	665	1151	4	0	0	1033320	684	0	correct_rejection	NA	0
45	Triplet	18	666	1152	6	0	0	1034037	683	0	correct_rejection	NA	0
45	Triplet	19	667	1153	5	0	0	1034754	683	0	correct_rejection	NA	0
45	Triplet	20	668	1154	4	0	0	1035470	684	0	correct_rejection	NA	0
45	Triplet	21	669	1155	7	0	0	1036187	683	0	correct_rejection	NA	0
45	Triplet	22	670	1156	8	0	0	1036904	683	0	correct_rejection	NA	0
45	Triplet	23	671	1157	9	0	0	1037620	684	0	correct_rejection	NA	0
45	Triplet	24	672	1158	6	0	0	1038337	683	0	correct_rejection	NA	0
45	Triplet	25	673	1159	0	1	1	1039054	683	1	hit	450	0
45	Triplet	26	674	1160	5	0	0	1039770	684	0	correct_rejection	NA	0
45	Triplet	27	675	1161	4	0	0	1040487	683	0	correct_rejection	NA	0
45	Triplet	28	676	1162	9	0	0	1041204	683	0	correct_rejection	NA	0
45	Triplet	29	677	1163	8	0	0	1041920	684	0	correct_rejection	NA	0
45	Triplet	30	678	1164	7	0	0	1042637	683	0	correct_rejection	NA	0
45	Triplet	31	679	1165	7	0	0	1043354	683	0	correct_rejection	NA	0
45	Triplet	32	680	1166	8	0	0	1044070	684	0	correct_rejection	NA	0
45	Triplet	33	681	1167	9	0	0	1044787	683	0	correct_rejection	NA	0
45	Triplet	34	682	1168	4	0	0	1045504	683	0	correct_rejection	NA	0
45	Triplet	35	683	1169	5	0	0	1046220	684	0	correct_rejection	NA	0
45	Triplet	36	684	1170	6	0	0	1046937	683	0	correct_rejection	NA	0
45	Triplet	37	685	1171	4	0	0	1047654	683	0	correct_rejection	NA	0
45	Triplet	38	686	1172	5	0	0	1048370	684	0	correct_rejection	NA	0
45	Triplet	39	687	1173	0	1	1	1049087	683	1	hit	462	0
45	Triplet	40	688	1174	6	0	0	1049804	683	0	correct_rejection	NA	0
45	Triplet	41	689	1175	7	0	0	1050520	684	0	correct_rejection	NA	0
45	Triplet	42	690	1176	8	0	0	1051237	683	0	correct_rejection	NA	0
45	Triplet	43	691	1177	9	0	0	1051953	684	0	correct_rejection	NA	0
45	Triplet	44	692	1178	7	0	0	1052670	684	0	correct_rejection	NA	0
45	Triplet	45	693	1179	8	0	0	1053387	683	0	correct_rejection	NA	0
45	Triplet	46	694	1180	9	0	0	1054103	684	0	correct_rejection	NA	0
45	Triplet	47	695	1181	9	0	0	1054820	683	0	correct_rejection	NA	0
45	Triplet	48	696	1182	8	0	0	1055537	683	0	correct_rejection	NA	0
45	Triplet	49	697	1183	0	1	1	1056253	684	1	hit	501	0
45	Triplet	50	698	1184	7	0	0	1056970	683	0	correct_rejection	NA	0
45	Triplet	51	699	1185	9	0	0	1057687	683	0	correct_rejection	NA	0
45	Triplet	52	700	1186	8	0	0	1058403	684	0	correct_rejection	NA	0
45	Triplet	53	701	1187	7	0	0	1059120	683	0	correct_rejection	NA	0
45	Triplet	54	702	1188	7	0	0	1059837	683	0	correct_rejection	NA	0
45	Triplet	55	703	1189	0	1	1	1060553	684	1	hit	464	0
45	Triplet	56	704	1190	8	0	0	1061270	683	0	correct_rejection	NA	0
45	Triplet	57	705	1191	9	0	0	1061987	683	0	correct_rejection	NA	0
45	Triplet	58	706	1192	7	0	0	1062703	684	0	correct_rejection	NA	0
45	Triplet	59	707	1193	8	0	0	1063420	683	0	correct_rejection	NA	0
45	Triplet	60	708	1194	0	1	1	1064137	683	1	hit	531	0
45	Triplet	61	709	1195	9	0	0	1064853	684	0	correct_rejection	NA	0
45	Triplet	62	710	1196	6	0	0	1065570	683	0	correct_rejection	NA	0
45	Triplet	63	711	1197	5	0	0	1066287	683	0	correct_rejection	NA	0
45	Triplet	64	712	1198	4	0	0	1067003	684	0	correct_rejection	NA	0
45	Triplet	65	713	1199	6	0	0	1067720	683	0	correct_rejection	NA	0
45	Triplet	66	714	1200	5	0	0	1068437	683	0	correct_rejection	NA	0
45	Triplet	67	715	1201	4	0	0	1069153	684	0	correct_rejection	NA	0
45	Triplet	68	716	1202	0	1	2	1069870	683	1	hit	395	0
45	Triplet	69	717	1203	4	0	0	1070587	683	0	correct_rejection	NA	0
45	Triplet	70	718	1204	5	0	0	1071303	684	0	correct_rejection	NA	0
45	Triplet	71	719	1205	6	0	0	1072020	683	0	correct_rejection	NA	0
45	Triplet	72	720	1206	4	0	0	1072737	683	0	correct_rejection	NA	0
45	Triplet	73	721	1207	5	0	0	1073453	684	0	correct_rejection	NA	0
45	Triplet	74	722	1208	6	0	0	1074170	683	0	correct_rejection	NA	0
45	Triplet	75	723	1209	6	0	0	1074887	683	0	correct_rejection	NA	0
45	Triplet	76	724	1210	5	0	0	1075603	684	0	correct_rejection	NA	0
45	Triplet	77	725	1211	0	1	1	1076320	683	1	hit	406	0
45	Triplet	78	726	1212	4	0	0	1077037	683	0	correct_rejection	NA	0
45	Triplet	79	727	1213	7	0	0	1077753	684	0	correct_rejection	NA	0
45	Triplet	80	728	1214	8	0	0	1078470	683	0	correct_rejection	NA	0
45	Triplet	81	729	1215	9	0	0	1079187	683	0	correct_rejection	NA	0
45	Triplet	82	730	1216	4	0	0	1079903	684	0	correct_rejection	NA	0
45	Triplet	83	731	1217	5	0	0	1080620	683	0	correct_rejection	NA	0
45	Triplet	84	732	1218	6	0	0	1081336	684	0	correct_rejection	NA	0
45	Triplet	85	733	1219	9	0	0	1082053	683	0	correct_rejection	NA	0
45	Triplet	86	734	1220	8	0	0	1082770	683	0	correct_rejection	NA	0
45	Triplet	87	735	1221	7	0	0	1083486	684	0	correct_rejection	NA	0
45	Triplet	88	736	1222	9	0	0	1084203	683	0	correct_rejection	NA	0
45	Triplet	89	737	1223	8	0	0	1084920	683	0	correct_rejection	NA	0
45	Triplet	90	738	1224	7	0	0	1085636	684	0	correct_rejection	NA	0
45	Triplet	91	739	1225	7	0	0	1086353	683	0	correct_rejection	NA	0
45	Triplet	92	740	1226	8	0	0	1087070	683	0	correct_rejection	NA	0
45	Triplet	93	741	1227	9	0	0	1087786	684	0	correct_rejection	NA	0
45	Triplet	94	742	1228	9	0	0	1088503	683	0	correct_rejection	NA	0
45	Triplet	95	743	1229	8	0	0	1089220	683	0	correct_rejection	NA	0
45	Triplet	96	744	1230	7	0	0	1089936	684	0	correct_rejection	NA	0
45	Triplet	97	745	1231	6	0	0	1090653	683	0	correct_rejection	NA	0
45	Triplet	98	746	1232	5	0	0	1091370	683	0	correct_rejection	NA	0
45	Triplet	99	747	1233	4	0	0	1092086	684	0	correct_rejection	NA	0
45	Triplet	100	748	1234	9	0	0	1092803	683	0	correct_rejection	NA	0
45	Triplet	101	749	1235	8	0	0	1093520	683	0	correct_rejection	NA	0
45	Triplet	102	750	1236	0	1	1	1094236	684	1	hit	489	0
45	Triplet	103	751	1237	7	0	0	1094953	683	0	correct_rejection	NA	0
45	Triplet	104	752	1238	4	0	0	1095670	683	0	correct_rejection	NA	0
45	Triplet	105	753	1239	5	0	0	1096386	684	0	correct_rejection	NA	0
45	Triplet	106	754	1240	6	0	0	1097103	683	0	correct_rejection	NA	0
45	Triplet	107	755	1241	7	0	0	1097820	683	0	correct_rejection	NA	0
45	Triplet	108	756	1242	8	0	0	1098536	684	0	correct_rejection	NA	0
45	Triplet	109	757	1243	9	0	0	1099253	683	0	correct_rejection	NA	0
45	Triplet	110	758	1244	0	1	2	1099970	683	1	hit	498	0
45	Triplet	111	759	1245	9	0	0	1100686	684	0	correct_rejection	NA	0
45	Triplet	112	760	1246	8	0	0	1101403	683	0	correct_rejection	NA	0
45	Triplet	113	761	1247	7	0	0	1102120	683	0	correct_rejection	NA	0
45	Triplet	114	762	1248	4	0	0	1102836	684	0	correct_rejection	NA	0
45	Triplet	115	763	1249	5	0	0	1103553	683	0	correct_rejection	NA	0
45	Triplet	116	764	1250	6	0	0	1104270	683	0	correct_rejection	NA	0
45	Triplet	117	765	1251	0	1	2	1104986	684	1	hit	436	0
45	Triplet	118	766	1252	4	0	0	1105703	683	0	correct_rejection	NA	0
45	Triplet	119	767	1253	5	0	0	1106420	683	0	correct_rejection	NA	0
45	Triplet	120	768	1254	6	0	0	1107136	684	0	correct_rejection	NA	0
45	Triplet	121	769	1255	9	0	0	1107853	683	0	correct_rejection	NA	0
45	Triplet	122	770	1256	8	0	0	1108569	684	0	correct_rejection	NA	0
45	Triplet	123	771	1257	0	1	1	1109286	683	1	hit	475	0
45	Triplet	124	772	1258	7	0	0	1110003	683	0	correct_rejection	NA	0
45	Triplet	125	773	1259	7	0	0	1110719	684	0	correct_rejection	NA	0
45	Triplet	126	774	1260	8	0	0	1111436	683	0	correct_rejection	NA	0
45	Triplet	127	775	1261	9	0	0	1112153	683	0	correct_rejection	NA	0
45	Triplet	128	776	1262	0	1	2	1112869	684	1	hit	491	0
45	Triplet	129	777	1263	6	0	0	1113586	683	0	correct_rejection	NA	0
45	Triplet	130	778	1264	5	0	0	1114303	683	0	correct_rejection	NA	0
45	Triplet	131	779	1265	4	0	0	1115019	684	0	correct_rejection	NA	0
45	Triplet	132	780	1266	7	0	0	1115736	683	0	correct_rejection	NA	0
45	Triplet	133	781	1267	8	0	0	1116453	683	0	correct_rejection	NA	0
45	Triplet	134	782	1268	9	0	0	1117169	684	0	correct_rejection	NA	0
45	Triplet	135	783	1269	7	0	0	1117886	683	0	correct_rejection	NA	0
45	Triplet	136	784	1270	8	0	0	1118603	683	0	correct_rejection	NA	0
45	Triplet	137	785	1271	9	0	0	1119319	684	0	correct_rejection	NA	0
45	Triplet	138	786	1272	4	0	0	1120036	683	0	correct_rejection	NA	0
45	Triplet	139	787	1273	0	1	1	1120753	683	1	hit	446	0
45	Triplet	140	788	1274	5	0	0	1121469	684	0	correct_rejection	NA	0
45	Triplet	141	789	1275	6	0	0	1122186	683	0	correct_rejection	NA	0
45	Triplet	142	790	1276	0	1	2	1122903	683	1	hit	506	0
45	Triplet	143	791	1277	6	0	0	1123619	684	0	correct_rejection	NA	0
45	Triplet	144	792	1278	5	0	0	1124336	683	0	correct_rejection	NA	0
45	Triplet	145	793	1279	4	0	0	1125053	683	0	correct_rejection	NA	0
45	Triplet	146	794	1280	6	0	0	1125769	684	0	correct_rejection	NA	0
45	Triplet	147	795	1281	5	0	0	1126486	683	0	correct_rejection	NA	0
45	Triplet	148	796	1282	4	0	0	1127203	683	0	correct_rejection	NA	0
45	Triplet	149	797	1283	0	1	2	1127919	684	1	hit	396	0
45	Triplet	150	798	1284	9	0	0	1128636	683	0	correct_rejection	NA	0
45	Triplet	151	799	1285	8	0	0	1129353	683	0	correct_rejection	NA	0
45	Triplet	152	800	1286	7	0	0	1130069	684	0	correct_rejection	NA	0
45	Triplet	153	801	1287	0	1	2	1130786	683	1	hit	403	0
45	Triplet	154	802	1288	9	0	0	1131503	683	0	correct_rejection	NA	0
45	Triplet	155	803	1289	8	0	0	1132219	684	0	correct_rejection	NA	0
45	Triplet	156	804	1290	7	0	0	1132936	683	0	correct_rejection	NA	0
45	Triplet	157	805	1291	6	0	0	1133653	683	0	correct_rejection	NA	0
45	Triplet	158	806	1292	5	0	0	1134369	684	0	correct_rejection	NA	0
45	Triplet	159	807	1293	4	0	0	1135086	683	0	correct_rejection	NA	0
45	Triplet	160	808	1294	4	0	0	1135802	684	0	correct_rejection	NA	0
45	Triplet	161	809	1295	5	0	0	1136519	684	0	correct_rejection	NA	0
45	Triplet	162	810	1296	6	0	0	1137236	683	0	correct_rejection	NA	0
45	Single	1	1	1297	9	0	0	1147102	684	0	correct_rejection	NA	7967
45	Single	2	2	1298	5	0	0	1147819	683	0	correct_rejection	NA	0
45	Single	3	3	1299	4	0	0	1148536	683	0	correct_rejection	NA	0
45	Single	4	4	1300	7	0	0	1149252	684	0	correct_rejection	NA	0
45	Single	5	5	1301	9	0	0	1149969	683	0	correct_rejection	NA	0
45	Single	6	6	1302	4	0	0	1150686	683	0	correct_rejection	NA	0
45	Single	7	7	1303	4	0	0	1151402	684	0	correct_rejection	NA	0
45	Single	8	8	1304	5	0	0	1152119	683	0	correct_rejection	NA	0
45	Single	9	9	1305	0	1	1	1152836	683	1	hit	455	0
45	Single	10	10	1306	8	0	0	1153552	684	0	correct_rejection	NA	0
45	Single	11	11	1307	7	0	0	1154269	683	0	correct_rejection	NA	0
45	Single	12	12	1308	5	0	0	1154986	683	0	correct_rejection	NA	0
45	Single	13	13	1309	7	0	0	1155702	684	0	correct_rejection	NA	0
45	Single	14	14	1310	0	1	1	1156419	683	1	hit	427	0
45	Single	15	15	1311	7	0	0	1157136	683	0	correct_rejection	NA	0
45	Single	16	16	1312	8	0	0	1157852	684	0	correct_rejection	NA	0
45	Single	17	17	1313	9	0	0	1158569	683	0	correct_rejection	NA	0
45	Single	18	18	1314	8	0	0	1159286	683	0	correct_rejection	NA	0
45	Single	19	19	1315	6	0	0	1160002	684	0	correct_rejection	NA	0
45	Single	20	20	1316	4	0	0	1160719	683	0	correct_rejection	NA	0
45	Single	21	21	1317	0	1	1	1161436	683	1	hit	402	0
45	Single	22	22	1318	9	0	0	1162152	684	0	correct_rejection	NA	0
45	Single	23	23	1319	9	0	0	1162869	683	0	correct_rejection	NA	0
45	Single	24	24	1320	7	0	0	1163585	684	0	correct_rejection	NA	0
45	Single	25	25	1321	0	1	1	1164302	684	1	hit	413	0
45	Single	26	26	1322	6	0	0	1165019	683	0	correct_rejection	NA	0
45	Single	27	27	1323	6	0	0	1165735	684	0	correct_rejection	NA	0
45	Single	28	28	1324	8	0	0	1166452	683	0	correct_rejection	NA	0
45	Single	29	29	1325	5	0	0	1167169	683	0	correct_rejection	NA	0
45	Single	30	30	1326	6	0	0	1167885	684	0	correct_rejection	NA	0
45	Single	31	31	1327	0	1	1	1168602	683	1	hit	485	0
45	Single	32	32	1328	7	0	0	1169319	683	0	correct_rejection	NA	0
45	Single	33	33	1329	4	0	0	1170035	684	0	correct_rejection	NA	0
45	Single	34	34	1330	8	0	0	1170752	683	0	correct_rejection	NA	0
45	Single	35	35	1331	8	0	0	1171469	683	0	correct_rejection	NA	0
45	Single	36	36	1332	4	0	0	1172185	684	0	correct_rejection	NA	0
45	Single	37	37	1333	6	0	0	1172902	683	0	correct_rejection	NA	0
45	Single	38	38	1334	5	0	0	1173619	683	0	correct_rejection	NA	0
45	Single	39	39	1335	5	0	0	1174335	684	0	correct_rejection	NA	0
45	Single	40	40	1336	9	0	0	1175052	683	0	correct_rejection	NA	0
45	Single	41	41	1337	6	0	0	1175769	683	0	correct_rejection	NA	0
45	Single	42	42	1338	4	0	0	1176485	684	0	correct_rejection	NA	0
45	Single	43	43	1339	9	0	0	1177202	683	0	correct_rejection	NA	0
45	Single	44	44	1340	8	0	0	1177919	683	0	correct_rejection	NA	0
45	Single	45	45	1341	8	0	0	1178635	684	0	correct_rejection	NA	0
45	Single	46	46	1342	6	0	0	1179352	683	0	correct_rejection	NA	0
45	Single	47	47	1343	9	0	0	1180069	683	0	correct_rejection	NA	0
45	Single	48	48	1344	6	0	0	1180785	684	0	correct_rejection	NA	0
45	Single	49	49	1345	6	0	0	1181502	683	0	correct_rejection	NA	0
45	Single	50	50	1346	7	0	0	1182219	683	0	correct_rejection	NA	0
45	Single	51	51	1347	5	0	0	1182935	684	0	correct_rejection	NA	0
45	Single	52	52	1348	6	0	0	1183652	683	0	correct_rejection	NA	0
45	Single	53	53	1349	5	0	0	1184369	683	0	correct_rejection	NA	0
45	Single	54	54	1350	8	0	0	1185085	684	0	correct_rejection	NA	0
45	Single	55	55	1351	4	0	0	1185802	683	0	correct_rejection	NA	0
45	Single	56	56	1352	5	0	0	1186519	683	0	correct_rejection	NA	0
45	Single	57	57	1353	4	0	0	1187235	684	0	correct_rejection	NA	0
45	Single	58	58	1354	8	0	0	1187952	683	0	correct_rejection	NA	0
45	Single	59	59	1355	7	0	0	1188669	683	0	correct_rejection	NA	0
45	Single	60	60	1356	7	0	0	1189385	684	0	correct_rejection	NA	0
45	Single	61	61	1357	6	0	0	1190102	683	0	correct_rejection	NA	0
45	Single	62	62	1358	8	0	0	1190819	683	0	correct_rejection	NA	0
45	Single	63	63	1359	9	0	0	1191535	684	0	correct_rejection	NA	0
45	Single	64	64	1360	7	0	0	1192252	683	0	correct_rejection	NA	0
45	Single	65	65	1361	9	0	0	1192968	684	0	correct_rejection	NA	0
45	Single	66	66	1362	5	0	0	1193685	683	0	correct_rejection	NA	0
45	Single	67	67	1363	5	0	0	1194402	683	0	correct_rejection	NA	0
45	Single	68	68	1364	7	0	0	1195118	684	0	correct_rejection	NA	0
45	Single	69	69	1365	4	0	0	1195835	683	0	correct_rejection	NA	0
45	Single	70	70	1366	6	0	0	1196552	683	0	correct_rejection	NA	0
45	Single	71	71	1367	4	0	0	1197268	684	0	correct_rejection	NA	0
45	Single	72	72	1368	0	1	1	1197985	683	1	hit	406	0
45	Single	73	73	1369	4	0	0	1198702	683	0	correct_rejection	NA	0
45	Single	74	74	1370	7	0	0	1199418	684	0	correct_rejection	NA	0
45	Single	75	75	1371	0	1	1	1200135	683	1	hit	571	0
45	Single	76	76	1372	8	0	0	1200852	683	0	correct_rejection	NA	0
45	Single	77	77	1373	5	0	0	1201568	684	0	correct_rejection	NA	0
45	Single	78	78	1374	9	0	0	1202285	683	0	correct_rejection	NA	0
45	Single	79	79	1375	9	0	0	1203002	683	0	correct_rejection	NA	0
45	Single	80	80	1376	4	0	0	1203718	684	0	correct_rejection	NA	0
45	Single	81	81	1377	9	0	0	1204435	683	0	correct_rejection	NA	0
45	Single	82	82	1378	0	1	1	1205152	683	1	hit	470	0
45	Single	83	83	1379	6	0	0	1205868	684	0	correct_rejection	NA	0
45	Single	84	84	1380	4	0	0	1206585	683	0	correct_rejection	NA	0
45	Single	85	85	1381	6	0	0	1207302	683	0	correct_rejection	NA	0
45	Single	86	86	1382	8	0	0	1208018	684	0	correct_rejection	NA	0
45	Single	87	87	1383	0	1	1	1208735	683	1	hit	556	0
45	Single	88	88	1384	8	0	0	1209452	683	0	correct_rejection	NA	0
45	Single	89	89	1385	5	0	0	1210168	684	0	correct_rejection	NA	0
45	Single	90	90	1386	7	0	0	1210885	683	0	correct_rejection	NA	0
45	Single	91	91	1387	8	0	0	1211602	683	0	correct_rejection	NA	0
45	Single	92	92	1388	6	0	0	1212318	684	0	correct_rejection	NA	0
45	Single	93	93	1389	7	0	0	1213035	683	0	correct_rejection	NA	0
45	Single	94	94	1390	9	0	0	1213752	683	0	correct_rejection	NA	0
45	Single	95	95	1391	8	0	0	1214468	684	0	correct_rejection	NA	0
45	Single	96	96	1392	7	0	0	1215185	683	0	correct_rejection	NA	0
45	Single	97	97	1393	6	0	0	1215902	683	0	correct_rejection	NA	0
45	Single	98	98	1394	9	0	0	1216618	684	0	correct_rejection	NA	0
45	Single	99	99	1395	0	1	1	1217335	683	1	hit	427	0
45	Single	100	100	1396	7	0	0	1218052	683	0	correct_rejection	NA	0
45	Single	101	101	1397	7	0	0	1218768	684	0	correct_rejection	NA	0
45	Single	102	102	1398	4	0	0	1219485	683	0	correct_rejection	NA	0
45	Single	103	103	1399	5	0	0	1220201	684	0	correct_rejection	NA	0
45	Single	104	104	1400	5	0	0	1220918	683	0	correct_rejection	NA	0
45	Single	105	105	1401	8	0	0	1221635	683	0	correct_rejection	NA	0
45	Single	106	106	1402	9	0	0	1222351	684	0	correct_rejection	NA	0
45	Single	107	107	1403	0	1	1	1223068	683	1	hit	443	0
45	Single	108	108	1404	9	0	0	1223785	683	0	correct_rejection	NA	0
45	Single	109	109	1405	4	0	0	1224501	684	0	correct_rejection	NA	0
45	Single	110	110	1406	0	1	1	1225218	683	1	hit	563	0
45	Single	111	111	1407	8	0	0	1225935	683	0	correct_rejection	NA	0
45	Single	112	112	1408	4	0	0	1226651	684	0	correct_rejection	NA	0
45	Single	113	113	1409	0	1	1	1227368	683	1	hit	410	0
45	Single	114	114	1410	7	0	0	1228085	683	0	correct_rejection	NA	0
45	Single	115	115	1411	5	0	0	1228801	684	0	correct_rejection	NA	0
45	Single	116	116	1412	9	0	0	1229518	683	0	correct_rejection	NA	0
45	Single	117	117	1413	5	0	0	1230235	683	0	correct_rejection	NA	0
45	Single	118	118	1414	6	0	0	1230951	684	0	correct_rejection	NA	0
45	Single	119	119	1415	6	0	0	1231668	683	0	correct_rejection	NA	0
45	Single	120	120	1416	5	0	0	1232385	683	0	correct_rejection	NA	0
45	Single	121	121	1417	0	1	1	1233101	684	1	hit	431	0
45	Single	122	122	1418	4	0	0	1233818	683	0	correct_rejection	NA	0
45	Single	123	123	1419	9	0	0	1234535	683	0	correct_rejection	NA	0
45	Single	124	124	1420	7	0	0	1235251	684	0	correct_rejection	NA	0
45	Single	125	125	1421	6	0	0	1235968	683	0	correct_rejection	NA	0
45	Single	126	126	1422	4	0	0	1236685	683	0	correct_rejection	NA	0
45	Single	127	127	1423	9	0	0	1237401	684	0	correct_rejection	NA	0
45	Single	128	128	1424	4	0	0	1238118	683	0	correct_rejection	NA	0
45	Single	129	129	1425	4	0	0	1238835	683	0	correct_rejection	NA	0
45	Single	130	130	1426	8	0	0	1239551	684	0	correct_rejection	NA	0
45	Single	131	131	1427	5	0	0	1240268	683	0	correct_rejection	NA	0
45	Single	132	132	1428	8	0	0	1240985	683	0	correct_rejection	NA	0
45	Single	133	133	1429	6	0	0	1241701	684	0	correct_rejection	NA	0
45	Single	134	134	1430	8	0	0	1242418	683	0	correct_rejection	NA	0
45	Single	135	135	1431	4	0	0	1243135	683	0	correct_rejection	NA	0
45	Single	136	136	1432	6	0	0	1243851	684	0	correct_rejection	NA	0
45	Single	137	137	1433	0	1	1	1244568	683	1	hit	523	0
45	Single	138	138	1434	6	0	0	1245285	683	0	correct_rejection	NA	0
45	Single	139	139	1435	9	0	0	1246001	684	0	correct_rejection	NA	0
45	Single	140	140	1436	5	0	0	1246718	683	0	correct_rejection	NA	0
45	Single	141	141	1437	4	0	0	1247434	684	0	correct_rejection	NA	0
45	Single	142	142	1438	5	0	0	1248151	684	0	correct_rejection	NA	0
45	Single	143	143	1439	0	1	1	1248868	683	1	hit	468	0
45	Single	144	144	1440	6	0	0	1249584	684	0	correct_rejection	NA	0
45	Single	145	145	1441	7	0	0	1250301	683	0	correct_rejection	NA	0
45	Single	146	146	1442	8	0	0	1251018	683	0	correct_rejection	NA	0
45	Single	147	147	1443	8	0	0	1251734	684	0	correct_rejection	NA	0
45	Single	148	148	1444	7	0	0	1252451	683	0	correct_rejection	NA	0
45	Single	149	149	1445	4	0	0	1253168	683	0	correct_rejection	NA	0
45	Single	150	150	1446	7	0	0	1253884	684	0	correct_rejection	NA	0
45	Single	151	151	1447	9	0	0	1254601	683	0	correct_rejection	NA	0
45	Single	152	152	1448	6	0	0	1255318	683	0	correct_rejection	NA	0
45	Single	153	153	1449	5	0	0	1256034	684	0	correct_rejection	NA	0
45	Single	154	154	1450	0	1	1	1256751	683	1	hit	419	0
45	Single	155	155	1451	7	0	0	1257468	683	0	correct_rejection	NA	0
45	Single	156	156	1452	7	0	0	1258184	684	0	correct_rejection	NA	0
45	Single	157	157	1453	0	1	1	1258901	683	1	hit	457	0
45	Single	158	158	1454	5	0	0	1259618	683	0	correct_rejection	NA	0
45	Single	159	159	1455	5	0	0	1260334	684	0	correct_rejection	NA	0
45	Single	160	160	1456	9	0	0	1261051	683	0	correct_rejection	NA	0
45	Single	161	161	1457	8	0	0	1261768	683	0	correct_rejection	NA	0
45	Single	162	162	1458	9	0	0	1262484	684	0	correct_rejection	NA	0
45	Correct	1	325	1459	4	0	0	1272934	684	0	correct_rejection	NA	7807
45	Correct	2	326	1460	5	0	0	1273651	683	0	correct_rejection	NA	0
45	Correct	3	327	1461	6	0	0	1274367	684	0	correct_rejection	NA	0
45	Correct	4	328	1462	4	0	0	1275084	683	0	correct_rejection	NA	0
45	Correct	5	329	1463	5	0	0	1275801	683	0	correct_rejection	NA	0
45	Correct	6	330	1464	6	0	0	1276517	684	0	correct_rejection	NA	0
45	Correct	7	331	1465	4	0	0	1277234	683	0	correct_rejection	NA	0
45	Correct	8	332	1466	5	0	0	1277951	683	0	correct_rejection	NA	0
45	Correct	9	333	1467	6	0	0	1278667	684	0	correct_rejection	NA	0
45	Correct	10	334	1468	0	1	3	1279384	683	1	hit	502	0
45	Correct	11	335	1469	6	0	0	1280101	683	0	correct_rejection	NA	0
45	Correct	12	336	1470	5	0	0	1280817	684	0	correct_rejection	NA	0
45	Correct	13	337	1471	4	0	0	1281534	683	0	correct_rejection	NA	0
45	Correct	14	338	1472	6	0	0	1282251	683	0	correct_rejection	NA	0
45	Correct	15	339	1473	5	0	0	1282967	684	0	correct_rejection	NA	0
45	Correct	16	340	1474	4	0	0	1283684	683	0	correct_rejection	NA	0
45	Correct	17	341	1475	6	0	0	1284401	683	0	correct_rejection	NA	0
45	Correct	18	342	1476	0	1	1	1285117	684	1	hit	503	0
45	Correct	19	343	1477	5	0	0	1285834	683	0	correct_rejection	NA	0
45	Correct	20	344	1478	4	0	0	1286551	683	0	correct_rejection	NA	0
45	Correct	21	345	1479	9	0	0	1287267	684	0	correct_rejection	NA	0
45	Correct	22	346	1480	8	0	0	1287984	683	0	correct_rejection	NA	0
45	Correct	23	347	1481	7	0	0	1288701	683	0	correct_rejection	NA	0
45	Correct	24	348	1482	0	1	2	1289417	684	1	hit	475	0
45	Correct	25	349	1483	9	0	0	1290134	683	0	correct_rejection	NA	0
45	Correct	26	350	1484	8	0	0	1290851	683	0	correct_rejection	NA	0
45	Correct	27	351	1485	7	0	0	1291567	684	0	correct_rejection	NA	0
45	Correct	28	352	1486	9	0	0	1292284	683	0	correct_rejection	NA	0
45	Correct	29	353	1487	8	0	0	1293001	683	0	correct_rejection	NA	0
45	Correct	30	354	1488	7	0	0	1293717	684	0	correct_rejection	NA	0
45	Correct	31	355	1489	7	0	0	1294434	683	0	correct_rejection	NA	0
45	Correct	32	356	1490	8	0	0	1295151	683	0	correct_rejection	NA	0
45	Correct	33	357	1491	9	0	0	1295867	684	0	correct_rejection	NA	0
45	Correct	34	358	1492	7	0	0	1296584	683	0	correct_rejection	NA	0
45	Correct	35	359	1493	8	0	0	1297301	683	0	correct_rejection	NA	0
45	Correct	36	360	1494	9	0	0	1298017	684	0	correct_rejection	NA	0
45	Correct	37	361	1495	7	0	0	1298734	683	0	correct_rejection	NA	0
45	Correct	38	362	1496	0	1	1	1299451	683	1	hit	380	0
45	Correct	39	363	1497	8	0	0	1300167	684	0	correct_rejection	NA	0
45	Correct	40	364	1498	9	0	0	1300884	683	0	correct_rejection	NA	0
45	Correct	41	365	1499	4	0	0	1301601	683	0	correct_rejection	NA	0
45	Correct	42	366	1500	5	0	0	1302317	684	0	correct_rejection	NA	0
45	Correct	43	367	1501	6	0	0	1303034	683	0	correct_rejection	NA	0
45	Correct	44	368	1502	4	0	0	1303750	684	0	correct_rejection	NA	0
45	Correct	45	369	1503	5	0	0	1304467	683	0	correct_rejection	NA	0
45	Correct	46	370	1504	6	0	0	1305184	683	0	correct_rejection	NA	0
45	Correct	47	371	1505	4	0	0	1305900	684	0	correct_rejection	NA	0
45	Correct	48	372	1506	0	1	1	1306617	683	1	hit	489	0
45	Correct	49	373	1507	5	0	0	1307334	683	0	correct_rejection	NA	0
45	Correct	50	374	1508	6	0	0	1308050	684	0	correct_rejection	NA	0
45	Correct	51	375	1509	6	0	0	1308767	683	0	correct_rejection	NA	0
45	Correct	52	376	1510	5	0	0	1309484	683	0	correct_rejection	NA	0
45	Correct	53	377	1511	4	0	0	1310200	684	0	correct_rejection	NA	0
45	Correct	54	378	1512	6	0	0	1310917	683	0	correct_rejection	NA	0
45	Correct	55	379	1513	5	0	0	1311634	683	0	correct_rejection	NA	0
45	Correct	56	380	1514	4	0	0	1312350	684	0	correct_rejection	NA	0
45	Correct	57	381	1515	6	0	0	1313067	683	0	correct_rejection	NA	0
45	Correct	58	382	1516	5	0	0	1313784	683	0	correct_rejection	NA	0
45	Correct	59	383	1517	4	0	0	1314500	684	0	correct_rejection	NA	0
45	Correct	60	384	1518	9	0	0	1315217	683	0	correct_rejection	NA	0
45	Correct	61	385	1519	8	0	0	1315934	683	0	correct_rejection	NA	0
45	Correct	62	386	1520	7	0	0	1316650	684	0	correct_rejection	NA	0
45	Correct	63	387	1521	9	0	0	1317367	683	0	correct_rejection	NA	0
45	Correct	64	388	1522	8	0	0	1318084	683	0	correct_rejection	NA	0
45	Correct	65	389	1523	0	1	1	1318800	684	1	hit	503	0
45	Correct	66	390	1524	7	0	0	1319517	683	0	correct_rejection	NA	0
45	Correct	67	391	1525	9	0	0	1320234	683	0	correct_rejection	NA	0
45	Correct	68	392	1526	8	0	0	1320950	684	0	correct_rejection	NA	0
45	Correct	69	393	1527	7	0	0	1321667	683	0	correct_rejection	NA	0
45	Correct	70	394	1528	7	0	0	1322384	683	0	correct_rejection	NA	0
45	Correct	71	395	1529	8	0	0	1323100	684	0	correct_rejection	NA	0
45	Correct	72	396	1530	9	0	0	1323817	683	0	correct_rejection	NA	0
45	Correct	73	397	1531	0	1	2	1324534	683	1	hit	562	0
45	Correct	74	398	1532	7	0	0	1325250	684	0	correct_rejection	NA	0
45	Correct	75	399	1533	8	0	0	1325967	683	0	correct_rejection	NA	0
45	Correct	76	400	1534	0	1	1	1326684	683	1	hit	490	0
45	Correct	77	401	1535	9	0	0	1327400	684	0	correct_rejection	NA	0
45	Correct	78	402	1536	7	0	0	1328117	683	0	correct_rejection	NA	0
45	Correct	79	403	1537	8	0	0	1328834	683	0	correct_rejection	NA	0
45	Correct	80	404	1538	0	1	1	1329550	684	1	hit	579	0
45	Correct	81	405	1539	9	0	0	1330267	683	0	correct_rejection	NA	0
45	Correct	82	406	1540	4	0	0	1330983	684	0	correct_rejection	NA	0
45	Correct	83	407	1541	5	0	0	1331700	684	0	correct_rejection	NA	0
45	Correct	84	408	1542	0	1	1	1332417	683	1	hit	458	0
45	Correct	85	409	1543	6	0	0	1333133	684	0	correct_rejection	NA	0
45	Correct	86	410	1544	4	0	0	1333850	683	0	correct_rejection	NA	0
45	Correct	87	411	1545	5	0	0	1334567	683	0	correct_rejection	NA	0
45	Correct	88	412	1546	6	0	0	1335283	684	0	correct_rejection	NA	0
45	Correct	89	413	1547	4	0	0	1336000	683	0	correct_rejection	NA	0
45	Correct	90	414	1548	5	0	0	1336717	683	0	correct_rejection	NA	0
45	Correct	91	415	1549	6	0	0	1337433	684	0	correct_rejection	NA	0
45	Correct	92	416	1550	6	0	0	1338150	683	0	correct_rejection	NA	0
45	Correct	93	417	1551	5	0	0	1338867	683	0	correct_rejection	NA	0
45	Correct	94	418	1552	4	0	0	1339583	684	0	correct_rejection	NA	0
45	Correct	95	419	1553	6	0	0	1340300	683	0	correct_rejection	NA	0
45	Correct	96	420	1554	5	0	0	1341017	683	0	correct_rejection	NA	0
45	Correct	97	421	1555	4	0	0	1341733	684	0	correct_rejection	NA	0
45	Correct	98	422	1556	6	0	0	1342450	683	0	correct_rejection	NA	0
45	Correct	99	423	1557	5	0	0	1343167	683	0	correct_rejection	NA	0
45	Correct	100	424	1558	4	0	0	1343883	684	0	correct_rejection	NA	0
45	Correct	101	425	1559	9	0	0	1344600	683	0	correct_rejection	NA	0
45	Correct	102	426	1560	8	0	0	1345317	683	0	correct_rejection	NA	0
45	Correct	103	427	1561	7	0	0	1346033	684	0	correct_rejection	NA	0
45	Correct	104	428	1562	0	1	2	1346750	683	1	hit	530	0
45	Correct	105	429	1563	9	0	0	1347467	683	0	correct_rejection	NA	0
45	Correct	106	430	1564	8	0	0	1348183	684	0	correct_rejection	NA	0
45	Correct	107	431	1565	7	0	0	1348900	683	0	correct_rejection	NA	0
45	Correct	108	432	1566	9	0	0	1349617	683	0	correct_rejection	NA	0
45	Correct	109	433	1567	8	0	0	1350333	684	0	correct_rejection	NA	0
45	Correct	110	434	1568	7	0	0	1351050	683	0	correct_rejection	NA	0
45	Correct	111	435	1569	0	1	3	1351767	683	1	hit	425	0
45	Correct	112	436	1570	7	0	0	1352483	684	0	correct_rejection	NA	0
45	Correct	113	437	1571	8	0	0	1353200	683	0	correct_rejection	NA	0
45	Correct	114	438	1572	9	0	0	1353917	683	0	correct_rejection	NA	0
45	Correct	115	439	1573	7	0	0	1354633	684	0	correct_rejection	NA	0
45	Correct	116	440	1574	0	1	1	1355350	683	1	hit	405	0
45	Correct	117	441	1575	8	0	0	1356067	683	0	correct_rejection	NA	0
45	Correct	118	442	1576	9	0	0	1356783	684	0	correct_rejection	NA	0
45	Correct	119	443	1577	7	0	0	1357500	683	0	correct_rejection	NA	0
45	Correct	120	444	1578	0	1	1	1358216	684	1	hit	456	0
45	Correct	121	445	1579	8	0	0	1358933	684	0	correct_rejection	NA	0
45	Correct	122	446	1580	9	0	0	1359650	683	0	correct_rejection	NA	0
45	Correct	123	447	1581	4	0	0	1360366	684	0	correct_rejection	NA	0
45	Correct	124	448	1582	5	0	0	1361083	683	0	correct_rejection	NA	0
45	Correct	125	449	1583	6	0	0	1361800	683	0	correct_rejection	NA	0
45	Correct	126	450	1584	4	0	0	1362516	684	0	correct_rejection	NA	0
45	Correct	127	451	1585	0	1	1	1363233	683	1	hit	521	0
45	Correct	128	452	1586	5	0	0	1363950	683	0	correct_rejection	NA	0
45	Correct	129	453	1587	6	0	0	1364666	684	0	correct_rejection	NA	0
45	Correct	130	454	1588	4	0	0	1365383	683	0	correct_rejection	NA	0
45	Correct	131	455	1589	5	0	0	1366100	683	0	correct_rejection	NA	0
45	Correct	132	456	1590	6	0	0	1366816	684	0	correct_rejection	NA	0
45	Correct	133	457	1591	6	0	0	1367533	683	0	correct_rejection	NA	0
