ID	block	trial_block	trial_cat	trial_total	number	violation	level_violation	onset	duration	Response	Hit_Miss	RT	pre_trial_fixcross_ISI
first_trigger_at: 11142
trigger nr 3 at 13142
46	Triplet	1	487	1	6	0	0	20398	692	0	correct_rejection	NA	7219
46	Triplet	2	488	2	5	0	0	21106	692	0	correct_rejection	NA	0
46	Triplet	3	489	3	4	0	0	21815	692	0	correct_rejection	NA	0
46	Triplet	4	490	4	4	0	0	22524	691	0	correct_rejection	NA	0
46	Triplet	5	491	5	5	0	0	23232	692	0	correct_rejection	NA	0
46	Triplet	6	492	6	6	0	0	23941	691	0	correct_rejection	NA	0
46	Triplet	7	493	7	9	0	0	24649	692	0	correct_rejection	NA	0
46	Triplet	8	494	8	8	0	0	25358	692	0	correct_rejection	NA	0
46	Triplet	9	495	9	7	0	0	26066	692	0	correct_rejection	NA	0
46	Triplet	10	496	10	0	1	2	26775	692	0	miss	NA	0
46	Triplet	11	497	11	4	0	0	27484	691	0	correct_rejection	NA	0
46	Triplet	12	498	12	5	0	0	28192	692	0	correct_rejection	NA	0
46	Triplet	13	499	13	0	1	1	28901	691	1	hit	387	0
46	Triplet	14	500	14	6	0	0	29609	692	0	correct_rejection	NA	0
46	Triplet	15	501	15	6	0	0	30318	691	0	correct_rejection	NA	0
46	Triplet	16	502	16	5	0	0	31026	692	0	correct_rejection	NA	0
46	Triplet	17	503	17	0	1	1	31735	692	1	hit	308	0
46	Triplet	18	504	18	4	0	0	32443	692	0	correct_rejection	NA	0
46	Triplet	19	505	19	6	0	0	33152	692	0	correct_rejection	NA	0
46	Triplet	20	506	20	5	0	0	33861	691	0	correct_rejection	NA	0
46	Triplet	21	507	21	4	0	0	34569	692	0	correct_rejection	NA	0
46	Triplet	22	508	22	7	0	0	35278	691	0	correct_rejection	NA	0
46	Triplet	23	509	23	0	1	1	35986	692	1	hit	350	0
46	Triplet	24	510	24	8	0	0	36695	692	0	correct_rejection	NA	0
46	Triplet	25	511	25	9	0	0	37403	692	0	correct_rejection	NA	0
46	Triplet	26	512	26	6	0	0	38112	692	0	correct_rejection	NA	0
46	Triplet	27	513	27	0	1	1	38821	691	1	hit	343	0
46	Triplet	28	514	28	5	0	0	39529	692	0	correct_rejection	NA	0
46	Triplet	29	515	29	4	0	0	40238	691	0	correct_rejection	NA	0
46	Triplet	30	516	30	9	0	0	40946	692	0	correct_rejection	NA	0
46	Triplet	31	517	31	0	1	1	41655	692	1	hit	368	0
46	Triplet	32	518	32	8	0	0	42363	692	0	correct_rejection	NA	0
46	Triplet	33	519	33	7	0	0	43072	692	0	correct_rejection	NA	0
46	Triplet	34	520	34	9	0	0	43781	691	0	correct_rejection	NA	0
46	Triplet	35	521	35	8	0	0	44489	692	0	correct_rejection	NA	0
46	Triplet	36	522	36	0	1	1	45198	691	1	hit	370	0
46	Triplet	37	523	37	7	0	0	45906	692	0	correct_rejection	NA	0
46	Triplet	38	524	38	7	0	0	46615	691	0	correct_rejection	NA	0
46	Triplet	39	525	39	8	0	0	47323	692	0	correct_rejection	NA	0
46	Triplet	40	526	40	9	0	0	48032	692	0	correct_rejection	NA	0
46	Triplet	41	527	41	0	1	2	48741	691	1	hit	329	0
46	Triplet	42	528	42	4	0	0	49449	692	0	correct_rejection	NA	0
46	Triplet	43	529	43	5	0	0	50158	691	0	correct_rejection	NA	0
46	Triplet	44	530	44	6	0	0	50866	692	0	correct_rejection	NA	0
46	Triplet	45	531	45	4	0	0	51575	691	0	correct_rejection	NA	0
46	Triplet	46	532	46	5	0	0	52283	692	0	correct_rejection	NA	0
46	Triplet	47	533	47	6	0	0	52992	692	0	correct_rejection	NA	0
46	Triplet	48	534	48	7	0	0	53700	692	0	correct_rejection	NA	0
46	Triplet	49	535	49	8	0	0	54409	692	0	correct_rejection	NA	0
46	Triplet	50	536	50	9	0	0	55118	691	0	correct_rejection	NA	0
46	Triplet	51	537	51	7	0	0	55826	692	0	correct_rejection	NA	0
46	Triplet	52	538	52	8	0	0	56535	691	0	correct_rejection	NA	0
46	Triplet	53	539	53	0	1	1	57243	692	1	hit	460	0
46	Triplet	54	540	54	9	0	0	57952	692	0	correct_rejection	NA	0
46	Triplet	55	541	55	9	0	0	58660	692	0	correct_rejection	NA	0
46	Triplet	56	542	56	8	0	0	59369	692	0	correct_rejection	NA	0
46	Triplet	57	543	57	7	0	0	60078	691	0	correct_rejection	NA	0
46	Triplet	58	544	58	4	0	0	60786	692	0	correct_rejection	NA	0
46	Triplet	59	545	59	5	0	0	61495	691	0	correct_rejection	NA	0
46	Triplet	60	546	60	0	1	1	62203	692	1	hit	331	0
46	Triplet	61	547	61	6	0	0	62912	692	0	correct_rejection	NA	0
46	Triplet	62	548	62	7	0	0	63620	692	0	correct_rejection	NA	0
46	Triplet	63	549	63	8	0	0	64329	692	0	correct_rejection	NA	0
46	Triplet	64	550	64	9	0	0	65038	691	0	correct_rejection	NA	0
46	Triplet	65	551	65	6	0	0	65746	692	0	correct_rejection	NA	0
46	Triplet	66	552	66	0	1	1	66455	691	1	hit	530	0
46	Triplet	67	553	67	5	0	0	67163	692	0	correct_rejection	NA	0
46	Triplet	68	554	68	4	0	0	67872	691	0	correct_rejection	NA	0
46	Triplet	69	555	69	6	0	0	68580	692	0	correct_rejection	NA	0
46	Triplet	70	556	70	5	0	0	69289	692	0	correct_rejection	NA	0
46	Triplet	71	557	71	4	0	0	69997	692	0	correct_rejection	NA	0
46	Triplet	72	558	72	4	0	0	70706	692	0	correct_rejection	NA	0
46	Triplet	73	559	73	5	0	0	71415	691	0	correct_rejection	NA	0
46	Triplet	74	560	74	6	0	0	72123	692	0	correct_rejection	NA	0
46	Triplet	75	561	75	4	0	0	72832	691	0	correct_rejection	NA	0
46	Triplet	76	562	76	5	0	0	73540	692	0	correct_rejection	NA	0
46	Triplet	77	563	77	6	0	0	74249	692	0	correct_rejection	NA	0
46	Triplet	78	564	78	0	1	2	74957	692	1	hit	280	0
46	Triplet	79	565	79	6	0	0	75666	692	0	correct_rejection	NA	0
46	Triplet	80	566	80	5	0	0	76375	691	0	correct_rejection	NA	0
46	Triplet	81	567	81	4	0	0	77083	692	0	correct_rejection	NA	0
46	Triplet	82	568	82	7	0	0	77792	691	0	correct_rejection	NA	0
46	Triplet	83	569	83	0	1	1	78500	692	1	hit	362	0
46	Triplet	84	570	84	8	0	0	79209	692	0	correct_rejection	NA	0
46	Triplet	85	571	85	9	0	0	79917	692	0	correct_rejection	NA	0
46	Triplet	86	572	86	0	1	2	80626	692	1	hit	330	0
46	Triplet	87	573	87	9	0	0	81335	691	0	correct_rejection	NA	0
46	Triplet	88	574	88	8	0	0	82043	692	0	correct_rejection	NA	0
46	Triplet	89	575	89	0	1	1	82752	691	1	hit	400	0
46	Triplet	90	576	90	7	0	0	83460	692	0	correct_rejection	NA	0
46	Triplet	91	577	91	4	0	0	84169	692	0	correct_rejection	NA	0
46	Triplet	92	578	92	5	0	0	84877	692	0	correct_rejection	NA	0
46	Triplet	93	579	93	6	0	0	85586	692	0	correct_rejection	NA	0
46	Triplet	94	580	94	9	0	0	86295	691	0	correct_rejection	NA	0
46	Triplet	95	581	95	8	0	0	87003	692	0	correct_rejection	NA	0
46	Triplet	96	582	96	7	0	0	87712	691	0	correct_rejection	NA	0
46	Triplet	97	583	97	9	0	0	88420	692	0	correct_rejection	NA	0
46	Triplet	98	584	98	8	0	0	89129	691	0	correct_rejection	NA	0
46	Triplet	99	585	99	0	1	1	89837	692	1	hit	285	0
46	Triplet	100	586	100	7	0	0	90546	692	0	correct_rejection	NA	0
46	Triplet	101	587	101	6	0	0	91254	692	0	correct_rejection	NA	0
46	Triplet	102	588	102	5	0	0	91963	692	0	correct_rejection	NA	0
46	Triplet	103	589	103	4	0	0	92672	691	0	correct_rejection	NA	0
46	Triplet	104	590	104	9	0	0	93380	692	0	correct_rejection	NA	0
46	Triplet	105	591	105	8	0	0	94089	691	0	correct_rejection	NA	0
46	Triplet	106	592	106	7	0	0	94797	692	0	correct_rejection	NA	0
46	Triplet	107	593	107	7	0	0	95506	692	0	correct_rejection	NA	0
46	Triplet	108	594	108	8	0	0	96214	692	0	correct_rejection	NA	0
46	Triplet	109	595	109	9	0	0	96923	692	0	correct_rejection	NA	0
46	Triplet	110	596	110	7	0	0	97632	691	0	correct_rejection	NA	0
46	Triplet	111	597	111	8	0	0	98340	692	0	correct_rejection	NA	0
46	Triplet	112	598	112	9	0	0	99049	691	0	correct_rejection	NA	0
46	Triplet	113	599	113	6	0	0	99757	692	0	correct_rejection	NA	0
46	Triplet	114	600	114	5	0	0	100466	692	0	correct_rejection	NA	0
46	Triplet	115	601	115	4	0	0	101174	692	0	correct_rejection	NA	0
46	Triplet	116	602	116	0	1	2	101883	692	1	hit	256	0
46	Triplet	117	603	117	9	0	0	102592	691	0	correct_rejection	NA	0
46	Triplet	118	604	118	8	0	0	103300	692	0	correct_rejection	NA	0
46	Triplet	119	605	119	7	0	0	104009	691	0	correct_rejection	NA	0
46	Triplet	120	606	120	6	0	0	104717	692	0	correct_rejection	NA	0
46	Triplet	121	607	121	5	0	0	105426	691	0	correct_rejection	NA	0
46	Triplet	122	608	122	4	0	0	106134	692	0	correct_rejection	NA	0
46	Triplet	123	609	123	7	0	0	106843	692	0	correct_rejection	NA	0
46	Triplet	124	610	124	8	0	0	107552	691	0	correct_rejection	NA	0
46	Triplet	125	611	125	9	0	0	108260	692	0	correct_rejection	NA	0
46	Triplet	126	612	126	7	0	0	108969	691	0	correct_rejection	NA	0
46	Triplet	127	613	127	8	0	0	109677	692	0	correct_rejection	NA	0
46	Triplet	128	614	128	9	0	0	110386	691	0	correct_rejection	NA	0
46	Triplet	129	615	129	4	0	0	111094	692	0	correct_rejection	NA	0
46	Triplet	130	616	130	5	0	0	111803	692	0	correct_rejection	NA	0
46	Triplet	131	617	131	6	0	0	112511	692	0	correct_rejection	NA	0
46	Triplet	132	618	132	6	0	0	113220	692	0	correct_rejection	NA	0
46	Triplet	133	619	133	5	0	0	113929	691	0	correct_rejection	NA	0
46	Triplet	134	620	134	4	0	0	114637	692	0	correct_rejection	NA	0
46	Triplet	135	621	135	4	0	0	115346	691	0	correct_rejection	NA	0
46	Triplet	136	622	136	5	0	0	116054	692	0	correct_rejection	NA	0
46	Triplet	137	623	137	6	0	0	116763	692	0	correct_rejection	NA	0
46	Triplet	138	624	138	7	0	0	117471	692	0	correct_rejection	NA	0
46	Triplet	139	625	139	8	0	0	118180	692	0	correct_rejection	NA	0
46	Triplet	140	626	140	9	0	0	118889	691	0	correct_rejection	NA	0
46	Triplet	141	627	141	9	0	0	119597	692	0	correct_rejection	NA	0
46	Triplet	142	628	142	8	0	0	120306	691	0	correct_rejection	NA	0
46	Triplet	143	629	143	7	0	0	121014	692	0	correct_rejection	NA	0
46	Triplet	144	630	144	0	1	2	121723	692	1	hit	287	0
46	Triplet	145	631	145	9	0	0	122431	692	0	correct_rejection	NA	0
46	Triplet	146	632	146	8	0	0	123140	692	0	correct_rejection	NA	0
46	Triplet	147	633	147	7	0	0	123849	691	0	correct_rejection	NA	0
46	Triplet	148	634	148	4	0	0	124557	692	0	correct_rejection	NA	0
46	Triplet	149	635	149	5	0	0	125266	691	0	correct_rejection	NA	0
46	Triplet	150	636	150	6	0	0	125974	692	0	correct_rejection	NA	0
46	Triplet	151	637	151	4	0	0	126683	691	0	correct_rejection	NA	0
46	Triplet	152	638	152	5	0	0	127391	692	0	correct_rejection	NA	0
46	Triplet	153	639	153	6	0	0	128100	692	0	correct_rejection	NA	0
46	Triplet	154	640	154	9	0	0	128808	692	0	correct_rejection	NA	0
46	Triplet	155	641	155	8	0	0	129517	692	0	correct_rejection	NA	0
46	Triplet	156	642	156	7	0	0	130226	691	0	correct_rejection	NA	0
46	Triplet	157	643	157	7	0	0	130934	692	0	correct_rejection	NA	0
46	Triplet	158	644	158	8	0	0	131643	691	0	correct_rejection	NA	0
46	Triplet	159	645	159	9	0	0	132351	692	0	correct_rejection	NA	0
46	Triplet	160	646	160	6	0	0	133060	692	0	correct_rejection	NA	0
46	Triplet	161	647	161	5	0	0	133768	692	0	correct_rejection	NA	0
46	Triplet	162	648	162	4	0	0	134477	692	0	correct_rejection	NA	0
46	Correct	1	649	163	4	0	0	145122	692	0	correct_rejection	NA	7949
46	Correct	2	650	164	5	0	0	145831	691	0	correct_rejection	NA	0
46	Correct	3	651	165	6	0	0	146539	692	0	correct_rejection	NA	0
46	Correct	4	652	166	4	0	0	147248	692	0	correct_rejection	NA	0
46	Correct	5	653	167	5	0	0	147956	692	0	correct_rejection	NA	0
46	Correct	6	654	168	6	0	0	148665	692	0	correct_rejection	NA	0
46	Correct	7	655	169	4	0	0	149374	691	0	correct_rejection	NA	0
46	Correct	8	656	170	5	0	0	150082	692	0	correct_rejection	NA	0
46	Correct	9	657	171	6	0	0	150791	691	0	correct_rejection	NA	0
46	Correct	10	658	172	6	0	0	151499	692	0	correct_rejection	NA	0
46	Correct	11	659	173	5	0	0	152208	692	0	correct_rejection	NA	0
46	Correct	12	660	174	4	0	0	152916	692	0	correct_rejection	NA	0
46	Correct	13	661	175	6	0	0	153625	692	0	correct_rejection	NA	0
46	Correct	14	662	176	5	0	0	154334	691	0	correct_rejection	NA	0
46	Correct	15	663	177	4	0	0	155042	692	0	correct_rejection	NA	0
46	Correct	16	664	178	6	0	0	155751	691	0	correct_rejection	NA	0
46	Correct	17	665	179	5	0	0	156459	692	0	correct_rejection	NA	0
46	Correct	18	666	180	4	0	0	157168	692	0	correct_rejection	NA	0
46	Correct	19	667	181	9	0	0	157876	692	0	correct_rejection	NA	0
46	Correct	20	668	182	8	0	0	158585	692	0	correct_rejection	NA	0
46	Correct	21	669	183	7	0	0	159294	691	0	correct_rejection	NA	0
46	Correct	22	670	184	0	1	2	160002	692	1	hit	366	0
46	Correct	23	671	185	9	0	0	160711	691	0	correct_rejection	NA	0
46	Correct	24	672	186	8	0	0	161419	692	0	correct_rejection	NA	0
46	Correct	25	673	187	7	0	0	162128	691	0	correct_rejection	NA	0
46	Correct	26	674	188	9	0	0	162836	692	0	correct_rejection	NA	0
46	Correct	27	675	189	8	0	0	163545	692	0	correct_rejection	NA	0
46	Correct	28	676	190	7	0	0	164253	692	0	correct_rejection	NA	0
46	Correct	29	677	191	7	0	0	164962	692	0	correct_rejection	NA	0
46	Correct	30	678	192	8	0	0	165671	691	0	correct_rejection	NA	0
46	Correct	31	679	193	9	0	0	166379	692	0	correct_rejection	NA	0
46	Correct	32	680	194	7	0	0	167088	691	0	correct_rejection	NA	0
46	Correct	33	681	195	8	0	0	167796	692	0	correct_rejection	NA	0
46	Correct	34	682	196	9	0	0	168505	692	0	correct_rejection	NA	0
46	Correct	35	683	197	0	1	2	169213	692	1	hit	350	0
46	Correct	36	684	198	7	0	0	169922	692	0	correct_rejection	NA	0
46	Correct	37	685	199	8	0	0	170631	691	0	correct_rejection	NA	0
46	Correct	38	686	200	9	0	0	171339	692	0	correct_rejection	NA	0
46	Correct	39	687	201	0	1	4	172048	691	1	hit	501	0
46	Correct	40	688	202	4	0	0	172756	692	0	correct_rejection	NA	0
46	Correct	41	689	203	5	0	0	173465	692	0	correct_rejection	NA	0
46	Correct	42	690	204	6	0	0	174173	692	0	correct_rejection	NA	0
46	Correct	43	691	205	4	0	0	174882	692	0	correct_rejection	NA	0
46	Correct	44	692	206	0	1	1	175591	691	1	hit	334	0
46	Correct	45	693	207	5	0	0	176299	692	0	correct_rejection	NA	0
46	Correct	46	694	208	6	0	0	177008	691	0	correct_rejection	NA	0
46	Correct	47	695	209	4	0	0	177716	692	0	correct_rejection	NA	0
46	Correct	48	696	210	5	0	0	178425	691	0	correct_rejection	NA	0
46	Correct	49	697	211	6	0	0	179133	692	0	correct_rejection	NA	0
46	Correct	50	698	212	6	0	0	179842	692	0	correct_rejection	NA	0
46	Correct	51	699	213	5	0	0	180550	692	0	correct_rejection	NA	0
46	Correct	52	700	214	4	0	0	181259	692	0	correct_rejection	NA	0
46	Correct	53	701	215	6	0	0	181968	691	0	correct_rejection	NA	0
46	Correct	54	702	216	5	0	0	182676	692	0	correct_rejection	NA	0
46	Correct	55	703	217	4	0	0	183385	691	0	correct_rejection	NA	0
46	Correct	56	704	218	6	0	0	184093	692	0	correct_rejection	NA	0
46	Correct	57	705	219	5	0	0	184802	692	0	correct_rejection	NA	0
46	Correct	58	706	220	0	1	1	185510	692	1	hit	376	0
46	Correct	59	707	221	4	0	0	186219	692	0	correct_rejection	NA	0
46	Correct	60	708	222	9	0	0	186928	691	0	correct_rejection	NA	0
46	Correct	61	709	223	8	0	0	187636	692	0	correct_rejection	NA	0
46	Correct	62	710	224	7	0	0	188345	691	0	correct_rejection	NA	0
46	Correct	63	711	225	9	0	0	189053	692	0	correct_rejection	NA	0
46	Correct	64	712	226	0	1	1	189762	692	1	hit	341	0
46	Correct	65	713	227	8	0	0	190470	692	0	correct_rejection	NA	0
46	Correct	66	714	228	7	0	0	191179	692	0	correct_rejection	NA	0
46	Correct	67	715	229	9	0	0	191888	691	0	correct_rejection	NA	0
46	Correct	68	716	230	8	0	0	192596	692	0	correct_rejection	NA	0
46	Correct	69	717	231	7	0	0	193305	691	0	correct_rejection	NA	0
46	Correct	70	718	232	7	0	0	194013	692	0	correct_rejection	NA	0
46	Correct	71	719	233	8	0	0	194722	692	0	correct_rejection	NA	0
46	Correct	72	720	234	9	0	0	195430	692	0	correct_rejection	NA	0
46	Correct	73	721	235	7	0	0	196139	692	0	correct_rejection	NA	0
46	Correct	74	722	236	8	0	0	196848	691	0	correct_rejection	NA	0
46	Correct	75	723	237	9	0	0	197556	692	0	correct_rejection	NA	0
46	Correct	76	724	238	7	0	0	198265	691	0	correct_rejection	NA	0
46	Correct	77	725	239	0	1	1	198973	692	1	hit	341	0
46	Correct	78	726	240	8	0	0	199682	691	0	correct_rejection	NA	0
46	Correct	79	727	241	9	0	0	200390	692	0	correct_rejection	NA	0
46	Correct	80	728	242	4	0	0	201099	692	0	correct_rejection	NA	0
46	Correct	81	729	243	5	0	0	201807	692	0	correct_rejection	NA	0
46	Correct	82	730	244	6	0	0	202516	692	0	correct_rejection	NA	0
46	Correct	83	731	245	4	0	0	203225	691	0	correct_rejection	NA	0
46	Correct	84	732	246	5	0	0	203933	692	0	correct_rejection	NA	0
46	Correct	85	733	247	6	0	0	204642	691	0	correct_rejection	NA	0
46	Correct	86	734	248	4	0	0	205350	692	0	correct_rejection	NA	0
46	Correct	87	735	249	5	0	0	206059	692	0	correct_rejection	NA	0
46	Correct	88	736	250	6	0	0	206767	692	0	correct_rejection	NA	0
46	Correct	89	737	251	6	0	0	207476	692	0	correct_rejection	NA	0
46	Correct	90	738	252	5	0	0	208185	691	0	correct_rejection	NA	0
46	Correct	91	739	253	4	0	0	208893	692	0	correct_rejection	NA	0
46	Correct	92	740	254	6	0	0	209602	691	0	correct_rejection	NA	0
46	Correct	93	741	255	0	1	1	210310	692	1	hit	319	0
46	Correct	94	742	256	5	0	0	211019	692	0	correct_rejection	NA	0
46	Correct	95	743	257	4	0	0	211727	692	0	correct_rejection	NA	0
46	Correct	96	744	258	6	0	0	212436	692	0	correct_rejection	NA	0
46	Correct	97	745	259	5	0	0	213145	691	0	correct_rejection	NA	0
46	Correct	98	746	260	4	0	0	213853	692	0	correct_rejection	NA	0
46	Correct	99	747	261	0	1	3	214562	691	1	hit	370	0
46	Correct	100	748	262	9	0	0	215270	692	0	correct_rejection	NA	0
46	Correct	101	749	263	8	0	0	215979	692	0	correct_rejection	NA	0
46	Correct	102	750	264	7	0	0	216687	692	0	correct_rejection	NA	0
46	Correct	103	751	265	9	0	0	217396	692	0	correct_rejection	NA	0
46	Correct	104	752	266	8	0	0	218105	691	0	correct_rejection	NA	0
46	Correct	105	753	267	7	0	0	218813	692	0	correct_rejection	NA	0
46	Correct	106	754	268	9	0	0	219522	691	0	correct_rejection	NA	0
46	Correct	107	755	269	8	0	0	220230	692	0	correct_rejection	NA	0
46	Correct	108	756	270	7	0	0	220939	691	0	correct_rejection	NA	0
46	Correct	109	757	271	0	1	3	221647	692	1	hit	387	0
46	Correct	110	758	272	7	0	0	222356	692	0	correct_rejection	NA	0
46	Correct	111	759	273	8	0	0	223064	692	0	correct_rejection	NA	0
46	Correct	112	760	274	9	0	0	223773	692	0	correct_rejection	NA	0
46	Correct	113	761	275	0	1	2	224482	691	1	hit	309	0
46	Correct	114	762	276	7	0	0	225190	692	0	correct_rejection	NA	0
46	Correct	115	763	277	8	0	0	225899	691	0	correct_rejection	NA	0
46	Correct	116	764	278	9	0	0	226607	692	0	correct_rejection	NA	0
46	Correct	117	765	279	7	0	0	227316	692	0	correct_rejection	NA	0
46	Correct	118	766	280	8	0	0	228024	692	0	correct_rejection	NA	0
46	Correct	119	767	281	9	0	0	228733	692	0	correct_rejection	NA	0
46	Correct	120	768	282	4	0	0	229442	691	0	correct_rejection	NA	0
46	Correct	121	769	283	0	1	1	230150	692	1	hit	303	0
46	Correct	122	770	284	5	0	0	230859	691	0	correct_rejection	NA	0
46	Correct	123	771	285	6	0	0	231567	692	0	correct_rejection	NA	0
46	Correct	124	772	286	4	0	0	232276	692	0	correct_rejection	NA	0
46	Correct	125	773	287	5	0	0	232984	692	0	correct_rejection	NA	0
46	Correct	126	774	288	0	1	1	233693	692	1	hit	478	0
46	Correct	127	775	289	6	0	0	234402	691	0	correct_rejection	NA	0
46	Correct	128	776	290	4	0	0	235110	692	0	correct_rejection	NA	0
46	Correct	129	777	291	5	0	0	235819	691	0	correct_rejection	NA	0
46	Correct	130	778	292	6	0	0	236527	692	0	correct_rejection	NA	0
46	Correct	131	779	293	6	0	0	237236	691	0	correct_rejection	NA	0
46	Correct	132	780	294	5	0	0	237944	692	0	correct_rejection	NA	0
46	Correct	133	781	295	0	1	1	238653	692	1	hit	351	0
46	Correct	134	782	296	4	0	0	239361	692	0	correct_rejection	NA	0
46	Correct	135	783	297	6	0	0	240070	692	0	correct_rejection	NA	0
46	Correct	136	784	298	0	1	1	240779	691	1	hit	373	0
46	Correct	137	785	299	5	0	0	241487	692	0	correct_rejection	NA	0
46	Correct	138	786	300	4	0	0	242196	691	0	correct_rejection	NA	0
46	Correct	139	787	301	6	0	0	242904	692	0	correct_rejection	NA	0
46	Correct	140	788	302	5	0	0	243613	692	0	correct_rejection	NA	0
46	Correct	141	789	303	4	0	0	244321	692	0	correct_rejection	NA	0
46	Correct	142	790	304	9	0	0	245030	692	0	correct_rejection	NA	0
46	Correct	143	791	305	8	0	0	245739	691	0	correct_rejection	NA	0
46	Correct	144	792	306	0	1	1	246447	692	1	hit	338	0
46	Correct	145	793	307	7	0	0	247156	691	0	correct_rejection	NA	0
46	Correct	146	794	308	9	0	0	247864	692	0	correct_rejection	NA	0
46	Correct	147	795	309	8	0	0	248573	692	0	correct_rejection	NA	0
46	Correct	148	796	310	7	0	0	249281	692	0	correct_rejection	NA	0
46	Correct	149	797	311	9	0	0	249990	692	0	correct_rejection	NA	0
46	Correct	150	798	312	8	0	0	250699	691	0	correct_rejection	NA	0
46	Correct	151	799	313	7	0	0	251407	692	0	correct_rejection	NA	0
46	Correct	152	800	314	7	0	0	252116	691	0	correct_rejection	NA	0
46	Correct	153	801	315	8	0	0	252824	692	0	correct_rejection	NA	0
46	Correct	154	802	316	9	0	0	253533	692	0	correct_rejection	NA	0
46	Correct	155	803	317	7	0	0	254241	692	0	correct_rejection	NA	0
46	Correct	156	804	318	8	0	0	254950	692	0	correct_rejection	NA	0
46	Correct	157	805	319	0	1	1	255659	691	1	hit	444	0
46	Correct	158	806	320	9	0	0	256367	692	0	correct_rejection	NA	0
46	Correct	159	807	321	7	0	0	257076	691	0	correct_rejection	NA	0
46	Correct	160	808	322	8	0	0	257784	692	0	correct_rejection	NA	0
46	Correct	161	809	323	0	1	1	258493	691	1	hit	334	0
46	Correct	162	810	324	9	0	0	259201	692	0	correct_rejection	NA	0
46	Single	1	1	325	9	0	0	269138	692	0	correct_rejection	NA	7959
46	Single	2	2	326	5	0	0	269847	691	0	correct_rejection	NA	0
46	Single	3	3	327	4	0	0	270555	692	0	correct_rejection	NA	0
46	Single	4	4	328	7	0	0	271264	691	0	correct_rejection	NA	0
46	Single	5	5	329	9	0	0	271972	692	0	correct_rejection	NA	0
46	Single	6	6	330	4	0	0	272681	691	0	correct_rejection	NA	0
46	Single	7	7	331	4	0	0	273389	692	0	correct_rejection	NA	0
46	Single	8	8	332	5	0	0	274098	692	0	correct_rejection	NA	0
46	Single	9	9	333	0	1	1	274806	692	1	hit	349	0
46	Single	10	10	334	8	0	0	275515	692	0	correct_rejection	NA	0
46	Single	11	11	335	7	0	0	276224	691	0	correct_rejection	NA	0
46	Single	12	12	336	5	0	0	276932	692	0	correct_rejection	NA	0
46	Single	13	13	337	7	0	0	277641	691	0	correct_rejection	NA	0
46	Single	14	14	338	0	1	1	278349	692	1	hit	351	0
46	Single	15	15	339	7	0	0	279058	692	0	correct_rejection	NA	0
46	Single	16	16	340	8	0	0	279766	692	0	correct_rejection	NA	0
46	Single	17	17	341	9	0	0	280475	692	0	correct_rejection	NA	0
46	Single	18	18	342	8	0	0	281184	691	0	correct_rejection	NA	0
46	Single	19	19	343	6	0	0	281892	692	0	correct_rejection	NA	0
46	Single	20	20	344	4	0	0	282601	691	0	correct_rejection	NA	0
46	Single	21	21	345	0	1	1	283309	692	1	hit	292	0
46	Single	22	22	346	9	0	0	284018	692	0	correct_rejection	NA	0
46	Single	23	23	347	9	0	0	284726	692	0	correct_rejection	NA	0
46	Single	24	24	348	7	0	0	285435	692	0	correct_rejection	NA	0
46	Single	25	25	349	0	1	1	286144	691	1	hit	405	0
46	Single	26	26	350	6	0	0	286852	692	0	correct_rejection	NA	0
46	Single	27	27	351	6	0	0	287561	691	0	correct_rejection	NA	0
46	Single	28	28	352	8	0	0	288269	692	0	correct_rejection	NA	0
46	Single	29	29	353	5	0	0	288978	691	0	correct_rejection	NA	0
46	Single	30	30	354	6	0	0	289686	692	0	correct_rejection	NA	0
46	Single	31	31	355	0	1	1	290395	692	1	hit	336	0
46	Single	32	32	356	7	0	0	291104	691	0	correct_rejection	NA	0
46	Single	33	33	357	4	0	0	291812	692	0	correct_rejection	NA	0
46	Single	34	34	358	8	0	0	292521	691	0	correct_rejection	NA	0
46	Single	35	35	359	8	0	0	293229	692	0	correct_rejection	NA	0
46	Single	36	36	360	4	0	0	293938	691	0	correct_rejection	NA	0
46	Single	37	37	361	6	0	0	294646	692	0	correct_rejection	NA	0
46	Single	38	38	362	5	0	0	295355	692	0	correct_rejection	NA	0
46	Single	39	39	363	5	0	0	296063	692	0	correct_rejection	NA	0
46	Single	40	40	364	9	0	0	296772	692	0	correct_rejection	NA	0
46	Single	41	41	365	6	0	0	297481	691	0	correct_rejection	NA	0
46	Single	42	42	366	4	0	0	298189	692	0	correct_rejection	NA	0
46	Single	43	43	367	9	0	0	298898	691	0	correct_rejection	NA	0
46	Single	44	44	368	8	0	0	299606	692	0	correct_rejection	NA	0
46	Single	45	45	369	8	0	0	300315	692	0	correct_rejection	NA	0
46	Single	46	46	370	6	0	0	301023	692	0	correct_rejection	NA	0
46	Single	47	47	371	9	0	0	301732	692	0	correct_rejection	NA	0
46	Single	48	48	372	6	0	0	302441	691	0	correct_rejection	NA	0
46	Single	49	49	373	6	0	0	303149	692	0	correct_rejection	NA	0
46	Single	50	50	374	7	0	0	303858	691	0	correct_rejection	NA	0
46	Single	51	51	375	5	0	0	304566	692	0	correct_rejection	NA	0
46	Single	52	52	376	6	0	0	305275	692	0	correct_rejection	NA	0
46	Single	53	53	377	5	0	0	305983	692	0	correct_rejection	NA	0
46	Single	54	54	378	8	0	0	306692	692	0	correct_rejection	NA	0
46	Single	55	55	379	4	0	0	307401	691	0	correct_rejection	NA	0
46	Single	56	56	380	5	0	0	308109	692	0	correct_rejection	NA	0
46	Single	57	57	381	4	0	0	308818	691	0	correct_rejection	NA	0
46	Single	58	58	382	8	0	0	309526	692	0	correct_rejection	NA	0
46	Single	59	59	383	7	0	0	310235	691	0	correct_rejection	NA	0
46	Single	60	60	384	7	0	0	310943	692	0	correct_rejection	NA	0
46	Single	61	61	385	6	0	0	311652	692	0	correct_rejection	NA	0
46	Single	62	62	386	8	0	0	312360	692	0	correct_rejection	NA	0
46	Single	63	63	387	9	0	0	313069	692	0	correct_rejection	NA	0
46	Single	64	64	388	7	0	0	313778	691	0	correct_rejection	NA	0
46	Single	65	65	389	9	0	0	314486	692	0	correct_rejection	NA	0
46	Single	66	66	390	5	0	0	315195	691	0	correct_rejection	NA	0
46	Single	67	67	391	5	0	0	315903	692	0	correct_rejection	NA	0
46	Single	68	68	392	7	0	0	316612	692	0	correct_rejection	NA	0
46	Single	69	69	393	4	0	0	317320	692	0	correct_rejection	NA	0
46	Single	70	70	394	6	0	0	318029	692	0	correct_rejection	NA	0
46	Single	71	71	395	4	0	0	318738	691	0	correct_rejection	NA	0
46	Single	72	72	396	0	1	1	319446	692	1	hit	331	0
46	Single	73	73	397	4	0	0	320155	691	0	correct_rejection	NA	0
46	Single	74	74	398	7	0	0	320863	692	0	correct_rejection	NA	0
46	Single	75	75	399	0	1	1	321572	692	1	hit	612	0
46	Single	76	76	400	8	0	0	322280	692	0	correct_rejection	NA	0
46	Single	77	77	401	5	0	0	322989	692	0	correct_rejection	NA	0
46	Single	78	78	402	9	0	0	323698	691	0	correct_rejection	NA	0
46	Single	79	79	403	9	0	0	324406	692	0	correct_rejection	NA	0
46	Single	80	80	404	4	0	0	325115	691	0	correct_rejection	NA	0
46	Single	81	81	405	9	0	0	325823	692	0	correct_rejection	NA	0
46	Single	82	82	406	0	1	1	326532	692	1	hit	401	0
46	Single	83	83	407	6	0	0	327240	692	0	correct_rejection	NA	0
46	Single	84	84	408	4	0	0	327949	692	0	correct_rejection	NA	0
46	Single	85	85	409	6	0	0	328658	691	0	correct_rejection	NA	0
46	Single	86	86	410	8	0	0	329366	692	0	correct_rejection	NA	0
46	Single	87	87	411	0	1	1	330075	691	1	hit	338	0
46	Single	88	88	412	8	0	0	330783	692	0	correct_rejection	NA	0
46	Single	89	89	413	5	0	0	331492	691	0	correct_rejection	NA	0
46	Single	90	90	414	7	0	0	332200	692	0	correct_rejection	NA	0
46	Single	91	91	415	8	0	0	332909	692	0	correct_rejection	NA	0
46	Single	92	92	416	6	0	0	333617	692	0	correct_rejection	NA	0
46	Single	93	93	417	7	0	0	334326	692	0	correct_rejection	NA	0
46	Single	94	94	418	9	0	0	335035	691	0	correct_rejection	NA	0
46	Single	95	95	419	8	0	0	335743	692	0	correct_rejection	NA	0
46	Single	96	96	420	7	0	0	336452	691	0	correct_rejection	NA	0
46	Single	97	97	421	6	0	0	337160	692	0	correct_rejection	NA	0
46	Single	98	98	422	9	0	0	337869	692	0	correct_rejection	NA	0
46	Single	99	99	423	0	1	1	338577	692	1	hit	381	0
46	Single	100	100	424	7	0	0	339286	692	0	correct_rejection	NA	0
46	Single	101	101	425	7	0	0	339995	691	0	correct_rejection	NA	0
46	Single	102	102	426	4	0	0	340703	692	0	correct_rejection	NA	0
46	Single	103	103	427	5	0	0	341412	691	0	correct_rejection	NA	0
46	Single	104	104	428	5	0	0	342120	692	0	correct_rejection	NA	0
46	Single	105	105	429	8	0	0	342829	692	0	correct_rejection	NA	0
46	Single	106	106	430	9	0	0	343537	692	0	correct_rejection	NA	0
46	Single	107	107	431	0	1	1	344246	692	1	hit	337	0
46	Single	108	108	432	9	0	0	344955	691	0	correct_rejection	NA	0
46	Single	109	109	433	4	0	0	345663	692	0	correct_rejection	NA	0
46	Single	110	110	434	0	1	1	346372	691	0	miss	NA	0
46	Single	111	111	435	8	0	0	347080	692	1	false_alarm	31	0
46	Single	112	112	436	4	0	0	347789	692	0	correct_rejection	NA	0
46	Single	113	113	437	0	1	1	348497	692	1	hit	307	0
46	Single	114	114	438	7	0	0	349206	692	0	correct_rejection	NA	0
46	Single	115	115	439	5	0	0	349915	691	0	correct_rejection	NA	0
46	Single	116	116	440	9	0	0	350623	692	0	correct_rejection	NA	0
46	Single	117	117	441	5	0	0	351332	691	0	correct_rejection	NA	0
46	Single	118	118	442	6	0	0	352040	692	0	correct_rejection	NA	0
46	Single	119	119	443	6	0	0	352749	691	0	correct_rejection	NA	0
46	Single	120	120	444	5	0	0	353457	692	0	correct_rejection	NA	0
46	Single	121	121	445	0	1	1	354166	692	1	hit	362	0
46	Single	122	122	446	4	0	0	354874	692	0	correct_rejection	NA	0
46	Single	123	123	447	9	0	0	355583	692	0	correct_rejection	NA	0
46	Single	124	124	448	7	0	0	356292	691	0	correct_rejection	NA	0
46	Single	125	125	449	6	0	0	357000	692	0	correct_rejection	NA	0
46	Single	126	126	450	4	0	0	357709	691	0	correct_rejection	NA	0
46	Single	127	127	451	9	0	0	358417	692	0	correct_rejection	NA	0
46	Single	128	128	452	4	0	0	359126	692	0	correct_rejection	NA	0
46	Single	129	129	453	4	0	0	359834	692	0	correct_rejection	NA	0
46	Single	130	130	454	8	0	0	360543	692	0	correct_rejection	NA	0
46	Single	131	131	455	5	0	0	361252	691	0	correct_rejection	NA	0
46	Single	132	132	456	8	0	0	361960	692	0	correct_rejection	NA	0
46	Single	133	133	457	6	0	0	362669	691	0	correct_rejection	NA	0
46	Single	134	134	458	8	0	0	363377	692	0	correct_rejection	NA	0
46	Single	135	135	459	4	0	0	364086	692	0	correct_rejection	NA	0
46	Single	136	136	460	6	0	0	364794	692	0	correct_rejection	NA	0
46	Single	137	137	461	0	1	1	365503	692	1	hit	418	0
46	Single	138	138	462	6	0	0	366212	691	0	correct_rejection	NA	0
46	Single	139	139	463	9	0	0	366920	692	0	correct_rejection	NA	0
46	Single	140	140	464	5	0	0	367629	691	0	correct_rejection	NA	0
46	Single	141	141	465	4	0	0	368337	692	0	correct_rejection	NA	0
46	Single	142	142	466	5	0	0	369046	691	0	correct_rejection	NA	0
46	Single	143	143	467	0	1	1	369754	692	1	hit	511	0
46	Single	144	144	468	6	0	0	370463	692	0	correct_rejection	NA	0
46	Single	145	145	469	7	0	0	371171	692	0	correct_rejection	NA	0
46	Single	146	146	470	8	0	0	371880	692	0	correct_rejection	NA	0
46	Single	147	147	471	8	0	0	372589	691	0	correct_rejection	NA	0
46	Single	148	148	472	7	0	0	373297	692	0	correct_rejection	NA	0
46	Single	149	149	473	4	0	0	374006	691	0	correct_rejection	NA	0
46	Single	150	150	474	7	0	0	374714	692	0	correct_rejection	NA	0
46	Single	151	151	475	9	0	0	375423	692	0	correct_rejection	NA	0
46	Single	152	152	476	6	0	0	376131	692	0	correct_rejection	NA	0
46	Single	153	153	477	5	0	0	376840	692	0	correct_rejection	NA	0
46	Single	154	154	478	0	1	1	377549	691	1	hit	382	0
46	Single	155	155	479	7	0	0	378257	692	0	correct_rejection	NA	0
46	Single	156	156	480	7	0	0	378966	691	0	correct_rejection	NA	0
46	Single	157	157	481	0	1	1	379674	692	1	hit	502	0
46	Single	158	158	482	5	0	0	380383	692	0	correct_rejection	NA	0
46	Single	159	159	483	5	0	0	381091	692	0	correct_rejection	NA	0
46	Single	160	160	484	9	0	0	381800	692	0	correct_rejection	NA	0
46	Single	161	161	485	8	0	0	382509	691	0	correct_rejection	NA	0
46	Single	162	162	486	9	0	0	383217	692	0	correct_rejection	NA	0
46	Triplet	1	325	487	6	0	0	391553	692	0	correct_rejection	NA	6379
46	Triplet	2	326	488	5	0	0	392262	691	0	correct_rejection	NA	0
46	Triplet	3	327	489	4	0	0	392970	692	0	correct_rejection	NA	0
46	Triplet	4	328	490	6	0	0	393679	692	0	correct_rejection	NA	0
46	Triplet	5	329	491	5	0	0	394387	692	0	correct_rejection	NA	0
46	Triplet	6	330	492	4	0	0	395096	692	0	correct_rejection	NA	0
46	Triplet	7	331	493	9	0	0	395805	691	0	correct_rejection	NA	0
46	Triplet	8	332	494	8	0	0	396513	692	0	correct_rejection	NA	0
46	Triplet	9	333	495	7	0	0	397222	691	0	correct_rejection	NA	0
46	Triplet	10	334	496	9	0	0	397930	692	0	correct_rejection	NA	0
46	Triplet	11	335	497	8	0	0	398639	692	0	correct_rejection	NA	0
46	Triplet	12	336	498	7	0	0	399347	692	0	correct_rejection	NA	0
46	Triplet	13	337	499	7	0	0	400056	692	0	correct_rejection	NA	0
46	Triplet	14	338	500	0	1	1	400765	691	1	hit	351	0
46	Triplet	15	339	501	8	0	0	401473	692	0	correct_rejection	NA	0
46	Triplet	16	340	502	9	0	0	402182	691	0	correct_rejection	NA	0
46	Triplet	17	341	503	9	0	0	402890	692	0	correct_rejection	NA	0
46	Triplet	18	342	504	8	0	0	403599	692	0	correct_rejection	NA	0
46	Triplet	19	343	505	7	0	0	404307	692	0	correct_rejection	NA	0
46	Triplet	20	344	506	6	0	0	405016	692	0	correct_rejection	NA	0
46	Triplet	21	345	507	5	0	0	405725	691	0	correct_rejection	NA	0
46	Triplet	22	346	508	4	0	0	406433	692	0	correct_rejection	NA	0
46	Triplet	23	347	509	7	0	0	407142	691	0	correct_rejection	NA	0
46	Triplet	24	348	510	8	0	0	407850	692	0	correct_rejection	NA	0
46	Triplet	25	349	511	9	0	0	408559	691	0	correct_rejection	NA	0
46	Triplet	26	350	512	4	0	0	409267	692	0	correct_rejection	NA	0
46	Triplet	27	351	513	5	0	0	409976	692	0	correct_rejection	NA	0
46	Triplet	28	352	514	6	0	0	410684	692	0	correct_rejection	NA	0
46	Triplet	29	353	515	6	0	0	411393	692	0	correct_rejection	NA	0
46	Triplet	30	354	516	0	1	1	412102	691	1	hit	395	0
46	Triplet	31	355	517	5	0	0	412810	692	0	correct_rejection	NA	0
46	Triplet	32	356	518	4	0	0	413519	691	0	correct_rejection	NA	0
46	Triplet	33	357	519	4	0	0	414227	692	0	correct_rejection	NA	0
46	Triplet	34	358	520	5	0	0	414936	692	0	correct_rejection	NA	0
46	Triplet	35	359	521	6	0	0	415644	692	0	correct_rejection	NA	0
46	Triplet	36	360	522	9	0	0	416353	692	0	correct_rejection	NA	0
46	Triplet	37	361	523	8	0	0	417062	691	0	correct_rejection	NA	0
46	Triplet	38	362	524	7	0	0	417770	692	0	correct_rejection	NA	0
46	Triplet	39	363	525	4	0	0	418479	691	0	correct_rejection	NA	0
46	Triplet	40	364	526	5	0	0	419187	692	0	correct_rejection	NA	0
46	Triplet	41	365	527	6	0	0	419896	692	0	correct_rejection	NA	0
46	Triplet	42	366	528	4	0	0	420604	692	0	correct_rejection	NA	0
46	Triplet	43	367	529	0	1	1	421313	692	1	hit	333	0
46	Triplet	44	368	530	5	0	0	422022	691	0	correct_rejection	NA	0
46	Triplet	45	369	531	6	0	0	422730	692	0	correct_rejection	NA	0
46	Triplet	46	370	532	7	0	0	423439	691	0	correct_rejection	NA	0
46	Triplet	47	371	533	8	0	0	424147	692	0	correct_rejection	NA	0
46	Triplet	48	372	534	9	0	0	424856	691	0	correct_rejection	NA	0
46	Triplet	49	373	535	7	0	0	425564	692	0	correct_rejection	NA	0
46	Triplet	50	374	536	8	0	0	426273	692	0	correct_rejection	NA	0
46	Triplet	51	375	537	9	0	0	426982	691	0	correct_rejection	NA	0
46	Triplet	52	376	538	0	1	2	427690	692	1	hit	418	0
46	Triplet	53	377	539	6	0	0	428399	691	0	correct_rejection	NA	0
46	Triplet	54	378	540	5	0	0	429107	692	0	correct_rejection	NA	0
46	Triplet	55	379	541	4	0	0	429816	691	0	correct_rejection	NA	0
46	Triplet	56	380	542	0	1	2	430524	692	1	hit	400	0
46	Triplet	57	381	543	7	0	0	431233	692	0	correct_rejection	NA	0
46	Triplet	58	382	544	8	0	0	431941	692	0	correct_rejection	NA	0
46	Triplet	59	383	545	9	0	0	432650	692	0	correct_rejection	NA	0
46	Triplet	60	384	546	9	0	0	433359	691	0	correct_rejection	NA	0
46	Triplet	61	385	547	8	0	0	434067	692	0	correct_rejection	NA	0
46	Triplet	62	386	548	7	0	0	434776	691	0	correct_rejection	NA	0
46	Triplet	63	387	549	4	0	0	435484	692	0	correct_rejection	NA	0
46	Triplet	64	388	550	5	0	0	436193	692	0	correct_rejection	NA	0
46	Triplet	65	389	551	6	0	0	436901	692	0	correct_rejection	NA	0
46	Triplet	66	390	552	7	0	0	437610	692	0	correct_rejection	NA	0
46	Triplet	67	391	553	8	0	0	438319	691	0	correct_rejection	NA	0
46	Triplet	68	392	554	0	1	1	439027	692	1	hit	383	0
46	Triplet	69	393	555	9	0	0	439736	691	0	correct_rejection	NA	0
46	Triplet	70	394	556	4	0	0	440444	692	0	correct_rejection	NA	0
46	Triplet	71	395	557	5	0	0	441153	692	0	correct_rejection	NA	0
46	Triplet	72	396	558	0	1	1	441861	692	1	hit	432	0
46	Triplet	73	397	559	6	0	0	442570	692	0	correct_rejection	NA	0
46	Triplet	74	398	560	4	0	0	443279	691	0	correct_rejection	NA	0
46	Triplet	75	399	561	0	1	1	443987	692	1	hit	318	0
46	Triplet	76	400	562	5	0	0	444696	691	0	correct_rejection	NA	0
46	Triplet	77	401	563	6	0	0	445404	692	0	correct_rejection	NA	0
46	Triplet	78	402	564	9	0	0	446113	691	0	correct_rejection	NA	0
46	Triplet	79	403	565	0	1	1	446821	692	1	hit	406	0
46	Triplet	80	404	566	8	0	0	447530	692	0	correct_rejection	NA	0
46	Triplet	81	405	567	7	0	0	448238	692	0	correct_rejection	NA	0
46	Triplet	82	406	568	9	0	0	448947	692	0	correct_rejection	NA	0
46	Triplet	83	407	569	8	0	0	449656	691	0	correct_rejection	NA	0
46	Triplet	84	408	570	7	0	0	450364	692	0	correct_rejection	NA	0
46	Triplet	85	409	571	6	0	0	451073	691	0	correct_rejection	NA	0
46	Triplet	86	410	572	5	0	0	451781	692	0	correct_rejection	NA	0
46	Triplet	87	411	573	4	0	0	452490	692	0	correct_rejection	NA	0
46	Triplet	88	412	574	4	0	0	453198	692	0	correct_rejection	NA	0
46	Triplet	89	413	575	5	0	0	453907	692	0	correct_rejection	NA	0
46	Triplet	90	414	576	6	0	0	454616	691	0	correct_rejection	NA	0
46	Triplet	91	415	577	6	0	0	455324	692	0	correct_rejection	NA	0
46	Triplet	92	416	578	5	0	0	456033	691	0	correct_rejection	NA	0
46	Triplet	93	417	579	4	0	0	456741	692	0	correct_rejection	NA	0
46	Triplet	94	418	580	9	0	0	457450	692	0	correct_rejection	NA	0
46	Triplet	95	419	581	8	0	0	458158	692	0	correct_rejection	NA	0
46	Triplet	96	420	582	7	0	0	458867	692	0	correct_rejection	NA	0
46	Triplet	97	421	583	0	1	2	459576	691	1	hit	440	0
46	Triplet	98	422	584	7	0	0	460284	692	0	correct_rejection	NA	0
46	Triplet	99	423	585	8	0	0	460993	691	0	correct_rejection	NA	0
46	Triplet	100	424	586	9	0	0	461701	692	0	correct_rejection	NA	0
46	Triplet	101	425	587	7	0	0	462410	692	0	correct_rejection	NA	0
46	Triplet	102	426	588	8	0	0	463118	692	0	correct_rejection	NA	0
46	Triplet	103	427	589	9	0	0	463827	692	0	correct_rejection	NA	0
46	Triplet	104	428	590	6	0	0	464536	691	0	correct_rejection	NA	0
46	Triplet	105	429	591	5	0	0	465244	692	0	correct_rejection	NA	0
46	Triplet	106	430	592	4	0	0	465953	691	0	correct_rejection	NA	0
46	Triplet	107	431	593	0	1	2	466661	692	1	hit	399	0
46	Triplet	108	432	594	6	0	0	467370	691	0	correct_rejection	NA	0
46	Triplet	109	433	595	5	0	0	468078	692	0	correct_rejection	NA	0
46	Triplet	110	434	596	0	1	1	468787	692	1	hit	408	0
46	Triplet	111	435	597	4	0	0	469495	692	0	correct_rejection	NA	0
46	Triplet	112	436	598	9	0	0	470204	692	0	correct_rejection	NA	0
46	Triplet	113	437	599	8	0	0	470913	691	0	correct_rejection	NA	0
46	Triplet	114	438	600	7	0	0	471621	692	0	correct_rejection	NA	0
46	Triplet	115	439	601	4	0	0	472330	691	0	correct_rejection	NA	0
46	Triplet	116	440	602	5	0	0	473038	692	0	correct_rejection	NA	0
46	Triplet	117	441	603	6	0	0	473747	692	0	correct_rejection	NA	0
46	Triplet	118	442	604	9	0	0	474455	692	0	correct_rejection	NA	0
46	Triplet	119	443	605	8	0	0	475164	692	0	correct_rejection	NA	0
46	Triplet	120	444	606	7	0	0	475873	691	0	correct_rejection	NA	0
46	Triplet	121	445	607	7	0	0	476581	692	0	correct_rejection	NA	0
46	Triplet	122	446	608	8	0	0	477290	691	0	correct_rejection	NA	0
46	Triplet	123	447	609	9	0	0	477998	692	0	correct_rejection	NA	0
46	Triplet	124	448	610	6	0	0	478707	692	0	correct_rejection	NA	0
46	Triplet	125	449	611	5	0	0	479415	692	0	correct_rejection	NA	0
46	Triplet	126	450	612	4	0	0	480124	692	0	correct_rejection	NA	0
46	Triplet	127	451	613	4	0	0	480833	691	0	correct_rejection	NA	0
46	Triplet	128	452	614	0	1	1	481541	692	1	hit	345	0
46	Triplet	129	453	615	5	0	0	482250	691	0	correct_rejection	NA	0
46	Triplet	130	454	616	6	0	0	482958	692	0	correct_rejection	NA	0
46	Triplet	131	455	617	0	1	2	483667	691	0	miss	NA	0
46	Triplet	132	456	618	4	0	0	484375	692	0	correct_rejection	NA	0
46	Triplet	133	457	619	5	0	0	485084	692	0	correct_rejection	NA	0
46	Triplet	134	458	620	6	0	0	485793	691	0	correct_rejection	NA	0
46	Triplet	135	459	621	6	0	0	486501	692	0	correct_rejection	NA	0
46	Triplet	136	460	622	5	0	0	487210	691	0	correct_rejection	NA	0
46	Triplet	137	461	623	4	0	0	487918	692	0	correct_rejection	NA	0
46	Triplet	138	462	624	6	0	0	488627	691	0	correct_rejection	NA	0
46	Triplet	139	463	625	5	0	0	489335	692	0	correct_rejection	NA	0
46	Triplet	140	464	626	0	1	1	490044	692	1	hit	381	0
46	Triplet	141	465	627	4	0	0	490752	692	0	correct_rejection	NA	0
46	Triplet	142	466	628	7	0	0	491461	692	0	correct_rejection	NA	0
46	Triplet	143	467	629	8	0	0	492170	691	0	correct_rejection	NA	0
46	Triplet	144	468	630	9	0	0	492878	692	0	correct_rejection	NA	0
46	Triplet	145	469	631	7	0	0	493587	691	0	correct_rejection	NA	0
46	Triplet	146	470	632	8	0	0	494295	692	0	correct_rejection	NA	0
46	Triplet	147	471	633	9	0	0	495004	692	0	correct_rejection	NA	0
46	Triplet	148	472	634	4	0	0	495712	692	0	correct_rejection	NA	0
46	Triplet	149	473	635	5	0	0	496421	692	0	correct_rejection	NA	0
46	Triplet	150	474	636	6	0	0	497130	691	0	correct_rejection	NA	0
46	Triplet	151	475	637	0	1	2	497838	692	1	hit	378	0
46	Triplet	152	476	638	7	0	0	498547	691	0	correct_rejection	NA	0
46	Triplet	153	477	639	8	0	0	499255	692	0	correct_rejection	NA	0
46	Triplet	154	478	640	0	1	1	499964	692	1	hit	465	0
46	Triplet	155	479	641	9	0	0	500672	692	0	correct_rejection	NA	0
46	Triplet	156	480	642	9	0	0	501381	692	0	correct_rejection	NA	0
46	Triplet	157	481	643	8	0	0	502090	691	0	correct_rejection	NA	0
46	Triplet	158	482	644	7	0	0	502798	692	0	correct_rejection	NA	0
46	Triplet	159	483	645	9	0	0	503507	691	0	correct_rejection	NA	0
46	Triplet	160	484	646	0	1	1	504215	692	1	hit	342	0
46	Triplet	161	485	647	8	0	0	504924	691	0	correct_rejection	NA	0
46	Triplet	162	486	648	7	0	0	505632	692	0	correct_rejection	NA	0
46	Nonet	1	325	649	4	0	0	515694	692	0	correct_rejection	NA	7529
46	Nonet	2	326	650	5	0	0	516403	691	0	correct_rejection	NA	0
46	Nonet	3	327	651	6	0	0	517111	692	0	correct_rejection	NA	0
46	Nonet	4	328	652	4	0	0	517820	691	0	correct_rejection	NA	0
46	Nonet	5	329	653	5	0	0	518528	692	0	correct_rejection	NA	0
46	Nonet	6	330	654	6	0	0	519237	692	0	correct_rejection	NA	0
46	Nonet	7	331	655	0	1	2	519945	692	1	hit	345	0
46	Nonet	8	332	656	4	0	0	520654	692	0	correct_rejection	NA	0
46	Nonet	9	333	657	5	0	0	521363	691	0	correct_rejection	NA	0
46	Nonet	10	334	658	6	0	0	522071	692	0	correct_rejection	NA	0
46	Nonet	11	335	659	6	0	0	522780	691	0	correct_rejection	NA	0
46	Nonet	12	336	660	0	1	1	523488	692	1	hit	346	0
46	Nonet	13	337	661	5	0	0	524197	691	0	correct_rejection	NA	0
46	Nonet	14	338	662	4	0	0	524905	692	0	correct_rejection	NA	0
46	Nonet	15	339	663	6	0	0	525614	692	0	correct_rejection	NA	0
46	Nonet	16	340	664	5	0	0	526322	692	0	correct_rejection	NA	0
46	Nonet	17	341	665	4	0	0	527031	692	0	correct_rejection	NA	0
46	Nonet	18	342	666	6	0	0	527740	691	0	correct_rejection	NA	0
46	Nonet	19	343	667	5	0	0	528448	692	0	correct_rejection	NA	0
46	Nonet	20	344	668	4	0	0	529157	691	0	correct_rejection	NA	0
46	Nonet	21	345	669	4	0	0	529865	692	0	correct_rejection	NA	0
46	Nonet	22	346	670	5	0	0	530574	692	0	correct_rejection	NA	0
46	Nonet	23	347	671	6	0	0	531282	692	0	correct_rejection	NA	0
46	Nonet	24	348	672	4	0	0	531991	692	0	correct_rejection	NA	0
46	Nonet	25	349	673	0	1	1	532700	691	1	hit	364	0
46	Nonet	26	350	674	5	0	0	533408	692	0	correct_rejection	NA	0
46	Nonet	27	351	675	6	0	0	534117	691	0	correct_rejection	NA	0
46	Nonet	28	352	676	4	0	0	534825	692	0	correct_rejection	NA	0
46	Nonet	29	353	677	5	0	0	535534	692	0	correct_rejection	NA	0
46	Nonet	30	354	678	6	0	0	536242	692	0	correct_rejection	NA	0
46	Nonet	31	355	679	9	0	0	536951	692	0	correct_rejection	NA	0
46	Nonet	32	356	680	8	0	0	537660	691	0	correct_rejection	NA	0
46	Nonet	33	357	681	7	0	0	538368	692	0	correct_rejection	NA	0
46	Nonet	34	358	682	9	0	0	539077	691	0	correct_rejection	NA	0
46	Nonet	35	359	683	8	0	0	539785	692	0	correct_rejection	NA	0
46	Nonet	36	360	684	7	0	0	540494	692	0	correct_rejection	NA	0
46	Nonet	37	361	685	9	0	0	541202	692	0	correct_rejection	NA	0
46	Nonet	38	362	686	8	0	0	541911	692	0	correct_rejection	NA	0
46	Nonet	39	363	687	7	0	0	542620	691	0	correct_rejection	NA	0
46	Nonet	40	364	688	4	0	0	543328	692	0	correct_rejection	NA	0
46	Nonet	41	365	689	5	0	0	544037	691	0	correct_rejection	NA	0
46	Nonet	42	366	690	6	0	0	544745	692	0	correct_rejection	NA	0
46	Nonet	43	367	691	4	0	0	545454	691	0	correct_rejection	NA	0
46	Nonet	44	368	692	5	0	0	546162	692	0	correct_rejection	NA	0
46	Nonet	45	369	693	0	1	1	546871	692	1	hit	441	0
46	Nonet	46	370	694	6	0	0	547579	692	0	correct_rejection	NA	0
46	Nonet	47	371	695	4	0	0	548288	692	0	correct_rejection	NA	0
46	Nonet	48	372	696	5	0	0	548997	691	0	correct_rejection	NA	0
46	Nonet	49	373	697	6	0	0	549705	692	0	correct_rejection	NA	0
46	Nonet	50	374	698	7	0	0	550414	691	0	correct_rejection	NA	0
46	Nonet	51	375	699	0	1	1	551122	692	1	hit	564	0
46	Nonet	52	376	700	8	0	0	551831	692	0	correct_rejection	NA	0
46	Nonet	53	377	701	9	0	0	552539	692	0	correct_rejection	NA	0
46	Nonet	54	378	702	7	0	0	553248	692	0	correct_rejection	NA	0
46	Nonet	55	379	703	8	0	0	553957	691	0	correct_rejection	NA	0
46	Nonet	56	380	704	9	0	0	554665	692	0	correct_rejection	NA	0
46	Nonet	57	381	705	7	0	0	555374	691	0	correct_rejection	NA	0
46	Nonet	58	382	706	8	0	0	556082	692	0	correct_rejection	NA	0
46	Nonet	59	383	707	9	0	0	556791	692	0	correct_rejection	NA	0
46	Nonet	60	384	708	9	0	0	557499	692	0	correct_rejection	NA	0
46	Nonet	61	385	709	8	0	0	558208	692	0	correct_rejection	NA	0
46	Nonet	62	386	710	7	0	0	558917	691	0	correct_rejection	NA	0
46	Nonet	63	387	711	9	0	0	559625	692	0	correct_rejection	NA	0
46	Nonet	64	388	712	8	0	0	560334	691	0	correct_rejection	NA	0
46	Nonet	65	389	713	0	1	1	561042	692	1	hit	496	0
46	Nonet	66	390	714	7	0	0	561751	692	0	correct_rejection	NA	0
46	Nonet	67	391	715	9	0	0	562459	692	0	correct_rejection	NA	0
46	Nonet	68	392	716	8	0	0	563168	692	0	correct_rejection	NA	0
46	Nonet	69	393	717	7	0	0	563877	691	0	correct_rejection	NA	0
46	Nonet	70	394	718	0	1	3	564585	692	1	hit	317	0
46	Nonet	71	395	719	9	0	0	565294	691	0	correct_rejection	NA	0
46	Nonet	72	396	720	8	0	0	566002	692	0	correct_rejection	NA	0
46	Nonet	73	397	721	7	0	0	566711	691	0	correct_rejection	NA	0
46	Nonet	74	398	722	9	0	0	567419	692	0	correct_rejection	NA	0
46	Nonet	75	399	723	8	0	0	568128	692	0	correct_rejection	NA	0
46	Nonet	76	400	724	7	0	0	568836	692	0	correct_rejection	NA	0
46	Nonet	77	401	725	9	0	0	569545	692	0	correct_rejection	NA	0
46	Nonet	78	402	726	0	1	1	570254	691	1	hit	458	0
46	Nonet	79	403	727	8	0	0	570962	692	0	correct_rejection	NA	0
46	Nonet	80	404	728	7	0	0	571671	691	0	correct_rejection	NA	0
46	Nonet	81	405	729	6	0	0	572379	692	0	correct_rejection	NA	0
46	Nonet	82	406	730	5	0	0	573088	692	0	correct_rejection	NA	0
46	Nonet	83	407	731	4	0	0	573796	692	0	correct_rejection	NA	0
46	Nonet	84	408	732	0	1	2	574505	692	1	hit	441	0
46	Nonet	85	409	733	6	0	0	575214	691	0	correct_rejection	NA	0
46	Nonet	86	410	734	5	0	0	575922	692	0	correct_rejection	NA	0
46	Nonet	87	411	735	4	0	0	576631	691	0	correct_rejection	NA	0
46	Nonet	88	412	736	6	0	0	577339	692	0	correct_rejection	NA	0
46	Nonet	89	413	737	5	0	0	578048	692	0	correct_rejection	NA	0
46	Nonet	90	414	738	4	0	0	578756	692	0	correct_rejection	NA	0
46	Nonet	91	415	739	7	0	0	579465	692	0	correct_rejection	NA	0
46	Nonet	92	416	740	8	0	0	580174	691	0	correct_rejection	NA	0
46	Nonet	93	417	741	9	0	0	580882	692	0	correct_rejection	NA	0
46	Nonet	94	418	742	7	0	0	581591	691	0	correct_rejection	NA	0
46	Nonet	95	419	743	8	0	0	582299	692	0	correct_rejection	NA	0
46	Nonet	96	420	744	9	0	0	583008	691	0	correct_rejection	NA	0
46	Nonet	97	421	745	7	0	0	583716	692	0	correct_rejection	NA	0
46	Nonet	98	422	746	8	0	0	584425	692	0	correct_rejection	NA	0
46	Nonet	99	423	747	9	0	0	585134	691	0	correct_rejection	NA	0
46	Nonet	100	424	748	6	0	0	585842	692	0	correct_rejection	NA	0
46	Nonet	101	425	749	0	1	1	586551	691	1	hit	305	0
46	Nonet	102	426	750	5	0	0	587259	692	0	correct_rejection	NA	0
46	Nonet	103	427	751	4	0	0	587968	691	0	correct_rejection	NA	0
46	Nonet	104	428	752	6	0	0	588676	692	0	correct_rejection	NA	0
46	Nonet	105	429	753	5	0	0	589385	692	0	correct_rejection	NA	0
46	Nonet	106	430	754	4	0	0	590093	692	0	correct_rejection	NA	0
46	Nonet	107	431	755	6	0	0	590802	692	0	correct_rejection	NA	0
46	Nonet	108	432	756	5	0	0	591511	691	0	correct_rejection	NA	0
46	Nonet	109	433	757	4	0	0	592219	692	0	correct_rejection	NA	0
46	Nonet	110	434	758	0	1	3	592928	691	1	hit	608	0
46	Nonet	111	435	759	6	0	0	593636	692	0	correct_rejection	NA	0
46	Nonet	112	436	760	5	0	0	594345	692	0	correct_rejection	NA	0
46	Nonet	113	437	761	0	1	1	595053	692	1	hit	374	0
46	Nonet	114	438	762	4	0	0	595762	692	0	correct_rejection	NA	0
46	Nonet	115	439	763	6	0	0	596471	691	0	correct_rejection	NA	0
46	Nonet	116	440	764	5	0	0	597179	692	0	correct_rejection	NA	0
46	Nonet	117	441	765	4	0	0	597888	691	0	correct_rejection	NA	0
46	Nonet	118	442	766	6	0	0	598596	692	0	correct_rejection	NA	0
46	Nonet	119	443	767	5	0	0	599305	692	0	correct_rejection	NA	0
46	Nonet	120	444	768	4	0	0	600013	692	0	correct_rejection	NA	0
46	Nonet	121	445	769	9	0	0	600722	692	0	correct_rejection	NA	0
46	Nonet	122	446	770	8	0	0	601431	691	0	correct_rejection	NA	0
46	Nonet	123	447	771	0	1	1	602139	692	1	hit	444	0
46	Nonet	124	448	772	7	0	0	602848	691	0	correct_rejection	NA	0
46	Nonet	125	449	773	9	0	0	603556	692	0	correct_rejection	NA	0
46	Nonet	126	450	774	8	0	0	604265	691	0	correct_rejection	NA	0
46	Nonet	127	451	775	7	0	0	604973	692	0	correct_rejection	NA	0
46	Nonet	128	452	776	9	0	0	605682	692	0	correct_rejection	NA	0
46	Nonet	129	453	777	8	0	0	606390	692	0	correct_rejection	NA	0
46	Nonet	130	454	778	7	0	0	607099	692	0	correct_rejection	NA	0
46	Nonet	131	455	779	0	1	3	607808	691	1	hit	410	0
46	Nonet	132	456	780	7	0	0	608516	692	0	correct_rejection	NA	0
46	Nonet	133	457	781	8	0	0	609225	691	0	correct_rejection	NA	0
46	Nonet	134	458	782	9	0	0	609933	692	0	correct_rejection	NA	0
46	Nonet	135	459	783	7	0	0	610642	692	0	correct_rejection	NA	0
46	Nonet	136	460	784	8	0	0	611350	692	0	correct_rejection	NA	0
46	Nonet	137	461	785	0	1	1	612059	692	1	hit	426	0
46	Nonet	138	462	786	9	0	0	612768	691	0	correct_rejection	NA	0
46	Nonet	139	463	787	7	0	0	613476	692	0	correct_rejection	NA	0
46	Nonet	140	464	788	8	0	0	614185	691	0	correct_rejection	NA	0
46	Nonet	141	465	789	9	0	0	614893	692	0	correct_rejection	NA	0
46	Nonet	142	466	790	0	1	3	615602	692	1	hit	363	0
46	Nonet	143	467	791	7	0	0	616310	692	0	correct_rejection	NA	0
46	Nonet	144	468	792	8	0	0	617019	692	0	correct_rejection	NA	0
46	Nonet	145	469	793	9	0	0	617728	691	0	correct_rejection	NA	0
46	Nonet	146	470	794	7	0	0	618436	692	0	correct_rejection	NA	0
46	Nonet	147	471	795	8	0	0	619145	691	0	correct_rejection	NA	0
46	Nonet	148	472	796	9	0	0	619853	692	0	correct_rejection	NA	0
46	Nonet	149	473	797	7	0	0	620562	692	0	correct_rejection	NA	0
46	Nonet	150	474	798	8	0	0	621270	692	0	correct_rejection	NA	0
46	Nonet	151	475	799	9	0	0	621979	692	0	correct_rejection	NA	0
46	Nonet	152	476	800	4	0	0	622688	691	0	correct_rejection	NA	0
46	Nonet	153	477	801	5	0	0	623396	692	0	correct_rejection	NA	0
46	Nonet	154	478	802	0	1	1	624105	691	1	hit	599	0
46	Nonet	155	479	803	6	0	0	624813	692	0	correct_rejection	NA	0
46	Nonet	156	480	804	4	0	0	625522	691	0	correct_rejection	NA	0
46	Nonet	157	481	805	0	1	1	626230	692	1	hit	377	0
46	Nonet	158	482	806	5	0	0	626939	692	0	correct_rejection	NA	0
46	Nonet	159	483	807	6	0	0	627647	692	0	correct_rejection	NA	0
46	Nonet	160	484	808	4	0	0	628356	692	0	correct_rejection	NA	0
46	Nonet	161	485	809	5	0	0	629065	691	0	correct_rejection	NA	0
46	Nonet	162	486	810	6	0	0	629773	692	0	correct_rejection	NA	0
trigger nr 622 at 632126
trigger nr 626 at 707417
46	Single	1	487	811	7	0	0	714601	692	0	correct_rejection	NA	7149
46	Single	2	488	812	4	0	0	715310	691	0	correct_rejection	NA	0
46	Single	3	489	813	5	0	0	716018	692	0	correct_rejection	NA	0
46	Single	4	490	814	0	1	1	716727	691	1	hit	321	0
46	Single	5	491	815	5	0	0	717435	692	0	correct_rejection	NA	0
46	Single	6	492	816	7	0	0	718144	692	0	correct_rejection	NA	0
46	Single	7	493	817	6	0	0	718852	692	0	correct_rejection	NA	0
46	Single	8	494	818	4	0	0	719561	692	0	correct_rejection	NA	0
46	Single	9	495	819	9	0	0	720270	691	0	correct_rejection	NA	0
46	Single	10	496	820	0	1	1	720978	692	1	hit	352	0
46	Single	11	497	821	5	0	0	721687	691	0	correct_rejection	NA	0
46	Single	12	498	822	9	0	0	722395	692	0	correct_rejection	NA	0
46	Single	13	499	823	0	1	1	723104	692	1	hit	398	0
46	Single	14	500	824	4	0	0	723812	692	0	correct_rejection	NA	0
46	Single	15	501	825	8	0	0	724521	692	0	correct_rejection	NA	0
46	Single	16	502	826	5	0	0	725230	691	0	correct_rejection	NA	0
46	Single	17	503	827	8	0	0	725938	692	0	correct_rejection	NA	0
46	Single	18	504	828	4	0	0	726647	691	0	correct_rejection	NA	0
46	Single	19	505	829	7	0	0	727355	692	0	correct_rejection	NA	0
46	Single	20	506	830	8	0	0	728064	692	0	correct_rejection	NA	0
46	Single	21	507	831	6	0	0	728772	692	0	correct_rejection	NA	0
46	Single	22	508	832	8	0	0	729481	692	0	correct_rejection	NA	0
46	Single	23	509	833	9	0	0	730190	691	0	correct_rejection	NA	0
46	Single	24	510	834	7	0	0	730898	692	0	correct_rejection	NA	0
46	Single	25	511	835	0	1	1	731607	691	1	hit	340	0
46	Single	26	512	836	5	0	0	732315	692	0	correct_rejection	NA	0
46	Single	27	513	837	6	0	0	733024	691	0	correct_rejection	NA	0
46	Single	28	514	838	9	0	0	733732	692	0	correct_rejection	NA	0
46	Single	29	515	839	6	0	0	734441	692	0	correct_rejection	NA	0
46	Single	30	516	840	6	0	0	735149	692	0	correct_rejection	NA	0
46	Single	31	517	841	5	0	0	735858	692	0	correct_rejection	NA	0
46	Single	32	518	842	4	0	0	736567	691	0	correct_rejection	NA	0
46	Single	33	519	843	4	0	0	737275	692	0	correct_rejection	NA	0
46	Single	34	520	844	0	1	1	737984	691	1	hit	342	0
46	Single	35	521	845	6	0	0	738692	692	0	correct_rejection	NA	0
46	Single	36	522	846	7	0	0	739401	692	0	correct_rejection	NA	0
46	Single	37	523	847	7	0	0	740109	692	0	correct_rejection	NA	0
46	Single	38	524	848	9	0	0	740818	692	0	correct_rejection	NA	0
46	Single	39	525	849	9	0	0	741527	691	0	correct_rejection	NA	0
46	Single	40	526	850	8	0	0	742235	692	0	correct_rejection	NA	0
46	Single	41	527	851	8	0	0	742944	691	0	correct_rejection	NA	0
46	Single	42	528	852	5	0	0	743652	692	0	correct_rejection	NA	0
46	Single	43	529	853	9	0	0	744361	692	0	correct_rejection	NA	0
46	Single	44	530	854	9	0	0	745069	692	0	correct_rejection	NA	0
46	Single	45	531	855	7	0	0	745778	692	0	correct_rejection	NA	0
46	Single	46	532	856	0	1	1	746487	691	1	hit	417	0
46	Single	47	533	857	9	0	0	747195	692	0	correct_rejection	NA	0
46	Single	48	534	858	5	0	0	747904	691	0	correct_rejection	NA	0
46	Single	49	535	859	5	0	0	748612	692	0	correct_rejection	NA	0
46	Single	50	536	860	0	1	1	749321	692	1	hit	360	0
46	Single	51	537	861	8	0	0	750029	692	0	correct_rejection	NA	0
46	Single	52	538	862	7	0	0	750738	692	0	correct_rejection	NA	0
46	Single	53	539	863	5	0	0	751447	691	0	correct_rejection	NA	0
46	Single	54	540	864	4	0	0	752155	692	0	correct_rejection	NA	0
46	Single	55	541	865	5	0	0	752864	691	0	correct_rejection	NA	0
46	Single	56	542	866	7	0	0	753572	692	0	correct_rejection	NA	0
46	Single	57	543	867	7	0	0	754281	691	0	correct_rejection	NA	0
46	Single	58	544	868	4	0	0	754989	692	0	correct_rejection	NA	0
46	Single	59	545	869	9	0	0	755698	692	0	correct_rejection	NA	0
46	Single	60	546	870	6	0	0	756406	692	0	correct_rejection	NA	0
46	Single	61	547	871	7	0	0	757115	692	0	correct_rejection	NA	0
46	Single	62	548	872	8	0	0	757824	691	0	correct_rejection	NA	0
46	Single	63	549	873	4	0	0	758532	692	0	correct_rejection	NA	0
46	Single	64	550	874	6	0	0	759241	691	0	correct_rejection	NA	0
46	Single	65	551	875	5	0	0	759949	692	0	correct_rejection	NA	0
46	Single	66	552	876	6	0	0	760658	692	0	correct_rejection	NA	0
46	Single	67	553	877	6	0	0	761366	692	0	correct_rejection	NA	0
46	Single	68	554	878	9	0	0	762075	692	0	correct_rejection	NA	0
46	Single	69	555	879	8	0	0	762784	691	0	correct_rejection	NA	0
46	Single	70	556	880	9	0	0	763492	692	0	correct_rejection	NA	0
46	Single	71	557	881	4	0	0	764201	691	0	correct_rejection	NA	0
46	Single	72	558	882	4	0	0	764909	692	0	correct_rejection	NA	0
46	Single	73	559	883	8	0	0	765618	692	0	correct_rejection	NA	0
46	Single	74	560	884	6	0	0	766326	692	0	correct_rejection	NA	0
46	Single	75	561	885	4	0	0	767035	692	0	correct_rejection	NA	0
46	Single	76	562	886	7	0	0	767744	691	0	correct_rejection	NA	0
46	Single	77	563	887	6	0	0	768452	692	0	correct_rejection	NA	0
46	Single	78	564	888	8	0	0	769161	691	0	correct_rejection	NA	0
46	Single	79	565	889	8	0	0	769869	692	0	correct_rejection	NA	0
46	Single	80	566	890	4	0	0	770578	691	0	correct_rejection	NA	0
46	Single	81	567	891	7	0	0	771286	692	0	correct_rejection	NA	0
46	Single	82	568	892	5	0	0	771995	692	0	correct_rejection	NA	0
46	Single	83	569	893	5	0	0	772703	692	0	correct_rejection	NA	0
46	Single	84	570	894	4	0	0	773412	692	0	correct_rejection	NA	0
46	Single	85	571	895	0	1	1	774121	691	1	hit	375	0
46	Single	86	572	896	8	0	0	774829	692	0	correct_rejection	NA	0
46	Single	87	573	897	9	0	0	775538	691	0	correct_rejection	NA	0
46	Single	88	574	898	0	1	1	776246	692	1	hit	414	0
46	Single	89	575	899	6	0	0	776955	692	0	correct_rejection	NA	0
46	Single	90	576	900	9	0	0	777663	692	0	correct_rejection	NA	0
46	Single	91	577	901	9	0	0	778372	692	0	correct_rejection	NA	0
46	Single	92	578	902	5	0	0	779081	691	0	correct_rejection	NA	0
46	Single	93	579	903	8	0	0	779789	692	0	correct_rejection	NA	0
46	Single	94	580	904	5	0	0	780498	691	0	correct_rejection	NA	0
46	Single	95	581	905	6	0	0	781206	692	0	correct_rejection	NA	0
46	Single	96	582	906	7	0	0	781915	692	0	correct_rejection	NA	0
46	Single	97	583	907	9	0	0	782623	692	0	correct_rejection	NA	0
46	Single	98	584	908	4	0	0	783332	692	0	correct_rejection	NA	0
46	Single	99	585	909	6	0	0	784041	691	0	correct_rejection	NA	0
46	Single	100	586	910	8	0	0	784749	692	0	correct_rejection	NA	0
46	Single	101	587	911	0	1	1	785458	691	1	hit	431	0
46	Single	102	588	912	4	0	0	786166	692	0	correct_rejection	NA	0
46	Single	103	589	913	5	0	0	786875	692	0	correct_rejection	NA	0
46	Single	104	590	914	9	0	0	787583	692	0	correct_rejection	NA	0
46	Single	105	591	915	8	0	0	788292	692	0	correct_rejection	NA	0
46	Single	106	592	916	7	0	0	789001	691	0	correct_rejection	NA	0
46	Single	107	593	917	0	1	1	789709	692	1	hit	385	0
46	Single	108	594	918	6	0	0	790418	691	0	correct_rejection	NA	0
46	Single	109	595	919	6	0	0	791126	692	0	correct_rejection	NA	0
46	Single	110	596	920	4	0	0	791835	691	0	correct_rejection	NA	0
46	Single	111	597	921	0	1	1	792543	692	1	hit	387	0
46	Single	112	598	922	4	0	0	793252	692	0	correct_rejection	NA	0
46	Single	113	599	923	9	0	0	793960	692	0	correct_rejection	NA	0
46	Single	114	600	924	7	0	0	794669	692	0	correct_rejection	NA	0
46	Single	115	601	925	7	0	0	795378	691	0	correct_rejection	NA	0
46	Single	116	602	926	0	1	1	796086	692	1	hit	314	0
46	Single	117	603	927	8	0	0	796795	691	0	correct_rejection	NA	0
46	Single	118	604	928	8	0	0	797503	692	0	correct_rejection	NA	0
46	Single	119	605	929	6	0	0	798212	692	0	correct_rejection	NA	0
46	Single	120	606	930	5	0	0	798920	692	0	correct_rejection	NA	0
46	Single	121	607	931	7	0	0	799629	692	0	correct_rejection	NA	0
46	Single	122	608	932	0	1	1	800338	691	1	hit	375	0
46	Single	123	609	933	7	0	0	801046	692	0	correct_rejection	NA	0
46	Single	124	610	934	8	0	0	801755	691	0	correct_rejection	NA	0
46	Single	125	611	935	5	0	0	802463	692	0	correct_rejection	NA	0
46	Single	126	612	936	0	1	1	803172	692	1	hit	371	0
46	Single	127	613	937	7	0	0	803880	692	0	correct_rejection	NA	0
46	Single	128	614	938	6	0	0	804589	692	0	correct_rejection	NA	0
46	Single	129	615	939	4	0	0	805298	691	0	correct_rejection	NA	0
46	Single	130	616	940	5	0	0	806006	692	0	correct_rejection	NA	0
46	Single	131	617	941	5	0	0	806715	691	0	correct_rejection	NA	0
46	Single	132	618	942	6	0	0	807423	692	0	correct_rejection	NA	0
46	Single	133	619	943	8	0	0	808132	691	0	correct_rejection	NA	0
46	Single	134	620	944	0	1	1	808840	692	1	hit	390	0
46	Single	135	621	945	6	0	0	809549	692	0	correct_rejection	NA	0
46	Single	136	622	946	9	0	0	810258	691	0	correct_rejection	NA	0
46	Single	137	623	947	4	0	0	810966	692	0	correct_rejection	NA	0
46	Single	138	624	948	8	0	0	811675	691	0	correct_rejection	NA	0
46	Single	139	625	949	7	0	0	812383	692	0	correct_rejection	NA	0
46	Single	140	626	950	0	1	1	813092	691	1	hit	316	0
46	Single	141	627	951	4	0	0	813800	692	0	correct_rejection	NA	0
46	Single	142	628	952	6	0	0	814509	692	0	correct_rejection	NA	0
46	Single	143	629	953	6	0	0	815217	692	0	correct_rejection	NA	0
46	Single	144	630	954	7	0	0	815926	692	0	correct_rejection	NA	0
46	Single	145	631	955	5	0	0	816635	691	0	correct_rejection	NA	0
46	Single	146	632	956	8	0	0	817343	692	0	correct_rejection	NA	0
46	Single	147	633	957	9	0	0	818052	691	0	correct_rejection	NA	0
46	Single	148	634	958	8	0	0	818760	692	0	correct_rejection	NA	0
46	Single	149	635	959	8	0	0	819469	692	0	correct_rejection	NA	0
46	Single	150	636	960	4	0	0	820177	692	0	correct_rejection	NA	0
46	Single	151	637	961	9	0	0	820886	692	0	correct_rejection	NA	0
46	Single	152	638	962	5	0	0	821595	691	0	correct_rejection	NA	0
46	Single	153	639	963	4	0	0	822303	692	0	correct_rejection	NA	0
46	Single	154	640	964	4	0	0	823012	691	0	correct_rejection	NA	0
46	Single	155	641	965	7	0	0	823720	692	0	correct_rejection	NA	0
46	Single	156	642	966	9	0	0	824429	692	0	correct_rejection	NA	0
46	Single	157	643	967	9	0	0	825137	692	0	correct_rejection	NA	0
46	Single	158	644	968	6	0	0	825846	692	0	correct_rejection	NA	0
46	Single	159	645	969	5	0	0	826555	691	0	correct_rejection	NA	0
46	Single	160	646	970	0	1	1	827263	692	1	hit	454	0
46	Single	161	647	971	9	0	0	827972	691	0	correct_rejection	NA	0
46	Single	162	648	972	7	0	0	828680	692	0	correct_rejection	NA	0
46	Correct	1	325	973	4	0	0	838250	692	0	correct_rejection	NA	7799
46	Correct	2	326	974	5	0	0	838959	691	0	correct_rejection	NA	0
46	Correct	3	327	975	6	0	0	839667	692	0	correct_rejection	NA	0
46	Correct	4	328	976	4	0	0	840376	691	0	correct_rejection	NA	0
46	Correct	5	329	977	5	0	0	841084	692	0	correct_rejection	NA	0
46	Correct	6	330	978	6	0	0	841793	692	0	correct_rejection	NA	0
46	Correct	7	331	979	4	0	0	842501	692	0	correct_rejection	NA	0
46	Correct	8	332	980	5	0	0	843210	692	0	correct_rejection	NA	0
46	Correct	9	333	981	6	0	0	843919	691	0	correct_rejection	NA	0
46	Correct	10	334	982	0	1	3	844627	692	1	hit	399	0
46	Correct	11	335	983	6	0	0	845336	691	0	correct_rejection	NA	0
46	Correct	12	336	984	5	0	0	846044	692	0	correct_rejection	NA	0
46	Correct	13	337	985	4	0	0	846753	692	0	correct_rejection	NA	0
46	Correct	14	338	986	6	0	0	847461	692	0	correct_rejection	NA	0
46	Correct	15	339	987	5	0	0	848170	692	0	correct_rejection	NA	0
46	Correct	16	340	988	4	0	0	848879	691	0	correct_rejection	NA	0
46	Correct	17	341	989	6	0	0	849587	692	0	correct_rejection	NA	0
46	Correct	18	342	990	0	1	1	850296	691	1	hit	482	0
46	Correct	19	343	991	5	0	0	851004	692	0	correct_rejection	NA	0
46	Correct	20	344	992	4	0	0	851713	691	0	correct_rejection	NA	0
46	Correct	21	345	993	9	0	0	852421	692	0	correct_rejection	NA	0
46	Correct	22	346	994	8	0	0	853130	692	0	correct_rejection	NA	0
46	Correct	23	347	995	7	0	0	853838	692	0	correct_rejection	NA	0
46	Correct	24	348	996	0	1	2	854547	692	1	hit	301	0
46	Correct	25	349	997	9	0	0	855256	691	0	correct_rejection	NA	0
46	Correct	26	350	998	8	0	0	855964	692	0	correct_rejection	NA	0
46	Correct	27	351	999	7	0	0	856673	691	0	correct_rejection	NA	0
46	Correct	28	352	1000	9	0	0	857381	692	0	correct_rejection	NA	0
46	Correct	29	353	1001	8	0	0	858090	692	0	correct_rejection	NA	0
46	Correct	30	354	1002	7	0	0	858798	692	0	correct_rejection	NA	0
46	Correct	31	355	1003	7	0	0	859507	692	0	correct_rejection	NA	0
46	Correct	32	356	1004	8	0	0	860216	691	0	correct_rejection	NA	0
46	Correct	33	357	1005	9	0	0	860924	692	0	correct_rejection	NA	0
46	Correct	34	358	1006	7	0	0	861633	691	0	correct_rejection	NA	0
46	Correct	35	359	1007	8	0	0	862341	692	0	correct_rejection	NA	0
46	Correct	36	360	1008	9	0	0	863050	692	0	correct_rejection	NA	0
46	Correct	37	361	1009	7	0	0	863758	692	0	correct_rejection	NA	0
46	Correct	38	362	1010	0	1	1	864467	692	1	hit	290	0
46	Correct	39	363	1011	8	0	0	865176	691	0	correct_rejection	NA	0
46	Correct	40	364	1012	9	0	0	865884	692	0	correct_rejection	NA	0
46	Correct	41	365	1013	4	0	0	866593	691	0	correct_rejection	NA	0
46	Correct	42	366	1014	5	0	0	867301	692	0	correct_rejection	NA	0
46	Correct	43	367	1015	6	0	0	868010	692	0	correct_rejection	NA	0
46	Correct	44	368	1016	4	0	0	868718	692	0	correct_rejection	NA	0
46	Correct	45	369	1017	5	0	0	869427	692	0	correct_rejection	NA	0
46	Correct	46	370	1018	6	0	0	870136	691	0	correct_rejection	NA	0
46	Correct	47	371	1019	4	0	0	870844	692	0	correct_rejection	NA	0
46	Correct	48	372	1020	0	1	1	871553	691	1	hit	334	0
46	Correct	49	373	1021	5	0	0	872261	692	0	correct_rejection	NA	0
46	Correct	50	374	1022	6	0	0	872970	691	0	correct_rejection	NA	0
46	Correct	51	375	1023	6	0	0	873678	692	0	correct_rejection	NA	0
46	Correct	52	376	1024	5	0	0	874387	692	0	correct_rejection	NA	0
46	Correct	53	377	1025	4	0	0	875095	692	0	correct_rejection	NA	0
46	Correct	54	378	1026	6	0	0	875804	692	0	correct_rejection	NA	0
46	Correct	55	379	1027	5	0	0	876513	691	0	correct_rejection	NA	0
46	Correct	56	380	1028	4	0	0	877221	692	0	correct_rejection	NA	0
46	Correct	57	381	1029	6	0	0	877930	691	0	correct_rejection	NA	0
46	Correct	58	382	1030	5	0	0	878638	692	0	correct_rejection	NA	0
46	Correct	59	383	1031	4	0	0	879347	692	0	correct_rejection	NA	0
46	Correct	60	384	1032	9	0	0	880055	692	0	correct_rejection	NA	0
46	Correct	61	385	1033	8	0	0	880764	692	0	correct_rejection	NA	0
46	Correct	62	386	1034	7	0	0	881473	691	0	correct_rejection	NA	0
46	Correct	63	387	1035	9	0	0	882181	692	0	correct_rejection	NA	0
46	Correct	64	388	1036	8	0	0	882890	691	0	correct_rejection	NA	0
46	Correct	65	389	1037	0	1	1	883598	692	1	hit	473	0
46	Correct	66	390	1038	7	0	0	884307	692	0	correct_rejection	NA	0
46	Correct	67	391	1039	9	0	0	885015	692	0	correct_rejection	NA	0
46	Correct	68	392	1040	8	0	0	885724	692	0	correct_rejection	NA	0
46	Correct	69	393	1041	7	0	0	886433	691	0	correct_rejection	NA	0
46	Correct	70	394	1042	7	0	0	887141	692	0	correct_rejection	NA	0
46	Correct	71	395	1043	8	0	0	887850	691	0	correct_rejection	NA	0
46	Correct	72	396	1044	9	0	0	888558	692	0	correct_rejection	NA	0
46	Correct	73	397	1045	0	1	2	889267	691	0	miss	NA	0
46	Correct	74	398	1046	7	0	0	889975	692	0	correct_rejection	NA	0
46	Correct	75	399	1047	8	0	0	890684	692	0	correct_rejection	NA	0
46	Correct	76	400	1048	0	1	1	891393	691	1	hit	399	0
46	Correct	77	401	1049	9	0	0	892101	692	0	correct_rejection	NA	0
46	Correct	78	402	1050	7	0	0	892810	691	0	correct_rejection	NA	0
46	Correct	79	403	1051	8	0	0	893518	692	0	correct_rejection	NA	0
46	Correct	80	404	1052	0	1	1	894227	691	1	hit	407	0
46	Correct	81	405	1053	9	0	0	894935	692	0	correct_rejection	NA	0
46	Correct	82	406	1054	4	0	0	895644	692	0	correct_rejection	NA	0
46	Correct	83	407	1055	5	0	0	896352	692	0	correct_rejection	NA	0
46	Correct	84	408	1056	0	1	1	897061	692	1	hit	270	0
46	Correct	85	409	1057	6	0	0	897770	691	0	correct_rejection	NA	0
46	Correct	86	410	1058	4	0	0	898478	692	0	correct_rejection	NA	0
46	Correct	87	411	1059	5	0	0	899187	691	0	correct_rejection	NA	0
46	Correct	88	412	1060	6	0	0	899895	692	0	correct_rejection	NA	0
46	Correct	89	413	1061	4	0	0	900604	692	0	correct_rejection	NA	0
46	Correct	90	414	1062	5	0	0	901312	692	0	correct_rejection	NA	0
46	Correct	91	415	1063	6	0	0	902021	692	0	correct_rejection	NA	0
46	Correct	92	416	1064	6	0	0	902730	691	0	correct_rejection	NA	0
46	Correct	93	417	1065	5	0	0	903438	692	0	correct_rejection	NA	0
46	Correct	94	418	1066	4	0	0	904147	691	0	correct_rejection	NA	0
46	Correct	95	419	1067	6	0	0	904855	692	0	correct_rejection	NA	0
46	Correct	96	420	1068	5	0	0	905564	692	0	correct_rejection	NA	0
46	Correct	97	421	1069	4	0	0	906272	692	0	correct_rejection	NA	0
46	Correct	98	422	1070	6	0	0	906981	692	0	correct_rejection	NA	0
46	Correct	99	423	1071	5	0	0	907690	691	0	correct_rejection	NA	0
46	Correct	100	424	1072	4	0	0	908398	692	0	correct_rejection	NA	0
46	Correct	101	425	1073	9	0	0	909107	691	0	correct_rejection	NA	0
46	Correct	102	426	1074	8	0	0	909815	692	0	correct_rejection	NA	0
46	Correct	103	427	1075	7	0	0	910524	691	0	correct_rejection	NA	0
46	Correct	104	428	1076	0	1	2	911232	692	0	miss	NA	0
46	Correct	105	429	1077	9	0	0	911941	692	1	false_alarm	67	0
46	Correct	106	430	1078	8	0	0	912649	692	0	correct_rejection	NA	0
46	Correct	107	431	1079	7	0	0	913358	692	0	correct_rejection	NA	0
46	Correct	108	432	1080	9	0	0	914067	691	0	correct_rejection	NA	0
46	Correct	109	433	1081	8	0	0	914775	692	0	correct_rejection	NA	0
46	Correct	110	434	1082	7	0	0	915484	691	0	correct_rejection	NA	0
46	Correct	111	435	1083	0	1	3	916192	692	1	hit	352	0
46	Correct	112	436	1084	7	0	0	916901	692	0	correct_rejection	NA	0
46	Correct	113	437	1085	8	0	0	917609	692	0	correct_rejection	NA	0
46	Correct	114	438	1086	9	0	0	918318	692	0	correct_rejection	NA	0
46	Correct	115	439	1087	7	0	0	919027	691	0	correct_rejection	NA	0
46	Correct	116	440	1088	0	1	1	919735	692	1	hit	481	0
46	Correct	117	441	1089	8	0	0	920444	691	0	correct_rejection	NA	0
46	Correct	118	442	1090	9	0	0	921152	692	0	correct_rejection	NA	0
46	Correct	119	443	1091	7	0	0	921861	692	0	correct_rejection	NA	0
46	Correct	120	444	1092	0	1	1	922569	692	1	hit	297	0
46	Correct	121	445	1093	8	0	0	923278	692	0	correct_rejection	NA	0
46	Correct	122	446	1094	9	0	0	923987	691	0	correct_rejection	NA	0
46	Correct	123	447	1095	4	0	0	924695	692	0	correct_rejection	NA	0
46	Correct	124	448	1096	5	0	0	925404	691	0	correct_rejection	NA	0
46	Correct	125	449	1097	6	0	0	926112	692	0	correct_rejection	NA	0
46	Correct	126	450	1098	4	0	0	926821	692	0	correct_rejection	NA	0
46	Correct	127	451	1099	0	1	1	927529	692	1	hit	489	0
46	Correct	128	452	1100	5	0	0	928238	692	0	correct_rejection	NA	0
46	Correct	129	453	1101	6	0	0	928947	691	0	correct_rejection	NA	0
46	Correct	130	454	1102	4	0	0	929655	692	0	correct_rejection	NA	0
46	Correct	131	455	1103	5	0	0	930364	691	0	correct_rejection	NA	0
46	Correct	132	456	1104	6	0	0	931072	692	0	correct_rejection	NA	0
46	Correct	133	457	1105	6	0	0	931781	691	0	correct_rejection	NA	0
46	Correct	134	458	1106	5	0	0	932489	692	0	correct_rejection	NA	0
46	Correct	135	459	1107	0	1	1	933198	692	1	hit	401	0
46	Correct	136	460	1108	4	0	0	933906	692	0	correct_rejection	NA	0
46	Correct	137	461	1109	6	0	0	934615	692	0	correct_rejection	NA	0
46	Correct	138	462	1110	5	0	0	935324	691	0	correct_rejection	NA	0
46	Correct	139	463	1111	4	0	0	936032	692	0	correct_rejection	NA	0
46	Correct	140	464	1112	6	0	0	936741	691	0	correct_rejection	NA	0
46	Correct	141	465	1113	5	0	0	937449	692	0	correct_rejection	NA	0
46	Correct	142	466	1114	4	0	0	938158	692	0	correct_rejection	NA	0
46	Correct	143	467	1115	9	0	0	938866	692	0	correct_rejection	NA	0
46	Correct	144	468	1116	8	0	0	939575	692	0	correct_rejection	NA	0
46	Correct	145	469	1117	7	0	0	940284	691	0	correct_rejection	NA	0
46	Correct	146	470	1118	9	0	0	940992	692	0	correct_rejection	NA	0
46	Correct	147	471	1119	0	1	1	941701	691	1	hit	496	0
46	Correct	148	472	1120	8	0	0	942409	692	0	correct_rejection	NA	0
46	Correct	149	473	1121	7	0	0	943118	692	0	correct_rejection	NA	0
46	Correct	150	474	1122	9	0	0	943826	692	0	correct_rejection	NA	0
46	Correct	151	475	1123	8	0	0	944535	692	0	correct_rejection	NA	0
46	Correct	152	476	1124	7	0	0	945244	691	0	correct_rejection	NA	0
46	Correct	153	477	1125	7	0	0	945952	692	0	correct_rejection	NA	0
46	Correct	154	478	1126	8	0	0	946661	691	0	correct_rejection	NA	0
46	Correct	155	479	1127	9	0	0	947369	692	0	correct_rejection	NA	0
46	Correct	156	480	1128	0	1	2	948078	692	1	hit	405	0
46	Correct	157	481	1129	7	0	0	948786	692	0	correct_rejection	NA	0
46	Correct	158	482	1130	8	0	0	949495	692	0	correct_rejection	NA	0
46	Correct	159	483	1131	9	0	0	950204	691	0	correct_rejection	NA	0
46	Correct	160	484	1132	7	0	0	950912	692	0	correct_rejection	NA	0
46	Correct	161	485	1133	8	0	0	951621	691	0	correct_rejection	NA	0
46	Correct	162	486	1134	9	0	0	952329	692	0	correct_rejection	NA	0
46	Nonet	1	163	1135	4	0	0	962107	692	0	correct_rejection	NA	7659
46	Nonet	2	164	1136	5	0	0	962816	692	0	correct_rejection	NA	0
46	Nonet	3	165	1137	6	0	0	963525	691	0	correct_rejection	NA	0
46	Nonet	4	166	1138	4	0	0	964233	692	0	correct_rejection	NA	0
46	Nonet	5	167	1139	5	0	0	964942	691	0	correct_rejection	NA	0
46	Nonet	6	168	1140	6	0	0	965650	692	0	correct_rejection	NA	0
46	Nonet	7	169	1141	4	0	0	966359	692	0	correct_rejection	NA	0
46	Nonet	8	170	1142	5	0	0	967067	692	0	correct_rejection	NA	0
46	Nonet	9	171	1143	0	1	1	967776	692	1	hit	396	0
46	Nonet	10	172	1144	6	0	0	968485	691	0	correct_rejection	NA	0
46	Nonet	11	173	1145	4	0	0	969193	692	0	correct_rejection	NA	0
46	Nonet	12	174	1146	5	0	0	969902	691	0	correct_rejection	NA	0
46	Nonet	13	175	1147	6	0	0	970610	692	0	correct_rejection	NA	0
46	Nonet	14	176	1148	4	0	0	971319	691	0	correct_rejection	NA	0
46	Nonet	15	177	1149	5	0	0	972027	692	0	correct_rejection	NA	0
46	Nonet	16	178	1150	6	0	0	972736	692	0	correct_rejection	NA	0
46	Nonet	17	179	1151	4	0	0	973444	692	0	correct_rejection	NA	0
46	Nonet	18	180	1152	5	0	0	974153	692	0	correct_rejection	NA	0
46	Nonet	19	181	1153	6	0	0	974862	691	0	correct_rejection	NA	0
46	Nonet	20	182	1154	7	0	0	975570	692	0	correct_rejection	NA	0
46	Nonet	21	183	1155	8	0	0	976279	691	0	correct_rejection	NA	0
46	Nonet	22	184	1156	9	0	0	976987	692	0	correct_rejection	NA	0
46	Nonet	23	185	1157	7	0	0	977696	692	0	correct_rejection	NA	0
46	Nonet	24	186	1158	8	0	0	978404	692	0	correct_rejection	NA	0
46	Nonet	25	187	1159	9	0	0	979113	692	0	correct_rejection	NA	0
46	Nonet	26	188	1160	7	0	0	979822	691	0	correct_rejection	NA	0
46	Nonet	27	189	1161	0	1	1	980530	692	1	hit	491	0
46	Nonet	28	190	1162	8	0	0	981239	691	0	correct_rejection	NA	0
46	Nonet	29	191	1163	9	0	0	981947	692	0	correct_rejection	NA	0
46	Nonet	30	192	1164	0	1	3	982656	692	1	hit	401	0
46	Nonet	31	193	1165	7	0	0	983364	692	0	correct_rejection	NA	0
46	Nonet	32	194	1166	8	0	0	984073	692	0	correct_rejection	NA	0
46	Nonet	33	195	1167	9	0	0	984782	691	0	correct_rejection	NA	0
46	Nonet	34	196	1168	7	0	0	985490	692	0	correct_rejection	NA	0
46	Nonet	35	197	1169	0	1	1	986199	691	1	hit	410	0
46	Nonet	36	198	1170	8	0	0	986907	692	0	correct_rejection	NA	0
46	Nonet	37	199	1171	9	0	0	987616	691	0	correct_rejection	NA	0
46	Nonet	38	200	1172	7	0	0	988324	692	0	correct_rejection	NA	0
46	Nonet	39	201	1173	8	0	0	989033	692	0	correct_rejection	NA	0
46	Nonet	40	202	1174	9	0	0	989742	691	0	correct_rejection	NA	0
46	Nonet	41	203	1175	6	0	0	990450	692	0	correct_rejection	NA	0
46	Nonet	42	204	1176	5	0	0	991159	691	0	correct_rejection	NA	0
46	Nonet	43	205	1177	4	0	0	991867	692	0	correct_rejection	NA	0
46	Nonet	44	206	1178	6	0	0	992576	691	0	correct_rejection	NA	0
46	Nonet	45	207	1179	5	0	0	993284	692	0	correct_rejection	NA	0
46	Nonet	46	208	1180	4	0	0	993993	692	0	correct_rejection	NA	0
46	Nonet	47	209	1181	6	0	0	994701	692	0	correct_rejection	NA	0
46	Nonet	48	210	1182	5	0	0	995410	692	0	correct_rejection	NA	0
46	Nonet	49	211	1183	0	1	1	996119	691	1	hit	459	0
46	Nonet	50	212	1184	4	0	0	996827	692	0	correct_rejection	NA	0
46	Nonet	51	213	1185	6	0	0	997536	691	0	correct_rejection	NA	0
46	Nonet	52	214	1186	5	0	0	998244	692	0	correct_rejection	NA	0
46	Nonet	53	215	1187	4	0	0	998953	692	0	correct_rejection	NA	0
46	Nonet	54	216	1188	6	0	0	999661	692	0	correct_rejection	NA	0
46	Nonet	55	217	1189	0	1	1	1000370	692	1	hit	581	0
46	Nonet	56	218	1190	5	0	0	1001079	691	0	correct_rejection	NA	0
46	Nonet	57	219	1191	4	0	0	1001787	692	0	correct_rejection	NA	0
46	Nonet	58	220	1192	6	0	0	1002496	691	0	correct_rejection	NA	0
46	Nonet	59	221	1193	5	0	0	1003204	692	0	correct_rejection	NA	0
46	Nonet	60	222	1194	4	0	0	1003913	692	0	correct_rejection	NA	0
46	Nonet	61	223	1195	4	0	0	1004621	692	0	correct_rejection	NA	0
46	Nonet	62	224	1196	0	1	1	1005330	692	1	hit	324	0
46	Nonet	63	225	1197	5	0	0	1006039	691	0	correct_rejection	NA	0
46	Nonet	64	226	1198	6	0	0	1006747	692	0	correct_rejection	NA	0
46	Nonet	65	227	1199	4	0	0	1007456	691	0	correct_rejection	NA	0
46	Nonet	66	228	1200	5	0	0	1008164	692	0	correct_rejection	NA	0
46	Nonet	67	229	1201	6	0	0	1008873	691	0	correct_rejection	NA	0
46	Nonet	68	230	1202	4	0	0	1009581	692	0	correct_rejection	NA	0
46	Nonet	69	231	1203	5	0	0	1010290	692	0	correct_rejection	NA	0
46	Nonet	70	232	1204	6	0	0	1010998	692	0	correct_rejection	NA	0
46	Nonet	71	233	1205	6	0	0	1011707	692	0	correct_rejection	NA	0
46	Nonet	72	234	1206	5	0	0	1012416	691	0	correct_rejection	NA	0
46	Nonet	73	235	1207	4	0	0	1013124	692	0	correct_rejection	NA	0
46	Nonet	74	236	1208	6	0	0	1013833	691	0	correct_rejection	NA	0
46	Nonet	75	237	1209	0	1	1	1014541	692	1	hit	438	0
46	Nonet	76	238	1210	5	0	0	1015250	692	0	correct_rejection	NA	0
46	Nonet	77	239	1211	4	0	0	1015958	692	0	correct_rejection	NA	0
46	Nonet	78	240	1212	0	1	2	1016667	692	1	hit	632	0
46	Nonet	79	241	1213	6	0	0	1017376	691	0	correct_rejection	NA	0
46	Nonet	80	242	1214	5	0	0	1018084	692	0	correct_rejection	NA	0
46	Nonet	81	243	1215	4	0	0	1018793	691	0	correct_rejection	NA	0
46	Nonet	82	244	1216	9	0	0	1019501	692	0	correct_rejection	NA	0
46	Nonet	83	245	1217	0	1	1	1020210	692	1	hit	340	0
46	Nonet	84	246	1218	8	0	0	1020918	692	0	correct_rejection	NA	0
46	Nonet	85	247	1219	7	0	0	1021627	692	0	correct_rejection	NA	0
46	Nonet	86	248	1220	9	0	0	1022336	691	0	correct_rejection	NA	0
46	Nonet	87	249	1221	8	0	0	1023044	692	0	correct_rejection	NA	0
46	Nonet	88	250	1222	7	0	0	1023753	691	0	correct_rejection	NA	0
46	Nonet	89	251	1223	9	0	0	1024461	692	0	correct_rejection	NA	0
46	Nonet	90	252	1224	8	0	0	1025170	692	0	correct_rejection	NA	0
46	Nonet	91	253	1225	7	0	0	1025878	692	0	correct_rejection	NA	0
46	Nonet	92	254	1226	4	0	0	1026587	692	0	correct_rejection	NA	0
46	Nonet	93	255	1227	5	0	0	1027296	691	0	correct_rejection	NA	0
46	Nonet	94	256	1228	6	0	0	1028004	692	0	correct_rejection	NA	0
46	Nonet	95	257	1229	0	1	2	1028713	691	1	hit	354	0
46	Nonet	96	258	1230	4	0	0	1029421	692	0	correct_rejection	NA	0
46	Nonet	97	259	1231	5	0	0	1030130	691	0	correct_rejection	NA	0
46	Nonet	98	260	1232	6	0	0	1030838	692	0	correct_rejection	NA	0
46	Nonet	99	261	1233	4	0	0	1031547	692	0	correct_rejection	NA	0
46	Nonet	100	262	1234	0	1	1	1032255	692	1	hit	483	0
46	Nonet	101	263	1235	5	0	0	1032964	692	0	correct_rejection	NA	0
46	Nonet	102	264	1236	6	0	0	1033673	691	0	correct_rejection	NA	0
46	Nonet	103	265	1237	9	0	0	1034381	692	0	correct_rejection	NA	0
46	Nonet	104	266	1238	0	1	1	1035090	691	1	hit	414	0
46	Nonet	105	267	1239	8	0	0	1035798	692	0	correct_rejection	NA	0
46	Nonet	106	268	1240	7	0	0	1036507	692	0	correct_rejection	NA	0
46	Nonet	107	269	1241	9	0	0	1037215	692	0	correct_rejection	NA	0
46	Nonet	108	270	1242	0	1	1	1037924	692	1	hit	596	0
46	Nonet	109	271	1243	8	0	0	1038633	691	0	correct_rejection	NA	0
46	Nonet	110	272	1244	7	0	0	1039341	692	0	correct_rejection	NA	0
46	Nonet	111	273	1245	9	0	0	1040050	691	0	correct_rejection	NA	0
46	Nonet	112	274	1246	8	0	0	1040758	692	0	correct_rejection	NA	0
46	Nonet	113	275	1247	7	0	0	1041467	692	0	correct_rejection	NA	0
46	Nonet	114	276	1248	0	1	3	1042175	692	1	hit	405	0
46	Nonet	115	277	1249	7	0	0	1042884	692	0	correct_rejection	NA	0
46	Nonet	116	278	1250	8	0	0	1043593	691	0	correct_rejection	NA	0
46	Nonet	117	279	1251	9	0	0	1044301	692	0	correct_rejection	NA	0
46	Nonet	118	280	1252	7	0	0	1045010	691	0	correct_rejection	NA	0
46	Nonet	119	281	1253	8	0	0	1045718	692	0	correct_rejection	NA	0
46	Nonet	120	282	1254	9	0	0	1046427	691	0	correct_rejection	NA	0
46	Nonet	121	283	1255	7	0	0	1047135	692	0	correct_rejection	NA	0
46	Nonet	122	284	1256	8	0	0	1047844	692	0	correct_rejection	NA	0
46	Nonet	123	285	1257	9	0	0	1048552	692	0	correct_rejection	NA	0
46	Nonet	124	286	1258	9	0	0	1049261	692	0	correct_rejection	NA	0
46	Nonet	125	287	1259	8	0	0	1049970	691	0	correct_rejection	NA	0
46	Nonet	126	288	1260	7	0	0	1050678	692	0	correct_rejection	NA	0
46	Nonet	127	289	1261	9	0	0	1051387	691	0	correct_rejection	NA	0
46	Nonet	128	290	1262	8	0	0	1052095	692	0	correct_rejection	NA	0
46	Nonet	129	291	1263	7	0	0	1052804	692	0	correct_rejection	NA	0
46	Nonet	130	292	1264	9	0	0	1053512	692	0	correct_rejection	NA	0
46	Nonet	131	293	1265	8	0	0	1054221	692	0	correct_rejection	NA	0
46	Nonet	132	294	1266	7	0	0	1054930	691	0	correct_rejection	NA	0
46	Nonet	133	295	1267	0	1	3	1055638	692	1	hit	368	0
46	Nonet	134	296	1268	9	0	0	1056347	691	0	correct_rejection	NA	0
46	Nonet	135	297	1269	8	0	0	1057055	692	0	correct_rejection	NA	0
46	Nonet	136	298	1270	7	0	0	1057764	692	0	correct_rejection	NA	0
46	Nonet	137	299	1271	9	0	0	1058472	692	0	correct_rejection	NA	0
46	Nonet	138	300	1272	8	0	0	1059181	692	0	correct_rejection	NA	0
46	Nonet	139	301	1273	7	0	0	1059890	691	0	correct_rejection	NA	0
46	Nonet	140	302	1274	9	0	0	1060598	692	0	correct_rejection	NA	0
46	Nonet	141	303	1275	8	0	0	1061307	691	0	correct_rejection	NA	0
46	Nonet	142	304	1276	7	0	0	1062015	692	0	correct_rejection	NA	0
46	Nonet	143	305	1277	6	0	0	1062724	692	0	correct_rejection	NA	0
46	Nonet	144	306	1278	5	0	0	1063432	692	0	correct_rejection	NA	0
46	Nonet	145	307	1279	4	0	0	1064141	692	0	correct_rejection	NA	0
46	Nonet	146	308	1280	0	1	2	1064850	691	1	hit	352	0
46	Nonet	147	309	1281	6	0	0	1065558	692	0	correct_rejection	NA	0
46	Nonet	148	310	1282	5	0	0	1066267	691	0	correct_rejection	NA	0
46	Nonet	149	311	1283	4	0	0	1066975	692	0	correct_rejection	NA	0
46	Nonet	150	312	1284	6	0	0	1067684	691	0	correct_rejection	NA	0
46	Nonet	151	313	1285	5	0	0	1068392	692	0	correct_rejection	NA	0
46	Nonet	152	314	1286	4	0	0	1069101	692	0	correct_rejection	NA	0
46	Nonet	153	315	1287	7	0	0	1069809	692	0	correct_rejection	NA	0
46	Nonet	154	316	1288	8	0	0	1070518	692	0	correct_rejection	NA	0
46	Nonet	155	317	1289	0	1	1	1071227	691	0	miss	NA	0
46	Nonet	156	318	1290	9	0	0	1071935	692	0	correct_rejection	NA	0
46	Nonet	157	319	1291	7	0	0	1072644	691	0	correct_rejection	NA	0
46	Nonet	158	320	1292	8	0	0	1073352	692	0	correct_rejection	NA	0
46	Nonet	159	321	1293	9	0	0	1074061	692	0	correct_rejection	NA	0
46	Nonet	160	322	1294	7	0	0	1074769	692	0	correct_rejection	NA	0
46	Nonet	161	323	1295	8	0	0	1075478	692	0	correct_rejection	NA	0
46	Nonet	162	324	1296	9	0	0	1076187	691	0	correct_rejection	NA	0
46	Triplet	1	649	1297	4	0	0	1086165	692	0	correct_rejection	NA	7719
46	Triplet	2	650	1298	5	0	0	1086873	692	0	correct_rejection	NA	0
46	Triplet	3	651	1299	6	0	0	1087582	692	0	correct_rejection	NA	0
46	Triplet	4	652	1300	6	0	0	1088291	691	0	correct_rejection	NA	0
46	Triplet	5	653	1301	5	0	0	1088999	692	0	correct_rejection	NA	0
46	Triplet	6	654	1302	4	0	0	1089708	691	0	correct_rejection	NA	0
46	Triplet	7	655	1303	4	0	0	1090416	692	0	correct_rejection	NA	0
46	Triplet	8	656	1304	5	0	0	1091125	692	0	correct_rejection	NA	0
46	Triplet	9	657	1305	6	0	0	1091833	692	0	correct_rejection	NA	0
46	Triplet	10	658	1306	9	0	0	1092542	692	0	correct_rejection	NA	0
46	Triplet	11	659	1307	0	1	1	1093251	691	1	hit	383	0
46	Triplet	12	660	1308	8	0	0	1093959	692	0	correct_rejection	NA	0
46	Triplet	13	661	1309	7	0	0	1094668	691	0	correct_rejection	NA	0
46	Triplet	14	662	1310	6	0	0	1095376	692	0	correct_rejection	NA	0
46	Triplet	15	663	1311	0	1	1	1096085	691	1	hit	409	0
46	Triplet	16	664	1312	5	0	0	1096793	692	0	correct_rejection	NA	0
46	Triplet	17	665	1313	4	0	0	1097502	692	0	correct_rejection	NA	0
46	Triplet	18	666	1314	6	0	0	1098210	692	0	correct_rejection	NA	0
46	Triplet	19	667	1315	5	0	0	1098919	692	0	correct_rejection	NA	0
46	Triplet	20	668	1316	4	0	0	1099628	691	0	correct_rejection	NA	0
46	Triplet	21	669	1317	7	0	0	1100336	692	0	correct_rejection	NA	0
46	Triplet	22	670	1318	8	0	0	1101045	691	0	correct_rejection	NA	0
46	Triplet	23	671	1319	9	0	0	1101753	692	0	correct_rejection	NA	0
46	Triplet	24	672	1320	6	0	0	1102462	692	0	correct_rejection	NA	0
46	Triplet	25	673	1321	0	1	1	1103170	692	1	hit	351	0
46	Triplet	26	674	1322	5	0	0	1103879	692	0	correct_rejection	NA	0
46	Triplet	27	675	1323	4	0	0	1104588	691	0	correct_rejection	NA	0
46	Triplet	28	676	1324	9	0	0	1105296	692	0	correct_rejection	NA	0
46	Triplet	29	677	1325	8	0	0	1106005	691	0	correct_rejection	NA	0
46	Triplet	30	678	1326	7	0	0	1106713	692	0	correct_rejection	NA	0
46	Triplet	31	679	1327	7	0	0	1107422	692	0	correct_rejection	NA	0
46	Triplet	32	680	1328	8	0	0	1108130	692	0	correct_rejection	NA	0
46	Triplet	33	681	1329	9	0	0	1108839	692	0	correct_rejection	NA	0
46	Triplet	34	682	1330	4	0	0	1109548	691	0	correct_rejection	NA	0
46	Triplet	35	683	1331	5	0	0	1110256	692	0	correct_rejection	NA	0
46	Triplet	36	684	1332	6	0	0	1110965	691	0	correct_rejection	NA	0
46	Triplet	37	685	1333	4	0	0	1111673	692	0	correct_rejection	NA	0
46	Triplet	38	686	1334	5	0	0	1112382	692	0	correct_rejection	NA	0
46	Triplet	39	687	1335	0	1	1	1113090	692	1	hit	526	0
46	Triplet	40	688	1336	6	0	0	1113799	692	0	correct_rejection	NA	0
46	Triplet	41	689	1337	7	0	0	1114508	691	0	correct_rejection	NA	0
46	Triplet	42	690	1338	8	0	0	1115216	692	0	correct_rejection	NA	0
46	Triplet	43	691	1339	9	0	0	1115925	691	0	correct_rejection	NA	0
46	Triplet	44	692	1340	7	0	0	1116633	692	0	correct_rejection	NA	0
46	Triplet	45	693	1341	8	0	0	1117342	691	0	correct_rejection	NA	0
46	Triplet	46	694	1342	9	0	0	1118050	692	0	correct_rejection	NA	0
46	Triplet	47	695	1343	9	0	0	1118759	692	0	correct_rejection	NA	0
46	Triplet	48	696	1344	8	0	0	1119467	692	0	correct_rejection	NA	0
46	Triplet	49	697	1345	0	1	1	1120176	692	1	hit	361	0
46	Triplet	50	698	1346	7	0	0	1120885	691	0	correct_rejection	NA	0
46	Triplet	51	699	1347	9	0	0	1121593	692	0	correct_rejection	NA	0
46	Triplet	52	700	1348	8	0	0	1122302	691	0	correct_rejection	NA	0
46	Triplet	53	701	1349	7	0	0	1123010	692	0	correct_rejection	NA	0
46	Triplet	54	702	1350	7	0	0	1123719	692	0	correct_rejection	NA	0
46	Triplet	55	703	1351	0	1	1	1124427	692	1	hit	424	0
46	Triplet	56	704	1352	8	0	0	1125136	692	0	correct_rejection	NA	0
46	Triplet	57	705	1353	9	0	0	1125845	691	0	correct_rejection	NA	0
46	Triplet	58	706	1354	7	0	0	1126553	692	0	correct_rejection	NA	0
46	Triplet	59	707	1355	8	0	0	1127262	691	0	correct_rejection	NA	0
46	Triplet	60	708	1356	0	1	1	1127970	692	1	hit	517	0
46	Triplet	61	709	1357	9	0	0	1128679	692	0	correct_rejection	NA	0
46	Triplet	62	710	1358	6	0	0	1129387	692	0	correct_rejection	NA	0
46	Triplet	63	711	1359	5	0	0	1130096	692	0	correct_rejection	NA	0
46	Triplet	64	712	1360	4	0	0	1130805	691	0	correct_rejection	NA	0
46	Triplet	65	713	1361	6	0	0	1131513	692	0	correct_rejection	NA	0
46	Triplet	66	714	1362	5	0	0	1132222	691	0	correct_rejection	NA	0
46	Triplet	67	715	1363	4	0	0	1132930	692	0	correct_rejection	NA	0
46	Triplet	68	716	1364	0	1	2	1133639	691	1	hit	369	0
46	Triplet	69	717	1365	4	0	0	1134347	692	0	correct_rejection	NA	0
46	Triplet	70	718	1366	5	0	0	1135056	692	0	correct_rejection	NA	0
46	Triplet	71	719	1367	6	0	0	1135765	691	0	correct_rejection	NA	0
46	Triplet	72	720	1368	4	0	0	1136473	692	0	correct_rejection	NA	0
46	Triplet	73	721	1369	5	0	0	1137182	691	0	correct_rejection	NA	0
46	Triplet	74	722	1370	6	0	0	1137890	692	0	correct_rejection	NA	0
46	Triplet	75	723	1371	6	0	0	1138599	691	0	correct_rejection	NA	0
46	Triplet	76	724	1372	5	0	0	1139307	692	0	correct_rejection	NA	0
46	Triplet	77	725	1373	0	1	1	1140016	692	1	hit	385	0
46	Triplet	78	726	1374	4	0	0	1140724	692	0	correct_rejection	NA	0
46	Triplet	79	727	1375	7	0	0	1141433	692	0	correct_rejection	NA	0
46	Triplet	80	728	1376	8	0	0	1142142	691	0	correct_rejection	NA	0
46	Triplet	81	729	1377	9	0	0	1142850	692	0	correct_rejection	NA	0
46	Triplet	82	730	1378	4	0	0	1143559	691	0	correct_rejection	NA	0
46	Triplet	83	731	1379	5	0	0	1144267	692	0	correct_rejection	NA	0
46	Triplet	84	732	1380	6	0	0	1144976	692	0	correct_rejection	NA	0
46	Triplet	85	733	1381	9	0	0	1145684	692	0	correct_rejection	NA	0
46	Triplet	86	734	1382	8	0	0	1146393	692	0	correct_rejection	NA	0
46	Triplet	87	735	1383	7	0	0	1147102	691	0	correct_rejection	NA	0
46	Triplet	88	736	1384	9	0	0	1147810	692	0	correct_rejection	NA	0
46	Triplet	89	737	1385	8	0	0	1148519	691	0	correct_rejection	NA	0
46	Triplet	90	738	1386	7	0	0	1149227	692	0	correct_rejection	NA	0
46	Triplet	91	739	1387	7	0	0	1149936	692	0	correct_rejection	NA	0
46	Triplet	92	740	1388	8	0	0	1150644	692	0	correct_rejection	NA	0
46	Triplet	93	741	1389	9	0	0	1151353	692	0	correct_rejection	NA	0
46	Triplet	94	742	1390	9	0	0	1152062	691	0	correct_rejection	NA	0
46	Triplet	95	743	1391	8	0	0	1152770	692	0	correct_rejection	NA	0
46	Triplet	96	744	1392	7	0	0	1153479	691	0	correct_rejection	NA	0
46	Triplet	97	745	1393	6	0	0	1154187	692	0	correct_rejection	NA	0
46	Triplet	98	746	1394	5	0	0	1154896	691	0	correct_rejection	NA	0
46	Triplet	99	747	1395	4	0	0	1155604	692	0	correct_rejection	NA	0
46	Triplet	100	748	1396	9	0	0	1156313	692	0	correct_rejection	NA	0
46	Triplet	101	749	1397	8	0	0	1157021	692	0	correct_rejection	NA	0
46	Triplet	102	750	1398	0	1	1	1157730	692	1	hit	361	0
46	Triplet	103	751	1399	7	0	0	1158439	691	0	correct_rejection	NA	0
46	Triplet	104	752	1400	4	0	0	1159147	692	0	correct_rejection	NA	0
46	Triplet	105	753	1401	5	0	0	1159856	691	0	correct_rejection	NA	0
46	Triplet	106	754	1402	6	0	0	1160564	692	0	correct_rejection	NA	0
46	Triplet	107	755	1403	7	0	0	1161273	692	0	correct_rejection	NA	0
46	Triplet	108	756	1404	8	0	0	1161981	692	0	correct_rejection	NA	0
46	Triplet	109	757	1405	9	0	0	1162690	692	0	correct_rejection	NA	0
46	Triplet	110	758	1406	0	1	2	1163399	691	1	hit	402	0
46	Triplet	111	759	1407	9	0	0	1164107	692	0	correct_rejection	NA	0
46	Triplet	112	760	1408	8	0	0	1164816	691	0	correct_rejection	NA	0
46	Triplet	113	761	1409	7	0	0	1165524	692	0	correct_rejection	NA	0
46	Triplet	114	762	1410	4	0	0	1166233	692	0	correct_rejection	NA	0
46	Triplet	115	763	1411	5	0	0	1166941	692	0	correct_rejection	NA	0
46	Triplet	116	764	1412	6	0	0	1167650	692	0	correct_rejection	NA	0
46	Triplet	117	765	1413	0	1	2	1168359	691	1	hit	556	0
46	Triplet	118	766	1414	4	0	0	1169067	692	0	correct_rejection	NA	0
46	Triplet	119	767	1415	5	0	0	1169776	691	0	correct_rejection	NA	0
46	Triplet	120	768	1416	6	0	0	1170484	692	0	correct_rejection	NA	0
46	Triplet	121	769	1417	9	0	0	1171193	692	0	correct_rejection	NA	0
46	Triplet	122	770	1418	8	0	0	1171901	692	0	correct_rejection	NA	0
46	Triplet	123	771	1419	0	1	1	1172610	692	1	hit	395	0
46	Triplet	124	772	1420	7	0	0	1173319	691	0	correct_rejection	NA	0
46	Triplet	125	773	1421	7	0	0	1174027	692	0	correct_rejection	NA	0
46	Triplet	126	774	1422	8	0	0	1174736	691	0	correct_rejection	NA	0
46	Triplet	127	775	1423	9	0	0	1175444	692	0	correct_rejection	NA	0
46	Triplet	128	776	1424	0	1	2	1176153	691	1	hit	430	0
46	Triplet	129	777	1425	6	0	0	1176861	692	0	correct_rejection	NA	0
46	Triplet	130	778	1426	5	0	0	1177570	692	0	correct_rejection	NA	0
46	Triplet	131	779	1427	4	0	0	1178278	692	0	correct_rejection	NA	0
46	Triplet	132	780	1428	7	0	0	1178987	692	0	correct_rejection	NA	0
46	Triplet	133	781	1429	8	0	0	1179696	691	0	correct_rejection	NA	0
46	Triplet	134	782	1430	9	0	0	1180404	692	0	correct_rejection	NA	0
46	Triplet	135	783	1431	7	0	0	1181113	691	0	correct_rejection	NA	0
46	Triplet	136	784	1432	8	0	0	1181821	692	0	correct_rejection	NA	0
46	Triplet	137	785	1433	9	0	0	1182530	692	0	correct_rejection	NA	0
46	Triplet	138	786	1434	4	0	0	1183238	692	0	correct_rejection	NA	0
46	Triplet	139	787	1435	0	1	1	1183947	692	1	hit	389	0
46	Triplet	140	788	1436	5	0	0	1184656	691	0	correct_rejection	NA	0
46	Triplet	141	789	1437	6	0	0	1185364	692	0	correct_rejection	NA	0
46	Triplet	142	790	1438	0	1	2	1186073	691	1	hit	420	0
46	Triplet	143	791	1439	6	0	0	1186781	692	0	correct_rejection	NA	0
46	Triplet	144	792	1440	5	0	0	1187490	692	0	correct_rejection	NA	0
46	Triplet	145	793	1441	4	0	0	1188198	692	0	correct_rejection	NA	0
46	Triplet	146	794	1442	6	0	0	1188907	692	0	correct_rejection	NA	0
46	Triplet	147	795	1443	5	0	0	1189616	691	0	correct_rejection	NA	0
46	Triplet	148	796	1444	4	0	0	1190324	692	0	correct_rejection	NA	0
46	Triplet	149	797	1445	0	1	2	1191033	691	1	hit	413	0
46	Triplet	150	798	1446	9	0	0	1191741	692	0	correct_rejection	NA	0
46	Triplet	151	799	1447	8	0	0	1192450	691	0	correct_rejection	NA	0
46	Triplet	152	800	1448	7	0	0	1193158	692	0	correct_rejection	NA	0
46	Triplet	153	801	1449	0	1	2	1193867	692	1	hit	420	0
46	Triplet	154	802	1450	9	0	0	1194575	692	0	correct_rejection	NA	0
46	Triplet	155	803	1451	8	0	0	1195284	692	0	correct_rejection	NA	0
46	Triplet	156	804	1452	7	0	0	1195993	691	0	correct_rejection	NA	0
46	Triplet	157	805	1453	6	0	0	1196701	692	0	correct_rejection	NA	0
46	Triplet	158	806	1454	5	0	0	1197410	691	0	correct_rejection	NA	0
46	Triplet	159	807	1455	4	0	0	1198118	692	0	correct_rejection	NA	0
46	Triplet	160	808	1456	4	0	0	1198827	692	0	correct_rejection	NA	0
46	Triplet	161	809	1457	5	0	0	1199535	692	0	correct_rejection	NA	0
46	Triplet	162	810	1458	6	0	0	1200244	692	0	correct_rejection	NA	0
46	Correct	1	1	1459	4	0	0	1209539	691	0	correct_rejection	NA	7099
46	Correct	2	2	1460	5	0	0	1210247	692	0	correct_rejection	NA	0
46	Correct	3	3	1461	6	0	0	1210956	692	0	correct_rejection	NA	0
46	Correct	4	4	1462	0	1	2	1211664	692	1	hit	512	0
46	Correct	5	5	1463	4	0	0	1212373	692	0	correct_rejection	NA	0
46	Correct	6	6	1464	5	0	0	1213082	691	0	correct_rejection	NA	0
46	Correct	7	7	1465	6	0	0	1213790	692	0	correct_rejection	NA	0
46	Correct	8	8	1466	4	0	0	1214499	691	0	correct_rejection	NA	0
46	Correct	9	9	1467	5	0	0	1215207	692	0	correct_rejection	NA	0
46	Correct	10	10	1468	6	0	0	1215916	692	0	correct_rejection	NA	0
46	Correct	11	11	1469	0	1	3	1216624	692	0	miss	NA	0
46	Correct	12	12	1470	6	0	0	1217333	692	1	false_alarm	148	0
46	Correct	13	13	1471	5	0	0	1218042	691	0	correct_rejection	NA	0
46	Correct	14	14	1472	4	0	0	1218750	692	0	correct_rejection	NA	0
46	Correct	15	15	1473	6	0	0	1219459	691	0	correct_rejection	NA	0
46	Correct	16	16	1474	0	1	1	1220167	692	1	hit	356	0
46	Correct	17	17	1475	5	0	0	1220876	692	0	correct_rejection	NA	0
46	Correct	18	18	1476	4	0	0	1221584	692	0	correct_rejection	NA	0
46	Correct	19	19	1477	6	0	0	1222293	692	0	correct_rejection	NA	0
46	Correct	20	20	1478	5	0	0	1223002	691	0	correct_rejection	NA	0
46	Correct	21	21	1479	4	0	0	1223710	692	0	correct_rejection	NA	0
46	Correct	22	22	1480	9	0	0	1224419	691	0	correct_rejection	NA	0
46	Correct	23	23	1481	8	0	0	1225127	692	0	correct_rejection	NA	0
46	Correct	24	24	1482	7	0	0	1225836	691	0	correct_rejection	NA	0
46	Correct	25	25	1483	9	0	0	1226544	692	0	correct_rejection	NA	0
46	Correct	26	26	1484	8	0	0	1227253	692	0	correct_rejection	NA	0
46	Correct	27	27	1485	7	0	0	1227961	692	0	correct_rejection	NA	0
46	Correct	28	28	1486	0	1	2	1228670	692	1	hit	455	0
46	Correct	29	29	1487	9	0	0	1229379	691	0	correct_rejection	NA	0
46	Correct	30	30	1488	8	0	0	1230087	692	0	correct_rejection	NA	0
46	Correct	31	31	1489	7	0	0	1230796	691	0	correct_rejection	NA	0
46	Correct	32	32	1490	7	0	0	1231504	692	0	correct_rejection	NA	0
46	Correct	33	33	1491	8	0	0	1232213	692	0	correct_rejection	NA	0
46	Correct	34	34	1492	9	0	0	1232921	692	0	correct_rejection	NA	0
46	Correct	35	35	1493	7	0	0	1233630	692	0	correct_rejection	NA	0
46	Correct	36	36	1494	8	0	0	1234339	691	0	correct_rejection	NA	0
46	Correct	37	37	1495	9	0	0	1235047	692	0	correct_rejection	NA	0
46	Correct	38	38	1496	7	0	0	1235756	691	0	correct_rejection	NA	0
46	Correct	39	39	1497	8	0	0	1236464	692	0	correct_rejection	NA	0
46	Correct	40	40	1498	9	0	0	1237173	692	0	correct_rejection	NA	0
46	Correct	41	41	1499	0	1	4	1237881	692	1	hit	470	0
46	Correct	42	42	1500	4	0	0	1238590	692	0	correct_rejection	NA	0
46	Correct	43	43	1501	5	0	0	1239299	691	0	correct_rejection	NA	0
46	Correct	44	44	1502	0	1	1	1240007	692	1	hit	384	0
46	Correct	45	45	1503	6	0	0	1240716	691	0	correct_rejection	NA	0
46	Correct	46	46	1504	4	0	0	1241424	692	0	correct_rejection	NA	0
46	Correct	47	47	1505	5	0	0	1242133	691	0	correct_rejection	NA	0
46	Correct	48	48	1506	6	0	0	1242841	692	0	correct_rejection	NA	0
46	Correct	49	49	1507	4	0	0	1243550	692	0	correct_rejection	NA	0
46	Correct	50	50	1508	5	0	0	1244259	691	0	correct_rejection	NA	0
46	Correct	51	51	1509	6	0	0	1244967	692	0	correct_rejection	NA	0
46	Correct	52	52	1510	6	0	0	1245676	691	0	correct_rejection	NA	0
46	Correct	53	53	1511	5	0	0	1246384	692	0	correct_rejection	NA	0
46	Correct	54	54	1512	4	0	0	1247093	691	0	correct_rejection	NA	0
46	Correct	55	55	1513	6	0	0	1247801	692	0	correct_rejection	NA	0
46	Correct	56	56	1514	5	0	0	1248510	692	0	correct_rejection	NA	0
46	Correct	57	57	1515	4	0	0	1249218	692	0	correct_rejection	NA	0
46	Correct	58	58	1516	6	0	0	1249927	692	0	correct_rejection	NA	0
46	Correct	59	59	1517	5	0	0	1250636	691	0	correct_rejection	NA	0
46	Correct	60	60	1518	4	0	0	1251344	692	0	correct_rejection	NA	0
46	Correct	61	61	1519	9	0	0	1252053	691	0	correct_rejection	NA	0
46	Correct	62	62	1520	8	0	0	1252761	692	0	correct_rejection	NA	0
46	Correct	63	63	1521	7	0	0	1253470	692	0	correct_rejection	NA	0
46	Correct	64	64	1522	9	0	0	1254178	692	0	correct_rejection	NA	0
46	Correct	65	65	1523	8	0	0	1254887	692	0	correct_rejection	NA	0
46	Correct	66	66	1524	7	0	0	1255596	691	0	correct_rejection	NA	0
46	Correct	67	67	1525	9	0	0	1256304	692	0	correct_rejection	NA	0
46	Correct	68	68	1526	8	0	0	1257013	691	0	correct_rejection	NA	0
46	Correct	69	69	1527	7	0	0	1257721	692	0	correct_rejection	NA	0
46	Correct	70	70	1528	7	0	0	1258430	692	0	correct_rejection	NA	0
46	Correct	71	71	1529	8	0	0	1259138	692	0	correct_rejection	NA	0
46	Correct	72	72	1530	9	0	0	1259847	692	0	correct_rejection	NA	0
46	Correct	73	73	1531	7	0	0	1260556	691	0	correct_rejection	NA	0
46	Correct	74	74	1532	8	0	0	1261264	692	0	correct_rejection	NA	0
46	Correct	75	75	1533	9	0	0	1261973	691	0	correct_rejection	NA	0
46	Correct	76	76	1534	7	0	0	1262681	692	0	correct_rejection	NA	0
46	Correct	77	77	1535	8	0	0	1263390	691	0	correct_rejection	NA	0
46	Correct	78	78	1536	9	0	0	1264098	692	0	correct_rejection	NA	0
46	Correct	79	79	1537	4	0	0	1264807	692	0	correct_rejection	NA	0
46	Correct	80	80	1538	0	1	1	1265515	692	1	hit	494	0
46	Correct	81	81	1539	5	0	0	1266224	692	0	correct_rejection	NA	0
46	Correct	82	82	1540	6	0	0	1266933	691	0	correct_rejection	NA	0
46	Correct	83	83	1541	4	0	0	1267641	692	0	correct_rejection	NA	0
46	Correct	84	84	1542	5	0	0	1268350	691	0	correct_rejection	NA	0
46	Correct	85	85	1543	6	0	0	1269058	692	0	correct_rejection	NA	0
46	Correct	86	86	1544	4	0	0	1269767	692	0	correct_rejection	NA	0
46	Correct	87	87	1545	0	1	1	1270475	692	1	hit	446	0
46	Correct	88	88	1546	5	0	0	1271184	692	0	correct_rejection	NA	0
46	Correct	89	89	1547	6	0	0	1271893	691	0	correct_rejection	NA	0
46	Correct	90	90	1548	6	0	0	1272601	692	0	correct_rejection	NA	0
46	Correct	91	91	1549	5	0	0	1273310	691	0	correct_rejection	NA	0
46	Correct	92	92	1550	0	1	1	1274018	692	1	hit	346	0
46	Correct	93	93	1551	4	0	0	1274727	692	0	correct_rejection	NA	0
46	Correct	94	94	1552	6	0	0	1275435	692	0	correct_rejection	NA	0
46	Correct	95	95	1553	5	0	0	1276144	692	0	correct_rejection	NA	0
46	Correct	96	96	1554	0	1	1	1276853	691	1	hit	354	0
46	Correct	97	97	1555	4	0	0	1277561	692	0	correct_rejection	NA	0
46	Correct	98	98	1556	6	0	0	1278270	691	0	correct_rejection	NA	0
46	Correct	99	99	1557	5	0	0	1278978	692	0	correct_rejection	NA	0
46	Correct	100	100	1558	4	0	0	1279687	692	0	correct_rejection	NA	0
46	Correct	101	101	1559	9	0	0	1280395	692	0	correct_rejection	NA	0
46	Correct	102	102	1560	0	1	1	1281104	692	1	hit	414	0
46	Correct	103	103	1561	8	0	0	1281813	691	0	correct_rejection	NA	0
46	Correct	104	104	1562	7	0	0	1282521	692	0	correct_rejection	NA	0
46	Correct	105	105	1563	9	0	0	1283230	691	0	correct_rejection	NA	0
46	Correct	106	106	1564	8	0	0	1283938	692	0	correct_rejection	NA	0
46	Correct	107	107	1565	7	0	0	1284647	691	0	correct_rejection	NA	0
46	Correct	108	108	1566	9	0	0	1285355	692	0	correct_rejection	NA	0
46	Correct	109	109	1567	8	0	0	1286064	692	0	correct_rejection	NA	0
46	Correct	110	110	1568	0	1	1	1286772	692	1	hit	470	0
46	Correct	111	111	1569	7	0	0	1287481	692	0	correct_rejection	NA	0
46	Correct	112	112	1570	7	0	0	1288190	691	0	correct_rejection	NA	0
46	Correct	113	113	1571	8	0	0	1288898	692	0	correct_rejection	NA	0
46	Correct	114	114	1572	9	0	0	1289607	691	0	correct_rejection	NA	0
46	Correct	115	115	1573	7	0	0	1290315	692	0	correct_rejection	NA	0
46	Correct	116	116	1574	8	0	0	1291024	692	0	correct_rejection	NA	0
46	Correct	117	117	1575	9	0	0	1291732	692	0	correct_rejection	NA	0
46	Correct	118	118	1576	7	0	0	1292441	692	0	correct_rejection	NA	0
46	Correct	119	119	1577	8	0	0	1293150	691	0	correct_rejection	NA	0
46	Correct	120	120	1578	0	1	1	1293858	692	1	hit	583	0
46	Correct	121	121	1579	9	0	0	1294567	691	0	correct_rejection	NA	0
46	Correct	122	122	1580	4	0	0	1295275	692	0	correct_rejection	NA	0
46	Correct	123	123	1581	5	0	0	1295984	692	0	correct_rejection	NA	0
46	Correct	124	124	1582	6	0	0	1296692	692	0	correct_rejection	NA	0
46	Correct	125	125	1583	4	0	0	1297401	692	0	correct_rejection	NA	0
46	Correct	126	126	1584	5	0	0	1298110	691	0	correct_rejection	NA	0
46	Correct	127	127	1585	6	0	0	1298818	692	0	correct_rejection	NA	0
46	Correct	128	128	1586	4	0	0	1299527	691	0	correct_rejection	NA	0
46	Correct	129	129	1587	5	0	0	1300235	692	0	correct_rejection	NA	0
46	Correct	130	130	1588	0	1	1	1300944	691	0	miss	NA	0
46	Correct	131	131	1589	6	0	0	1301652	692	0	correct_rejection	NA	0
46	Correct	132	132	1590	6	0	0	1302361	692	0	correct_rejection	NA	0
46	Correct	133	133	1591	0	1	1	1303069	692	1	hit	339	0
46	Correct	134	134	1592	5	0	0	1303778	692	0	correct_rejection	NA	0
46	Correct	135	135	1593	4	0	0	1304487	691	0	correct_rejection	NA	0
