ID	block	trial_block	trial_cat	trial_total	number	violation	level_violation	onset	duration	Response	Hit_Miss	RT	pre_trial_fixcross_ISI
first_trigger_at: 11059
trigger nr 5 at 15059
47	Nonet	1	487	1	7	0	0	22715	692	0	correct_rejection	NA	7618
47	Nonet	2	488	2	8	0	0	23424	692	0	correct_rejection	NA	0
47	Nonet	3	489	3	9	0	0	24132	692	0	correct_rejection	NA	0
47	Nonet	4	490	4	0	1	2	24841	692	1	hit	389	0
47	Nonet	5	491	5	7	0	0	25550	691	0	correct_rejection	NA	0
47	Nonet	6	492	6	8	0	0	26258	692	0	correct_rejection	NA	0
47	Nonet	7	493	7	9	0	0	26967	691	0	correct_rejection	NA	0
47	Nonet	8	494	8	7	0	0	27675	692	0	correct_rejection	NA	0
47	Nonet	9	495	9	8	0	0	28384	692	0	correct_rejection	NA	0
47	Nonet	10	496	10	9	0	0	29092	692	0	correct_rejection	NA	0
47	Nonet	11	497	11	7	0	0	29801	692	0	correct_rejection	NA	0
47	Nonet	12	498	12	8	0	0	30510	691	0	correct_rejection	NA	0
47	Nonet	13	499	13	0	1	1	31218	692	1	hit	406	0
47	Nonet	14	500	14	9	0	0	31927	691	0	correct_rejection	NA	0
47	Nonet	15	501	15	7	0	0	32635	692	0	correct_rejection	NA	0
47	Nonet	16	502	16	0	1	1	33344	692	1	hit	551	0
47	Nonet	17	503	17	8	0	0	34052	692	0	correct_rejection	NA	0
47	Nonet	18	504	18	9	0	0	34761	692	0	correct_rejection	NA	0
47	Nonet	19	505	19	7	0	0	35470	691	0	correct_rejection	NA	0
47	Nonet	20	506	20	8	0	0	36178	692	0	correct_rejection	NA	0
47	Nonet	21	507	21	9	0	0	36887	691	0	correct_rejection	NA	0
47	Nonet	22	508	22	9	0	0	37595	692	0	correct_rejection	NA	0
47	Nonet	23	509	23	8	0	0	38304	691	0	correct_rejection	NA	0
47	Nonet	24	510	24	7	0	0	39012	692	0	correct_rejection	NA	0
47	Nonet	25	511	25	9	0	0	39721	692	0	correct_rejection	NA	0
47	Nonet	26	512	26	8	0	0	40430	691	0	correct_rejection	NA	0
47	Nonet	27	513	27	7	0	0	41138	692	0	correct_rejection	NA	0
47	Nonet	28	514	28	9	0	0	41847	691	0	correct_rejection	NA	0
47	Nonet	29	515	29	0	1	1	42555	692	1	hit	333	0
47	Nonet	30	516	30	8	0	0	43264	691	0	correct_rejection	NA	0
47	Nonet	31	517	31	7	0	0	43972	692	0	correct_rejection	NA	0
47	Nonet	32	518	32	9	0	0	44681	692	0	correct_rejection	NA	0
47	Nonet	33	519	33	8	0	0	45389	692	0	correct_rejection	NA	0
47	Nonet	34	520	34	7	0	0	46098	692	0	correct_rejection	NA	0
47	Nonet	35	521	35	9	0	0	46807	691	0	correct_rejection	NA	0
47	Nonet	36	522	36	0	1	1	47515	692	1	hit	377	0
47	Nonet	37	523	37	8	0	0	48224	691	0	correct_rejection	NA	0
47	Nonet	38	524	38	7	0	0	48932	692	0	correct_rejection	NA	0
47	Nonet	39	525	39	9	0	0	49641	692	0	correct_rejection	NA	0
47	Nonet	40	526	40	8	0	0	50349	692	0	correct_rejection	NA	0
47	Nonet	41	527	41	7	0	0	51058	692	0	correct_rejection	NA	0
47	Nonet	42	528	42	4	0	0	51767	691	0	correct_rejection	NA	0
47	Nonet	43	529	43	5	0	0	52475	692	0	correct_rejection	NA	0
47	Nonet	44	530	44	6	0	0	53184	691	0	correct_rejection	NA	0
47	Nonet	45	531	45	4	0	0	53892	692	0	correct_rejection	NA	0
47	Nonet	46	532	46	5	0	0	54601	692	0	correct_rejection	NA	0
47	Nonet	47	533	47	0	1	1	55309	692	1	hit	336	0
47	Nonet	48	534	48	6	0	0	56018	692	0	correct_rejection	NA	0
47	Nonet	49	535	49	4	0	0	56727	691	0	correct_rejection	NA	0
47	Nonet	50	536	50	5	0	0	57435	692	0	correct_rejection	NA	0
47	Nonet	51	537	51	6	0	0	58144	691	0	correct_rejection	NA	0
47	Nonet	52	538	52	6	0	0	58852	692	0	correct_rejection	NA	0
47	Nonet	53	539	53	5	0	0	59561	692	0	correct_rejection	NA	0
47	Nonet	54	540	54	4	0	0	60269	692	0	correct_rejection	NA	0
47	Nonet	55	541	55	6	0	0	60978	692	0	correct_rejection	NA	0
47	Nonet	56	542	56	5	0	0	61687	691	0	correct_rejection	NA	0
47	Nonet	57	543	57	4	0	0	62395	692	0	correct_rejection	NA	0
47	Nonet	58	544	58	6	0	0	63104	691	0	correct_rejection	NA	0
47	Nonet	59	545	59	5	0	0	63812	692	0	correct_rejection	NA	0
47	Nonet	60	546	60	4	0	0	64521	691	0	correct_rejection	NA	0
47	Nonet	61	547	61	4	0	0	65229	692	0	correct_rejection	NA	0
47	Nonet	62	548	62	5	0	0	65938	692	0	correct_rejection	NA	0
47	Nonet	63	549	63	6	0	0	66647	691	0	correct_rejection	NA	0
47	Nonet	64	550	64	4	0	0	67355	692	0	correct_rejection	NA	0
47	Nonet	65	551	65	5	0	0	68064	691	0	correct_rejection	NA	0
47	Nonet	66	552	66	6	0	0	68772	692	0	correct_rejection	NA	0
47	Nonet	67	553	67	0	1	2	69481	691	1	hit	397	0
47	Nonet	68	554	68	4	0	0	70189	692	0	correct_rejection	NA	0
47	Nonet	69	555	69	5	0	0	70898	692	0	correct_rejection	NA	0
47	Nonet	70	556	70	6	0	0	71606	692	0	correct_rejection	NA	0
47	Nonet	71	557	71	7	0	0	72315	692	0	correct_rejection	NA	0
47	Nonet	72	558	72	8	0	0	73024	691	0	correct_rejection	NA	0
47	Nonet	73	559	73	9	0	0	73732	692	0	correct_rejection	NA	0
47	Nonet	74	560	74	7	0	0	74441	691	0	correct_rejection	NA	0
47	Nonet	75	561	75	8	0	0	75149	692	0	correct_rejection	NA	0
47	Nonet	76	562	76	9	0	0	75858	692	0	correct_rejection	NA	0
47	Nonet	77	563	77	7	0	0	76566	692	0	correct_rejection	NA	0
47	Nonet	78	564	78	8	0	0	77275	692	0	correct_rejection	NA	0
47	Nonet	79	565	79	9	0	0	77984	691	0	correct_rejection	NA	0
47	Nonet	80	566	80	6	0	0	78692	692	0	correct_rejection	NA	0
47	Nonet	81	567	81	5	0	0	79401	691	0	correct_rejection	NA	0
47	Nonet	82	568	82	0	1	1	80109	692	1	hit	367	0
47	Nonet	83	569	83	4	0	0	80818	692	0	correct_rejection	NA	0
47	Nonet	84	570	84	6	0	0	81526	692	0	correct_rejection	NA	0
47	Nonet	85	571	85	5	0	0	82235	692	0	correct_rejection	NA	0
47	Nonet	86	572	86	4	0	0	82944	691	0	correct_rejection	NA	0
47	Nonet	87	573	87	0	1	2	83652	692	1	hit	571	0
47	Nonet	88	574	88	6	0	0	84361	691	0	correct_rejection	NA	0
47	Nonet	89	575	89	5	0	0	85069	692	0	correct_rejection	NA	0
47	Nonet	90	576	90	4	0	0	85778	692	0	correct_rejection	NA	0
47	Nonet	91	577	91	9	0	0	86486	692	0	correct_rejection	NA	0
47	Nonet	92	578	92	8	0	0	87195	692	0	correct_rejection	NA	0
47	Nonet	93	579	93	7	0	0	87904	691	0	correct_rejection	NA	0
47	Nonet	94	580	94	9	0	0	88612	692	0	correct_rejection	NA	0
47	Nonet	95	581	95	8	0	0	89321	691	0	correct_rejection	NA	0
47	Nonet	96	582	96	7	0	0	90029	692	0	correct_rejection	NA	0
47	Nonet	97	583	97	0	1	2	90738	692	1	hit	406	0
47	Nonet	98	584	98	9	0	0	91446	692	0	correct_rejection	NA	0
47	Nonet	99	585	99	8	0	0	92155	692	0	correct_rejection	NA	0
47	Nonet	100	586	100	7	0	0	92864	691	0	correct_rejection	NA	0
47	Nonet	101	587	101	6	0	0	93572	692	0	correct_rejection	NA	0
47	Nonet	102	588	102	5	0	0	94281	691	0	correct_rejection	NA	0
47	Nonet	103	589	103	0	1	1	94989	692	1	hit	375	0
47	Nonet	104	590	104	4	0	0	95698	691	0	correct_rejection	NA	0
47	Nonet	105	591	105	6	0	0	96406	692	0	correct_rejection	NA	0
47	Nonet	106	592	106	5	0	0	97115	692	0	correct_rejection	NA	0
47	Nonet	107	593	107	4	0	0	97823	692	0	correct_rejection	NA	0
47	Nonet	108	594	108	6	0	0	98532	692	0	correct_rejection	NA	0
47	Nonet	109	595	109	5	0	0	99241	691	0	correct_rejection	NA	0
47	Nonet	110	596	110	4	0	0	99949	692	0	correct_rejection	NA	0
47	Nonet	111	597	111	6	0	0	100658	691	0	correct_rejection	NA	0
47	Nonet	112	598	112	5	0	0	101366	692	0	correct_rejection	NA	0
47	Nonet	113	599	113	4	0	0	102075	692	0	correct_rejection	NA	0
47	Nonet	114	600	114	6	0	0	102783	692	0	correct_rejection	NA	0
47	Nonet	115	601	115	5	0	0	103492	692	0	correct_rejection	NA	0
47	Nonet	116	602	116	4	0	0	104201	691	0	correct_rejection	NA	0
47	Nonet	117	603	117	6	0	0	104909	692	0	correct_rejection	NA	0
47	Nonet	118	604	118	0	1	1	105618	691	1	hit	406	0
47	Nonet	119	605	119	5	0	0	106326	692	0	correct_rejection	NA	0
47	Nonet	120	606	120	4	0	0	107035	692	0	correct_rejection	NA	0
47	Nonet	121	607	121	7	0	0	107743	692	0	correct_rejection	NA	0
47	Nonet	122	608	122	8	0	0	108452	692	0	correct_rejection	NA	0
47	Nonet	123	609	123	0	1	1	109161	691	1	hit	335	0
47	Nonet	124	610	124	9	0	0	109869	692	0	correct_rejection	NA	0
47	Nonet	125	611	125	7	0	0	110578	691	0	correct_rejection	NA	0
47	Nonet	126	612	126	0	1	1	111286	692	1	hit	356	0
47	Nonet	127	613	127	8	0	0	111995	692	0	correct_rejection	NA	0
47	Nonet	128	614	128	9	0	0	112703	692	0	correct_rejection	NA	0
47	Nonet	129	615	129	0	1	2	113412	692	1	hit	382	0
47	Nonet	130	616	130	7	0	0	114121	691	0	correct_rejection	NA	0
47	Nonet	131	617	131	8	0	0	114829	692	0	correct_rejection	NA	0
47	Nonet	132	618	132	9	0	0	115538	691	0	correct_rejection	NA	0
47	Nonet	133	619	133	4	0	0	116246	692	0	correct_rejection	NA	0
47	Nonet	134	620	134	5	0	0	116955	692	0	correct_rejection	NA	0
47	Nonet	135	621	135	6	0	0	117663	692	0	correct_rejection	NA	0
47	Nonet	136	622	136	4	0	0	118372	692	0	correct_rejection	NA	0
47	Nonet	137	623	137	5	0	0	119081	691	0	correct_rejection	NA	0
47	Nonet	138	624	138	6	0	0	119789	692	0	correct_rejection	NA	0
47	Nonet	139	625	139	4	0	0	120498	691	0	correct_rejection	NA	0
47	Nonet	140	626	140	5	0	0	121206	692	0	correct_rejection	NA	0
47	Nonet	141	627	141	6	0	0	121915	691	0	correct_rejection	NA	0
47	Nonet	142	628	142	4	0	0	122623	692	0	correct_rejection	NA	0
47	Nonet	143	629	143	5	0	0	123332	692	0	correct_rejection	NA	0
47	Nonet	144	630	144	6	0	0	124040	692	0	correct_rejection	NA	0
47	Nonet	145	631	145	4	0	0	124749	692	0	correct_rejection	NA	0
47	Nonet	146	632	146	0	1	1	125458	691	1	hit	473	0
47	Nonet	147	633	147	5	0	0	126166	692	0	correct_rejection	NA	0
47	Nonet	148	634	148	6	0	0	126875	691	0	correct_rejection	NA	0
47	Nonet	149	635	149	0	1	2	127583	692	1	hit	370	0
47	Nonet	150	636	150	4	0	0	128292	692	0	correct_rejection	NA	0
47	Nonet	151	637	151	5	0	0	129000	692	0	correct_rejection	NA	0
47	Nonet	152	638	152	6	0	0	129709	692	0	correct_rejection	NA	0
47	Nonet	153	639	153	9	0	0	130418	691	0	correct_rejection	NA	0
47	Nonet	154	640	154	8	0	0	131126	692	0	correct_rejection	NA	0
47	Nonet	155	641	155	7	0	0	131835	691	0	correct_rejection	NA	0
47	Nonet	156	642	156	9	0	0	132543	692	0	correct_rejection	NA	0
47	Nonet	157	643	157	8	0	0	133252	692	0	correct_rejection	NA	0
47	Nonet	158	644	158	7	0	0	133960	692	0	correct_rejection	NA	0
47	Nonet	159	645	159	9	0	0	134669	692	0	correct_rejection	NA	0
47	Nonet	160	646	160	8	0	0	135378	691	0	correct_rejection	NA	0
47	Nonet	161	647	161	0	1	1	136086	692	1	hit	654	0
47	Nonet	162	648	162	7	0	0	136795	691	0	correct_rejection	NA	0
47	Triplet	1	325	163	6	0	0	145473	691	0	correct_rejection	NA	6379
47	Triplet	2	326	164	5	0	0	146181	692	0	correct_rejection	NA	0
47	Triplet	3	327	165	4	0	0	146890	691	0	correct_rejection	NA	0
47	Triplet	4	328	166	6	0	0	147598	692	0	correct_rejection	NA	0
47	Triplet	5	329	167	5	0	0	148307	692	0	correct_rejection	NA	0
47	Triplet	6	330	168	4	0	0	149015	692	0	correct_rejection	NA	0
47	Triplet	7	331	169	9	0	0	149724	692	0	correct_rejection	NA	0
47	Triplet	8	332	170	8	0	0	150433	691	0	correct_rejection	NA	0
47	Triplet	9	333	171	7	0	0	151141	692	0	correct_rejection	NA	0
47	Triplet	10	334	172	9	0	0	151850	691	0	correct_rejection	NA	0
47	Triplet	11	335	173	8	0	0	152558	692	0	correct_rejection	NA	0
47	Triplet	12	336	174	7	0	0	153267	692	0	correct_rejection	NA	0
47	Triplet	13	337	175	7	0	0	153975	692	0	correct_rejection	NA	0
47	Triplet	14	338	176	0	1	1	154684	692	1	hit	330	0
47	Triplet	15	339	177	8	0	0	155393	691	0	correct_rejection	NA	0
47	Triplet	16	340	178	9	0	0	156101	692	0	correct_rejection	NA	0
47	Triplet	17	341	179	9	0	0	156810	691	0	correct_rejection	NA	0
47	Triplet	18	342	180	8	0	0	157518	692	0	correct_rejection	NA	0
47	Triplet	19	343	181	7	0	0	158227	691	0	correct_rejection	NA	0
47	Triplet	20	344	182	6	0	0	158935	692	0	correct_rejection	NA	0
47	Triplet	21	345	183	5	0	0	159644	692	0	correct_rejection	NA	0
47	Triplet	22	346	184	4	0	0	160352	692	0	correct_rejection	NA	0
47	Triplet	23	347	185	7	0	0	161061	692	0	correct_rejection	NA	0
47	Triplet	24	348	186	8	0	0	161770	691	0	correct_rejection	NA	0
47	Triplet	25	349	187	9	0	0	162478	692	0	correct_rejection	NA	0
47	Triplet	26	350	188	4	0	0	163187	691	0	correct_rejection	NA	0
47	Triplet	27	351	189	5	0	0	163895	692	0	correct_rejection	NA	0
47	Triplet	28	352	190	6	0	0	164604	692	0	correct_rejection	NA	0
47	Triplet	29	353	191	6	0	0	165312	692	0	correct_rejection	NA	0
47	Triplet	30	354	192	0	1	1	166021	692	1	hit	573	0
47	Triplet	31	355	193	5	0	0	166730	691	0	correct_rejection	NA	0
47	Triplet	32	356	194	4	0	0	167438	692	0	correct_rejection	NA	0
47	Triplet	33	357	195	4	0	0	168147	691	0	correct_rejection	NA	0
47	Triplet	34	358	196	5	0	0	168855	692	0	correct_rejection	NA	0
47	Triplet	35	359	197	6	0	0	169564	692	0	correct_rejection	NA	0
47	Triplet	36	360	198	9	0	0	170272	692	0	correct_rejection	NA	0
47	Triplet	37	361	199	8	0	0	170981	692	0	correct_rejection	NA	0
47	Triplet	38	362	200	7	0	0	171690	691	0	correct_rejection	NA	0
47	Triplet	39	363	201	4	0	0	172398	692	0	correct_rejection	NA	0
47	Triplet	40	364	202	5	0	0	173107	691	0	correct_rejection	NA	0
47	Triplet	41	365	203	6	0	0	173815	692	0	correct_rejection	NA	0
47	Triplet	42	366	204	4	0	0	174524	692	0	correct_rejection	NA	0
47	Triplet	43	367	205	0	1	1	175232	692	1	hit	384	0
47	Triplet	44	368	206	5	0	0	175941	692	0	correct_rejection	NA	0
47	Triplet	45	369	207	6	0	0	176650	691	0	correct_rejection	NA	0
47	Triplet	46	370	208	7	0	0	177358	692	0	correct_rejection	NA	0
47	Triplet	47	371	209	8	0	0	178067	691	0	correct_rejection	NA	0
47	Triplet	48	372	210	9	0	0	178775	692	0	correct_rejection	NA	0
47	Triplet	49	373	211	7	0	0	179484	692	0	correct_rejection	NA	0
47	Triplet	50	374	212	8	0	0	180192	692	0	correct_rejection	NA	0
47	Triplet	51	375	213	9	0	0	180901	692	0	correct_rejection	NA	0
47	Triplet	52	376	214	0	1	2	181610	691	1	hit	349	0
47	Triplet	53	377	215	6	0	0	182318	692	0	correct_rejection	NA	0
47	Triplet	54	378	216	5	0	0	183027	691	0	correct_rejection	NA	0
47	Triplet	55	379	217	4	0	0	183735	692	0	correct_rejection	NA	0
47	Triplet	56	380	218	0	1	2	184444	691	1	hit	439	0
47	Triplet	57	381	219	7	0	0	185152	692	0	correct_rejection	NA	0
47	Triplet	58	382	220	8	0	0	185861	692	0	correct_rejection	NA	0
47	Triplet	59	383	221	9	0	0	186569	692	0	correct_rejection	NA	0
47	Triplet	60	384	222	9	0	0	187278	692	0	correct_rejection	NA	0
47	Triplet	61	385	223	8	0	0	187987	691	0	correct_rejection	NA	0
47	Triplet	62	386	224	7	0	0	188695	692	0	correct_rejection	NA	0
47	Triplet	63	387	225	4	0	0	189404	691	0	correct_rejection	NA	0
47	Triplet	64	388	226	5	0	0	190112	692	0	correct_rejection	NA	0
47	Triplet	65	389	227	6	0	0	190821	692	0	correct_rejection	NA	0
47	Triplet	66	390	228	7	0	0	191529	692	0	correct_rejection	NA	0
47	Triplet	67	391	229	8	0	0	192238	692	0	correct_rejection	NA	0
47	Triplet	68	392	230	0	1	1	192947	691	1	hit	351	0
47	Triplet	69	393	231	9	0	0	193655	692	0	correct_rejection	NA	0
47	Triplet	70	394	232	4	0	0	194364	691	0	correct_rejection	NA	0
47	Triplet	71	395	233	5	0	0	195072	692	0	correct_rejection	NA	0
47	Triplet	72	396	234	0	1	1	195781	692	1	hit	464	0
47	Triplet	73	397	235	6	0	0	196489	692	0	correct_rejection	NA	0
47	Triplet	74	398	236	4	0	0	197198	692	0	correct_rejection	NA	0
47	Triplet	75	399	237	0	1	1	197907	691	1	hit	370	0
47	Triplet	76	400	238	5	0	0	198615	692	0	correct_rejection	NA	0
47	Triplet	77	401	239	6	0	0	199324	691	0	correct_rejection	NA	0
47	Triplet	78	402	240	9	0	0	200032	692	0	correct_rejection	NA	0
47	Triplet	79	403	241	0	1	1	200741	692	1	hit	434	0
47	Triplet	80	404	242	8	0	0	201449	692	0	correct_rejection	NA	0
47	Triplet	81	405	243	7	0	0	202158	692	0	correct_rejection	NA	0
47	Triplet	82	406	244	9	0	0	202867	691	0	correct_rejection	NA	0
47	Triplet	83	407	245	8	0	0	203575	692	0	correct_rejection	NA	0
47	Triplet	84	408	246	7	0	0	204284	691	0	correct_rejection	NA	0
47	Triplet	85	409	247	6	0	0	204992	692	0	correct_rejection	NA	0
47	Triplet	86	410	248	5	0	0	205701	692	0	correct_rejection	NA	0
47	Triplet	87	411	249	4	0	0	206409	692	0	correct_rejection	NA	0
47	Triplet	88	412	250	4	0	0	207118	692	0	correct_rejection	NA	0
47	Triplet	89	413	251	5	0	0	207827	691	0	correct_rejection	NA	0
47	Triplet	90	414	252	6	0	0	208535	692	0	correct_rejection	NA	0
47	Triplet	91	415	253	6	0	0	209244	691	0	correct_rejection	NA	0
47	Triplet	92	416	254	5	0	0	209952	692	0	correct_rejection	NA	0
47	Triplet	93	417	255	4	0	0	210661	691	0	correct_rejection	NA	0
47	Triplet	94	418	256	9	0	0	211369	692	0	correct_rejection	NA	0
47	Triplet	95	419	257	8	0	0	212078	692	0	correct_rejection	NA	0
47	Triplet	96	420	258	7	0	0	212786	692	0	correct_rejection	NA	0
47	Triplet	97	421	259	0	1	2	213495	692	0	miss	NA	0
47	Triplet	98	422	260	7	0	0	214204	691	0	correct_rejection	NA	0
47	Triplet	99	423	261	8	0	0	214912	692	0	correct_rejection	NA	0
47	Triplet	100	424	262	9	0	0	215621	691	0	correct_rejection	NA	0
47	Triplet	101	425	263	7	0	0	216329	692	0	correct_rejection	NA	0
47	Triplet	102	426	264	8	0	0	217038	692	0	correct_rejection	NA	0
47	Triplet	103	427	265	9	0	0	217746	692	0	correct_rejection	NA	0
47	Triplet	104	428	266	6	0	0	218455	692	0	correct_rejection	NA	0
47	Triplet	105	429	267	5	0	0	219164	691	0	correct_rejection	NA	0
47	Triplet	106	430	268	4	0	0	219872	692	0	correct_rejection	NA	0
47	Triplet	107	431	269	0	1	2	220581	691	1	hit	394	0
47	Triplet	108	432	270	6	0	0	221289	692	0	correct_rejection	NA	0
47	Triplet	109	433	271	5	0	0	221998	692	0	correct_rejection	NA	0
47	Triplet	110	434	272	0	1	1	222706	692	1	hit	434	0
47	Triplet	111	435	273	4	0	0	223415	692	0	correct_rejection	NA	0
47	Triplet	112	436	274	9	0	0	224124	691	0	correct_rejection	NA	0
47	Triplet	113	437	275	8	0	0	224832	692	0	correct_rejection	NA	0
47	Triplet	114	438	276	7	0	0	225541	691	0	correct_rejection	NA	0
47	Triplet	115	439	277	4	0	0	226249	692	0	correct_rejection	NA	0
47	Triplet	116	440	278	5	0	0	226958	692	0	correct_rejection	NA	0
47	Triplet	117	441	279	6	0	0	227666	692	0	correct_rejection	NA	0
47	Triplet	118	442	280	9	0	0	228375	692	0	correct_rejection	NA	0
47	Triplet	119	443	281	8	0	0	229084	691	0	correct_rejection	NA	0
47	Triplet	120	444	282	7	0	0	229792	692	0	correct_rejection	NA	0
47	Triplet	121	445	283	7	0	0	230501	691	0	correct_rejection	NA	0
47	Triplet	122	446	284	8	0	0	231209	692	0	correct_rejection	NA	0
47	Triplet	123	447	285	9	0	0	231918	691	0	correct_rejection	NA	0
47	Triplet	124	448	286	6	0	0	232626	692	0	correct_rejection	NA	0
47	Triplet	125	449	287	5	0	0	233335	692	0	correct_rejection	NA	0
47	Triplet	126	450	288	4	0	0	234044	691	0	correct_rejection	NA	0
47	Triplet	127	451	289	4	0	0	234752	692	0	correct_rejection	NA	0
47	Triplet	128	452	290	0	1	1	235461	691	1	hit	365	0
47	Triplet	129	453	291	5	0	0	236169	692	0	correct_rejection	NA	0
47	Triplet	130	454	292	6	0	0	236878	691	0	correct_rejection	NA	0
47	Triplet	131	455	293	0	1	2	237586	692	1	hit	521	0
47	Triplet	132	456	294	4	0	0	238295	692	0	correct_rejection	NA	0
47	Triplet	133	457	295	5	0	0	239003	692	0	correct_rejection	NA	0
47	Triplet	134	458	296	6	0	0	239712	692	0	correct_rejection	NA	0
47	Triplet	135	459	297	6	0	0	240421	691	0	correct_rejection	NA	0
47	Triplet	136	460	298	5	0	0	241129	692	0	correct_rejection	NA	0
47	Triplet	137	461	299	4	0	0	241838	691	0	correct_rejection	NA	0
47	Triplet	138	462	300	6	0	0	242546	692	0	correct_rejection	NA	0
47	Triplet	139	463	301	5	0	0	243255	692	0	correct_rejection	NA	0
47	Triplet	140	464	302	0	1	1	243963	692	1	hit	353	0
47	Triplet	141	465	303	4	0	0	244672	692	0	correct_rejection	NA	0
47	Triplet	142	466	304	7	0	0	245381	691	0	correct_rejection	NA	0
47	Triplet	143	467	305	8	0	0	246089	692	0	correct_rejection	NA	0
47	Triplet	144	468	306	9	0	0	246798	691	0	correct_rejection	NA	0
47	Triplet	145	469	307	7	0	0	247506	692	0	correct_rejection	NA	0
47	Triplet	146	470	308	8	0	0	248215	692	0	correct_rejection	NA	0
47	Triplet	147	471	309	9	0	0	248923	692	0	correct_rejection	NA	0
47	Triplet	148	472	310	4	0	0	249632	692	0	correct_rejection	NA	0
47	Triplet	149	473	311	5	0	0	250341	691	0	correct_rejection	NA	0
47	Triplet	150	474	312	6	0	0	251049	692	0	correct_rejection	NA	0
47	Triplet	151	475	313	0	1	2	251758	691	1	hit	407	0
47	Triplet	152	476	314	7	0	0	252466	692	0	correct_rejection	NA	0
47	Triplet	153	477	315	8	0	0	253175	692	0	correct_rejection	NA	0
47	Triplet	154	478	316	0	1	1	253883	692	1	hit	435	0
47	Triplet	155	479	317	9	0	0	254592	692	0	correct_rejection	NA	0
47	Triplet	156	480	318	9	0	0	255301	691	0	correct_rejection	NA	0
47	Triplet	157	481	319	8	0	0	256009	692	0	correct_rejection	NA	0
47	Triplet	158	482	320	7	0	0	256718	691	0	correct_rejection	NA	0
47	Triplet	159	483	321	9	0	0	257426	692	0	correct_rejection	NA	0
47	Triplet	160	484	322	0	1	1	258135	692	1	hit	330	0
47	Triplet	161	485	323	8	0	0	258843	692	0	correct_rejection	NA	0
47	Triplet	162	486	324	7	0	0	259552	692	0	correct_rejection	NA	0
47	Nonet	1	1	325	9	0	0	268522	691	0	correct_rejection	NA	6429
47	Nonet	2	2	326	8	0	0	269230	692	0	correct_rejection	NA	0
47	Nonet	3	3	327	7	0	0	269939	691	0	correct_rejection	NA	0
47	Nonet	4	4	328	9	0	0	270647	692	0	correct_rejection	NA	0
47	Nonet	5	5	329	8	0	0	271356	692	0	correct_rejection	NA	0
47	Nonet	6	6	330	7	0	0	272064	692	0	correct_rejection	NA	0
47	Nonet	7	7	331	9	0	0	272773	692	0	correct_rejection	NA	0
47	Nonet	8	8	332	8	0	0	273482	691	0	correct_rejection	NA	0
47	Nonet	9	9	333	7	0	0	274190	692	0	correct_rejection	NA	0
47	Nonet	10	10	334	6	0	0	274899	691	0	correct_rejection	NA	0
47	Nonet	11	11	335	5	0	0	275607	692	0	correct_rejection	NA	0
47	Nonet	12	12	336	4	0	0	276316	692	0	correct_rejection	NA	0
47	Nonet	13	13	337	6	0	0	277024	692	0	correct_rejection	NA	0
47	Nonet	14	14	338	5	0	0	277733	692	0	correct_rejection	NA	0
47	Nonet	15	15	339	4	0	0	278442	691	0	correct_rejection	NA	0
47	Nonet	16	16	340	6	0	0	279150	692	0	correct_rejection	NA	0
47	Nonet	17	17	341	0	1	1	279859	691	1	hit	421	0
47	Nonet	18	18	342	5	0	0	280567	692	0	correct_rejection	NA	0
47	Nonet	19	19	343	4	0	0	281276	691	0	correct_rejection	NA	0
47	Nonet	20	20	344	6	0	0	281984	692	0	correct_rejection	NA	0
47	Nonet	21	21	345	5	0	0	282693	692	0	correct_rejection	NA	0
47	Nonet	22	22	346	0	1	1	283401	692	1	hit	451	0
47	Nonet	23	23	347	4	0	0	284110	692	0	correct_rejection	NA	0
47	Nonet	24	24	348	6	0	0	284819	691	0	correct_rejection	NA	0
47	Nonet	25	25	349	5	0	0	285527	692	0	correct_rejection	NA	0
47	Nonet	26	26	350	4	0	0	286236	691	0	correct_rejection	NA	0
47	Nonet	27	27	351	6	0	0	286944	692	0	correct_rejection	NA	0
47	Nonet	28	28	352	5	0	0	287653	692	0	correct_rejection	NA	0
47	Nonet	29	29	353	4	0	0	288361	692	0	correct_rejection	NA	0
47	Nonet	30	30	354	9	0	0	289070	692	0	correct_rejection	NA	0
47	Nonet	31	31	355	8	0	0	289779	691	0	correct_rejection	NA	0
47	Nonet	32	32	356	0	1	1	290487	692	1	hit	407	0
47	Nonet	33	33	357	7	0	0	291196	691	0	correct_rejection	NA	0
47	Nonet	34	34	358	9	0	0	291904	692	0	correct_rejection	NA	0
47	Nonet	35	35	359	8	0	0	292613	692	0	correct_rejection	NA	0
47	Nonet	36	36	360	7	0	0	293321	692	0	correct_rejection	NA	0
47	Nonet	37	37	361	9	0	0	294030	692	0	correct_rejection	NA	0
47	Nonet	38	38	362	8	0	0	294739	691	0	correct_rejection	NA	0
47	Nonet	39	39	363	7	0	0	295447	692	0	correct_rejection	NA	0
47	Nonet	40	40	364	4	0	0	296156	691	0	correct_rejection	NA	0
47	Nonet	41	41	365	5	0	0	296864	692	0	correct_rejection	NA	0
47	Nonet	42	42	366	6	0	0	297573	692	0	correct_rejection	NA	0
47	Nonet	43	43	367	0	1	2	298281	692	1	hit	618	0
47	Nonet	44	44	368	4	0	0	298990	692	0	correct_rejection	NA	0
47	Nonet	45	45	369	5	0	0	299699	691	0	correct_rejection	NA	0
47	Nonet	46	46	370	6	0	0	300407	692	0	correct_rejection	NA	0
47	Nonet	47	47	371	0	1	2	301116	691	1	hit	384	0
47	Nonet	48	48	372	4	0	0	301824	692	0	correct_rejection	NA	0
47	Nonet	49	49	373	5	0	0	302533	692	0	correct_rejection	NA	0
47	Nonet	50	50	374	6	0	0	303241	692	0	correct_rejection	NA	0
47	Nonet	51	51	375	4	0	0	303950	692	0	correct_rejection	NA	0
47	Nonet	52	52	376	5	0	0	304658	692	0	correct_rejection	NA	0
47	Nonet	53	53	377	0	1	1	305367	692	1	hit	326	0
47	Nonet	54	54	378	6	0	0	306076	691	0	correct_rejection	NA	0
47	Nonet	55	55	379	4	0	0	306784	692	0	correct_rejection	NA	0
47	Nonet	56	56	380	5	0	0	307493	691	0	correct_rejection	NA	0
47	Nonet	57	57	381	6	0	0	308201	692	0	correct_rejection	NA	0
47	Nonet	58	58	382	4	0	0	308910	692	0	correct_rejection	NA	0
47	Nonet	59	59	383	5	0	0	309618	692	0	correct_rejection	NA	0
47	Nonet	60	60	384	6	0	0	310327	692	0	correct_rejection	NA	0
47	Nonet	61	61	385	7	0	0	311036	691	0	correct_rejection	NA	0
47	Nonet	62	62	386	8	0	0	311744	692	0	correct_rejection	NA	0
47	Nonet	63	63	387	9	0	0	312453	691	0	correct_rejection	NA	0
47	Nonet	64	64	388	7	0	0	313161	692	0	correct_rejection	NA	0
47	Nonet	65	65	389	8	0	0	313870	692	0	correct_rejection	NA	0
47	Nonet	66	66	390	0	1	1	314578	692	1	hit	387	0
47	Nonet	67	67	391	9	0	0	315287	692	0	correct_rejection	NA	0
47	Nonet	68	68	392	7	0	0	315996	691	0	correct_rejection	NA	0
47	Nonet	69	69	393	8	0	0	316704	692	0	correct_rejection	NA	0
47	Nonet	70	70	394	9	0	0	317413	691	0	correct_rejection	NA	0
47	Nonet	71	71	395	4	0	0	318121	692	0	correct_rejection	NA	0
47	Nonet	72	72	396	5	0	0	318830	692	0	correct_rejection	NA	0
47	Nonet	73	73	397	6	0	0	319538	692	0	correct_rejection	NA	0
47	Nonet	74	74	398	4	0	0	320247	692	0	correct_rejection	NA	0
47	Nonet	75	75	399	5	0	0	320956	691	0	correct_rejection	NA	0
47	Nonet	76	76	400	6	0	0	321664	692	0	correct_rejection	NA	0
47	Nonet	77	77	401	4	0	0	322373	691	0	correct_rejection	NA	0
47	Nonet	78	78	402	5	0	0	323081	692	0	correct_rejection	NA	0
47	Nonet	79	79	403	6	0	0	323790	692	0	correct_rejection	NA	0
47	Nonet	80	80	404	9	0	0	324498	692	0	correct_rejection	NA	0
47	Nonet	81	81	405	8	0	0	325207	692	0	correct_rejection	NA	0
47	Nonet	82	82	406	0	1	1	325916	691	1	hit	339	0
47	Nonet	83	83	407	7	0	0	326624	692	0	correct_rejection	NA	0
47	Nonet	84	84	408	9	0	0	327333	691	0	correct_rejection	NA	0
47	Nonet	85	85	409	8	0	0	328041	692	0	correct_rejection	NA	0
47	Nonet	86	86	410	0	1	1	328750	692	1	hit	514	0
47	Nonet	87	87	411	7	0	0	329458	692	0	correct_rejection	NA	0
47	Nonet	88	88	412	9	0	0	330167	692	0	correct_rejection	NA	0
47	Nonet	89	89	413	8	0	0	330876	691	0	correct_rejection	NA	0
47	Nonet	90	90	414	7	0	0	331584	692	0	correct_rejection	NA	0
47	Nonet	91	91	415	0	1	3	332293	691	1	hit	388	0
47	Nonet	92	92	416	9	0	0	333001	692	0	correct_rejection	NA	0
47	Nonet	93	93	417	8	0	0	333710	691	0	correct_rejection	NA	0
47	Nonet	94	94	418	7	0	0	334418	692	0	correct_rejection	NA	0
47	Nonet	95	95	419	9	0	0	335127	692	0	correct_rejection	NA	0
47	Nonet	96	96	420	8	0	0	335835	692	0	correct_rejection	NA	0
47	Nonet	97	97	421	7	0	0	336544	692	0	correct_rejection	NA	0
47	Nonet	98	98	422	9	0	0	337253	691	0	correct_rejection	NA	0
47	Nonet	99	99	423	8	0	0	337961	692	0	correct_rejection	NA	0
47	Nonet	100	100	424	7	0	0	338670	691	0	correct_rejection	NA	0
47	Nonet	101	101	425	7	0	0	339378	692	0	correct_rejection	NA	0
47	Nonet	102	102	426	0	1	1	340087	692	1	hit	398	0
47	Nonet	103	103	427	8	0	0	340795	692	0	correct_rejection	NA	0
47	Nonet	104	104	428	9	0	0	341504	692	0	correct_rejection	NA	0
47	Nonet	105	105	429	7	0	0	342213	691	0	correct_rejection	NA	0
47	Nonet	106	106	430	8	0	0	342921	692	0	correct_rejection	NA	0
47	Nonet	107	107	431	9	0	0	343630	691	0	correct_rejection	NA	0
47	Nonet	108	108	432	7	0	0	344338	692	0	correct_rejection	NA	0
47	Nonet	109	109	433	8	0	0	345047	692	0	correct_rejection	NA	0
47	Nonet	110	110	434	9	0	0	345755	692	0	correct_rejection	NA	0
47	Nonet	111	111	435	6	0	0	346464	692	0	correct_rejection	NA	0
47	Nonet	112	112	436	5	0	0	347173	691	0	correct_rejection	NA	0
47	Nonet	113	113	437	0	1	1	347881	692	1	hit	344	0
47	Nonet	114	114	438	4	0	0	348590	691	0	correct_rejection	NA	0
47	Nonet	115	115	439	6	0	0	349298	692	0	correct_rejection	NA	0
47	Nonet	116	116	440	5	0	0	350007	692	0	correct_rejection	NA	0
47	Nonet	117	117	441	4	0	0	350715	692	0	correct_rejection	NA	0
47	Nonet	118	118	442	0	1	2	351424	692	1	hit	418	0
47	Nonet	119	119	443	6	0	0	352133	691	0	correct_rejection	NA	0
47	Nonet	120	120	444	5	0	0	352841	692	0	correct_rejection	NA	0
47	Nonet	121	121	445	4	0	0	353550	691	0	correct_rejection	NA	0
47	Nonet	122	122	446	4	0	0	354258	692	0	correct_rejection	NA	0
47	Nonet	123	123	447	5	0	0	354967	692	0	correct_rejection	NA	0
47	Nonet	124	124	448	6	0	0	355675	692	0	correct_rejection	NA	0
47	Nonet	125	125	449	4	0	0	356384	692	0	correct_rejection	NA	0
47	Nonet	126	126	450	5	0	0	357093	691	0	correct_rejection	NA	0
47	Nonet	127	127	451	0	1	1	357801	692	1	hit	404	0
47	Nonet	128	128	452	6	0	0	358510	691	0	correct_rejection	NA	0
47	Nonet	129	129	453	4	0	0	359218	692	0	correct_rejection	NA	0
47	Nonet	130	130	454	0	1	1	359927	691	1	hit	398	0
47	Nonet	131	131	455	5	0	0	360635	692	0	correct_rejection	NA	0
47	Nonet	132	132	456	6	0	0	361344	692	0	correct_rejection	NA	0
47	Nonet	133	133	457	6	0	0	362052	692	0	correct_rejection	NA	0
47	Nonet	134	134	458	5	0	0	362761	692	0	correct_rejection	NA	0
47	Nonet	135	135	459	4	0	0	363470	691	0	correct_rejection	NA	0
47	Nonet	136	136	460	6	0	0	364178	692	0	correct_rejection	NA	0
47	Nonet	137	137	461	5	0	0	364887	691	0	correct_rejection	NA	0
47	Nonet	138	138	462	4	0	0	365595	692	0	correct_rejection	NA	0
47	Nonet	139	139	463	6	0	0	366304	692	0	correct_rejection	NA	0
47	Nonet	140	140	464	5	0	0	367012	692	0	correct_rejection	NA	0
47	Nonet	141	141	465	4	0	0	367721	692	0	correct_rejection	NA	0
47	Nonet	142	142	466	7	0	0	368430	691	0	correct_rejection	NA	0
47	Nonet	143	143	467	8	0	0	369138	692	0	correct_rejection	NA	0
47	Nonet	144	144	468	0	1	1	369847	691	1	hit	389	0
47	Nonet	145	145	469	9	0	0	370555	692	0	correct_rejection	NA	0
47	Nonet	146	146	470	7	0	0	371264	692	0	correct_rejection	NA	0
47	Nonet	147	147	471	8	0	0	371972	692	0	correct_rejection	NA	0
47	Nonet	148	148	472	9	0	0	372681	692	0	correct_rejection	NA	0
47	Nonet	149	149	473	0	1	2	373390	691	1	hit	425	0
47	Nonet	150	150	474	7	0	0	374098	692	0	correct_rejection	NA	0
47	Nonet	151	151	475	8	0	0	374807	691	0	correct_rejection	NA	0
47	Nonet	152	152	476	9	0	0	375515	692	0	correct_rejection	NA	0
47	Nonet	153	153	477	7	0	0	376224	692	0	correct_rejection	NA	0
47	Nonet	154	154	478	8	0	0	376932	692	0	correct_rejection	NA	0
47	Nonet	155	155	479	9	0	0	377641	692	0	correct_rejection	NA	0
47	Nonet	156	156	480	7	0	0	378350	691	0	correct_rejection	NA	0
47	Nonet	157	157	481	8	0	0	379058	692	0	correct_rejection	NA	0
47	Nonet	158	158	482	9	0	0	379767	691	0	correct_rejection	NA	0
47	Nonet	159	159	483	0	1	2	380475	692	1	hit	397	0
47	Nonet	160	160	484	7	0	0	381184	692	0	correct_rejection	NA	0
47	Nonet	161	161	485	8	0	0	381892	692	0	correct_rejection	NA	0
47	Nonet	162	162	486	9	0	0	382601	692	0	correct_rejection	NA	0
47	Single	1	649	487	8	0	0	392421	692	0	correct_rejection	NA	7329
47	Single	2	650	488	9	0	0	393129	692	0	correct_rejection	NA	0
47	Single	3	651	489	8	0	0	393838	692	0	correct_rejection	NA	0
47	Single	4	652	490	5	0	0	394547	691	0	correct_rejection	NA	0
47	Single	5	653	491	4	0	0	395255	692	0	correct_rejection	NA	0
47	Single	6	654	492	4	0	0	395964	691	0	correct_rejection	NA	0
47	Single	7	655	493	9	0	0	396672	692	0	correct_rejection	NA	0
47	Single	8	656	494	9	0	0	397381	692	0	correct_rejection	NA	0
47	Single	9	657	495	4	0	0	398089	692	0	correct_rejection	NA	0
47	Single	10	658	496	7	0	0	398798	692	0	correct_rejection	NA	0
47	Single	11	659	497	4	0	0	399507	691	0	correct_rejection	NA	0
47	Single	12	660	498	5	0	0	400215	692	0	correct_rejection	NA	0
47	Single	13	661	499	7	0	0	400924	691	0	correct_rejection	NA	0
47	Single	14	662	500	6	0	0	401632	692	0	correct_rejection	NA	0
47	Single	15	663	501	8	0	0	402341	691	0	correct_rejection	NA	0
47	Single	16	664	502	7	0	0	403049	692	0	correct_rejection	NA	0
47	Single	17	665	503	5	0	0	403758	692	0	correct_rejection	NA	0
47	Single	18	666	504	5	0	0	404466	692	0	correct_rejection	NA	0
47	Single	19	667	505	9	0	0	405175	692	0	correct_rejection	NA	0
47	Single	20	668	506	5	0	0	405884	691	0	correct_rejection	NA	0
47	Single	21	669	507	0	1	1	406592	692	1	hit	471	0
47	Single	22	670	508	8	0	0	407301	691	0	correct_rejection	NA	0
47	Single	23	671	509	6	0	0	408009	692	0	correct_rejection	NA	0
47	Single	24	672	510	5	0	0	408718	692	0	correct_rejection	NA	0
47	Single	25	673	511	6	0	0	409426	692	0	correct_rejection	NA	0
47	Single	26	674	512	6	0	0	410135	692	0	correct_rejection	NA	0
47	Single	27	675	513	7	0	0	410844	691	0	correct_rejection	NA	0
47	Single	28	676	514	9	0	0	411552	692	0	correct_rejection	NA	0
47	Single	29	677	515	6	0	0	412261	691	0	correct_rejection	NA	0
47	Single	30	678	516	9	0	0	412969	692	0	correct_rejection	NA	0
47	Single	31	679	517	7	0	0	413678	692	0	correct_rejection	NA	0
47	Single	32	680	518	7	0	0	414386	692	0	correct_rejection	NA	0
47	Single	33	681	519	0	1	1	415095	692	1	hit	403	0
47	Single	34	682	520	8	0	0	415804	691	0	correct_rejection	NA	0
47	Single	35	683	521	8	0	0	416512	692	0	correct_rejection	NA	0
47	Single	36	684	522	4	0	0	417221	691	0	correct_rejection	NA	0
47	Single	37	685	523	6	0	0	417929	692	0	correct_rejection	NA	0
47	Single	38	686	524	4	0	0	418638	692	0	correct_rejection	NA	0
47	Single	39	687	525	7	0	0	419346	692	0	correct_rejection	NA	0
47	Single	40	688	526	9	0	0	420055	692	0	correct_rejection	NA	0
47	Single	41	689	527	5	0	0	420764	691	0	correct_rejection	NA	0
47	Single	42	690	528	9	0	0	421472	692	0	correct_rejection	NA	0
47	Single	43	691	529	4	0	0	422181	691	0	correct_rejection	NA	0
47	Single	44	692	530	8	0	0	422889	692	0	correct_rejection	NA	0
47	Single	45	693	531	4	0	0	423598	692	0	correct_rejection	NA	0
47	Single	46	694	532	9	0	0	424306	692	0	correct_rejection	NA	0
47	Single	47	695	533	7	0	0	425015	692	0	correct_rejection	NA	0
47	Single	48	696	534	8	0	0	425724	691	0	correct_rejection	NA	0
47	Single	49	697	535	9	0	0	426432	692	0	correct_rejection	NA	0
47	Single	50	698	536	6	0	0	427141	691	0	correct_rejection	NA	0
47	Single	51	699	537	8	0	0	427849	692	0	correct_rejection	NA	0
47	Single	52	700	538	8	0	0	428558	691	0	correct_rejection	NA	0
47	Single	53	701	539	5	0	0	429266	692	0	correct_rejection	NA	0
47	Single	54	702	540	8	0	0	429975	692	0	correct_rejection	NA	0
47	Single	55	703	541	7	0	0	430683	692	0	correct_rejection	NA	0
47	Single	56	704	542	7	0	0	431392	692	0	correct_rejection	NA	0
47	Single	57	705	543	4	0	0	432101	691	0	correct_rejection	NA	0
47	Single	58	706	544	0	1	1	432809	692	1	hit	428	0
47	Single	59	707	545	4	0	0	433518	691	0	correct_rejection	NA	0
47	Single	60	708	546	6	0	0	434226	692	0	correct_rejection	NA	0
47	Single	61	709	547	5	0	0	434935	692	0	correct_rejection	NA	0
47	Single	62	710	548	4	0	0	435643	692	0	correct_rejection	NA	0
47	Single	63	711	549	7	0	0	436352	692	0	correct_rejection	NA	0
47	Single	64	712	550	6	0	0	437061	691	0	correct_rejection	NA	0
47	Single	65	713	551	6	0	0	437769	692	0	correct_rejection	NA	0
47	Single	66	714	552	9	0	0	438478	691	0	correct_rejection	NA	0
47	Single	67	715	553	0	1	1	439186	692	1	hit	443	0
47	Single	68	716	554	9	0	0	439895	692	0	correct_rejection	NA	0
47	Single	69	717	555	8	0	0	440603	692	0	correct_rejection	NA	0
47	Single	70	718	556	0	1	1	441312	692	1	hit	428	0
47	Single	71	719	557	6	0	0	442021	691	0	correct_rejection	NA	0
47	Single	72	720	558	4	0	0	442729	692	0	correct_rejection	NA	0
47	Single	73	721	559	5	0	0	443438	691	0	correct_rejection	NA	0
47	Single	74	722	560	5	0	0	444146	692	0	correct_rejection	NA	0
47	Single	75	723	561	0	1	1	444855	692	1	hit	394	0
47	Single	76	724	562	6	0	0	445563	692	0	correct_rejection	NA	0
47	Single	77	725	563	7	0	0	446272	692	0	correct_rejection	NA	0
47	Single	78	726	564	0	1	1	446981	691	1	hit	385	0
47	Single	79	727	565	5	0	0	447689	692	0	correct_rejection	NA	0
47	Single	80	728	566	5	0	0	448398	691	0	correct_rejection	NA	0
47	Single	81	729	567	4	0	0	449106	692	0	correct_rejection	NA	0
47	Single	82	730	568	0	1	1	449815	692	1	hit	367	0
47	Single	83	731	569	9	0	0	450523	692	0	correct_rejection	NA	0
47	Single	84	732	570	5	0	0	451232	692	0	correct_rejection	NA	0
47	Single	85	733	571	6	0	0	451941	691	0	correct_rejection	NA	0
47	Single	86	734	572	4	0	0	452649	692	0	correct_rejection	NA	0
47	Single	87	735	573	0	1	1	453358	691	1	hit	357	0
47	Single	88	736	574	7	0	0	454066	692	0	correct_rejection	NA	0
47	Single	89	737	575	9	0	0	454775	691	0	correct_rejection	NA	0
47	Single	90	738	576	8	0	0	455483	692	0	correct_rejection	NA	0
47	Single	91	739	577	8	0	0	456192	692	0	correct_rejection	NA	0
47	Single	92	740	578	7	0	0	456900	692	0	correct_rejection	NA	0
47	Single	93	741	579	8	0	0	457609	692	0	correct_rejection	NA	0
47	Single	94	742	580	0	1	1	458318	691	1	hit	393	0
47	Single	95	743	581	4	0	0	459026	692	0	correct_rejection	NA	0
47	Single	96	744	582	8	0	0	459735	691	0	correct_rejection	NA	0
47	Single	97	745	583	5	0	0	460443	692	0	correct_rejection	NA	0
47	Single	98	746	584	5	0	0	461152	692	0	correct_rejection	NA	0
47	Single	99	747	585	8	0	0	461860	692	0	correct_rejection	NA	0
47	Single	100	748	586	9	0	0	462569	692	0	correct_rejection	NA	0
47	Single	101	749	587	4	0	0	463278	691	0	correct_rejection	NA	0
47	Single	102	750	588	4	0	0	463986	692	0	correct_rejection	NA	0
47	Single	103	751	589	0	1	1	464695	691	1	hit	357	0
47	Single	104	752	590	5	0	0	465403	692	0	correct_rejection	NA	0
47	Single	105	753	591	9	0	0	466112	692	0	correct_rejection	NA	0
47	Single	106	754	592	9	0	0	466820	692	0	correct_rejection	NA	0
47	Single	107	755	593	7	0	0	467529	692	0	correct_rejection	NA	0
47	Single	108	756	594	6	0	0	468238	691	0	correct_rejection	NA	0
47	Single	109	757	595	7	0	0	468946	692	0	correct_rejection	NA	0
47	Single	110	758	596	7	0	0	469655	691	0	correct_rejection	NA	0
47	Single	111	759	597	5	0	0	470363	692	0	correct_rejection	NA	0
47	Single	112	760	598	0	1	1	471072	692	1	hit	466	0
47	Single	113	761	599	7	0	0	471780	692	0	correct_rejection	NA	0
47	Single	114	762	600	4	0	0	472489	692	0	correct_rejection	NA	0
47	Single	115	763	601	6	0	0	473198	691	0	correct_rejection	NA	0
47	Single	116	764	602	9	0	0	473906	692	0	correct_rejection	NA	0
47	Single	117	765	603	6	0	0	474615	691	0	correct_rejection	NA	0
47	Single	118	766	604	6	0	0	475323	692	0	correct_rejection	NA	0
47	Single	119	767	605	8	0	0	476032	692	0	correct_rejection	NA	0
47	Single	120	768	606	6	0	0	476740	692	0	correct_rejection	NA	0
47	Single	121	769	607	0	1	1	477449	692	1	hit	452	0
47	Single	122	770	608	7	0	0	478158	691	0	correct_rejection	NA	0
47	Single	123	771	609	7	0	0	478866	692	0	correct_rejection	NA	0
47	Single	124	772	610	8	0	0	479575	691	0	correct_rejection	NA	0
47	Single	125	773	611	7	0	0	480283	692	0	correct_rejection	NA	0
47	Single	126	774	612	6	0	0	480992	691	0	correct_rejection	NA	0
47	Single	127	775	613	9	0	0	481700	692	0	correct_rejection	NA	0
47	Single	128	776	614	7	0	0	482409	692	0	correct_rejection	NA	0
47	Single	129	777	615	0	1	1	483117	692	1	hit	367	0
47	Single	130	778	616	4	0	0	483826	692	0	correct_rejection	NA	0
47	Single	131	779	617	9	0	0	484535	691	0	correct_rejection	NA	0
47	Single	132	780	618	6	0	0	485243	692	0	correct_rejection	NA	0
47	Single	133	781	619	5	0	0	485952	691	0	correct_rejection	NA	0
47	Single	134	782	620	6	0	0	486660	692	0	correct_rejection	NA	0
47	Single	135	783	621	0	1	1	487369	692	1	hit	446	0
47	Single	136	784	622	6	0	0	488077	692	0	correct_rejection	NA	0
47	Single	137	785	623	7	0	0	488786	692	0	correct_rejection	NA	0
47	Single	138	786	624	9	0	0	489495	691	0	correct_rejection	NA	0
47	Single	139	787	625	9	0	0	490203	692	0	correct_rejection	NA	0
47	Single	140	788	626	4	0	0	490912	691	0	correct_rejection	NA	0
47	Single	141	789	627	5	0	0	491620	692	0	correct_rejection	NA	0
47	Single	142	790	628	8	0	0	492329	692	0	correct_rejection	NA	0
47	Single	143	791	629	6	0	0	493037	692	0	correct_rejection	NA	0
47	Single	144	792	630	8	0	0	493746	692	0	correct_rejection	NA	0
47	Single	145	793	631	9	0	0	494455	691	0	correct_rejection	NA	0
47	Single	146	794	632	5	0	0	495163	692	0	correct_rejection	NA	0
47	Single	147	795	633	7	0	0	495872	691	0	correct_rejection	NA	0
47	Single	148	796	634	5	0	0	496580	692	0	correct_rejection	NA	0
47	Single	149	797	635	5	0	0	497289	692	0	correct_rejection	NA	0
47	Single	150	798	636	9	0	0	497997	692	0	correct_rejection	NA	0
47	Single	151	799	637	8	0	0	498706	692	0	correct_rejection	NA	0
47	Single	152	800	638	0	1	1	499415	691	1	hit	491	0
47	Single	153	801	639	5	0	0	500123	692	0	correct_rejection	NA	0
47	Single	154	802	640	4	0	0	500832	691	0	correct_rejection	NA	0
47	Single	155	803	641	6	0	0	501540	692	0	correct_rejection	NA	0
47	Single	156	804	642	0	1	1	502249	692	0	miss	NA	0
47	Single	157	805	643	4	0	0	502957	692	1	false_alarm	110	0
47	Single	158	806	644	4	0	0	503666	692	0	correct_rejection	NA	0
47	Single	159	807	645	8	0	0	504375	691	0	correct_rejection	NA	0
47	Single	160	808	646	0	1	1	505083	692	1	hit	353	0
47	Single	161	809	647	8	0	0	505792	691	0	correct_rejection	NA	0
47	Single	162	810	648	4	0	0	506500	692	0	correct_rejection	NA	0
47	Correct	1	163	649	4	0	0	515570	692	0	correct_rejection	NA	6489
47	Correct	2	164	650	5	0	0	516278	692	0	correct_rejection	NA	0
47	Correct	3	165	651	6	0	0	516987	692	0	correct_rejection	NA	0
47	Correct	4	166	652	4	0	0	517696	691	0	correct_rejection	NA	0
47	Correct	5	167	653	5	0	0	518404	692	0	correct_rejection	NA	0
47	Correct	6	168	654	6	0	0	519113	691	0	correct_rejection	NA	0
47	Correct	7	169	655	4	0	0	519821	692	0	correct_rejection	NA	0
47	Correct	8	170	656	0	1	1	520530	692	1	hit	369	0
47	Correct	9	171	657	5	0	0	521238	692	0	correct_rejection	NA	0
47	Correct	10	172	658	6	0	0	521947	692	0	correct_rejection	NA	0
47	Correct	11	173	659	6	0	0	522656	691	0	correct_rejection	NA	0
47	Correct	12	174	660	5	0	0	523364	692	0	correct_rejection	NA	0
47	Correct	13	175	661	4	0	0	524073	691	0	correct_rejection	NA	0
47	Correct	14	176	662	0	1	2	524781	692	1	hit	406	0
47	Correct	15	177	663	6	0	0	525490	692	0	correct_rejection	NA	0
47	Correct	16	178	664	5	0	0	526198	692	0	correct_rejection	NA	0
47	Correct	17	179	665	4	0	0	526907	692	0	correct_rejection	NA	0
47	Correct	18	180	666	6	0	0	527616	691	0	correct_rejection	NA	0
47	Correct	19	181	667	5	0	0	528324	692	0	correct_rejection	NA	0
47	Correct	20	182	668	4	0	0	529033	691	0	correct_rejection	NA	0
47	Correct	21	183	669	0	1	3	529741	692	1	hit	364	0
47	Correct	22	184	670	9	0	0	530450	691	0	correct_rejection	NA	0
47	Correct	23	185	671	8	0	0	531158	692	0	correct_rejection	NA	0
47	Correct	24	186	672	7	0	0	531867	692	0	correct_rejection	NA	0
47	Correct	25	187	673	0	1	2	532576	691	1	hit	389	0
47	Correct	26	188	674	9	0	0	533284	692	0	correct_rejection	NA	0
47	Correct	27	189	675	8	0	0	533993	691	0	correct_rejection	NA	0
47	Correct	28	190	676	0	1	1	534701	692	1	hit	436	0
47	Correct	29	191	677	7	0	0	535410	691	0	correct_rejection	NA	0
47	Correct	30	192	678	9	0	0	536118	692	0	correct_rejection	NA	0
47	Correct	31	193	679	8	0	0	536827	692	0	correct_rejection	NA	0
47	Correct	32	194	680	7	0	0	537535	692	0	correct_rejection	NA	0
47	Correct	33	195	681	0	1	3	538244	692	1	hit	365	0
47	Correct	34	196	682	7	0	0	538953	691	0	correct_rejection	NA	0
47	Correct	35	197	683	8	0	0	539661	692	0	correct_rejection	NA	0
47	Correct	36	198	684	9	0	0	540370	691	0	correct_rejection	NA	0
47	Correct	37	199	685	7	0	0	541078	692	0	correct_rejection	NA	0
47	Correct	38	200	686	8	0	0	541787	692	0	correct_rejection	NA	0
47	Correct	39	201	687	9	0	0	542495	692	0	correct_rejection	NA	0
47	Correct	40	202	688	7	0	0	543204	692	0	correct_rejection	NA	0
47	Correct	41	203	689	8	0	0	543913	691	0	correct_rejection	NA	0
47	Correct	42	204	690	9	0	0	544621	692	0	correct_rejection	NA	0
47	Correct	43	205	691	4	0	0	545330	691	0	correct_rejection	NA	0
47	Correct	44	206	692	5	0	0	546038	692	0	correct_rejection	NA	0
47	Correct	45	207	693	6	0	0	546747	692	0	correct_rejection	NA	0
47	Correct	46	208	694	4	0	0	547455	692	0	correct_rejection	NA	0
47	Correct	47	209	695	5	0	0	548164	692	0	correct_rejection	NA	0
47	Correct	48	210	696	6	0	0	548873	691	0	correct_rejection	NA	0
47	Correct	49	211	697	4	0	0	549581	692	0	correct_rejection	NA	0
47	Correct	50	212	698	5	0	0	550290	691	0	correct_rejection	NA	0
47	Correct	51	213	699	6	0	0	550998	692	0	correct_rejection	NA	0
47	Correct	52	214	700	6	0	0	551707	692	0	correct_rejection	NA	0
47	Correct	53	215	701	5	0	0	552415	692	0	correct_rejection	NA	0
47	Correct	54	216	702	4	0	0	553124	692	0	correct_rejection	NA	0
47	Correct	55	217	703	6	0	0	553833	691	0	correct_rejection	NA	0
47	Correct	56	218	704	5	0	0	554541	692	0	correct_rejection	NA	0
47	Correct	57	219	705	4	0	0	555250	691	0	correct_rejection	NA	0
47	Correct	58	220	706	6	0	0	555958	692	0	correct_rejection	NA	0
47	Correct	59	221	707	5	0	0	556667	692	0	correct_rejection	NA	0
47	Correct	60	222	708	0	1	1	557375	692	1	hit	325	0
47	Correct	61	223	709	4	0	0	558084	692	0	correct_rejection	NA	0
47	Correct	62	224	710	9	0	0	558793	691	0	correct_rejection	NA	0
47	Correct	63	225	711	0	1	1	559501	692	1	hit	646	0
47	Correct	64	226	712	8	0	0	560210	691	0	correct_rejection	NA	0
47	Correct	65	227	713	7	0	0	560918	692	0	correct_rejection	NA	0
47	Correct	66	228	714	9	0	0	561627	691	0	correct_rejection	NA	0
47	Correct	67	229	715	8	0	0	562335	692	0	correct_rejection	NA	0
47	Correct	68	230	716	7	0	0	563044	692	0	correct_rejection	NA	0
47	Correct	69	231	717	9	0	0	563752	692	0	correct_rejection	NA	0
47	Correct	70	232	718	8	0	0	564461	692	0	correct_rejection	NA	0
47	Correct	71	233	719	7	0	0	565170	691	0	correct_rejection	NA	0
47	Correct	72	234	720	7	0	0	565878	692	0	correct_rejection	NA	0
47	Correct	73	235	721	8	0	0	566587	691	0	correct_rejection	NA	0
47	Correct	74	236	722	0	1	1	567295	692	1	hit	472	0
47	Correct	75	237	723	9	0	0	568004	692	0	correct_rejection	NA	0
47	Correct	76	238	724	7	0	0	568712	692	0	correct_rejection	NA	0
47	Correct	77	239	725	0	1	1	569421	692	1	hit	459	0
47	Correct	78	240	726	8	0	0	570130	691	0	correct_rejection	NA	0
47	Correct	79	241	727	9	0	0	570838	692	0	correct_rejection	NA	0
47	Correct	80	242	728	7	0	0	571547	691	0	correct_rejection	NA	0
47	Correct	81	243	729	0	1	1	572255	692	1	hit	370	0
47	Correct	82	244	730	8	0	0	572964	692	0	correct_rejection	NA	0
47	Correct	83	245	731	9	0	0	573672	692	0	correct_rejection	NA	0
47	Correct	84	246	732	4	0	0	574381	692	0	correct_rejection	NA	0
47	Correct	85	247	733	5	0	0	575090	691	0	correct_rejection	NA	0
47	Correct	86	248	734	6	0	0	575798	692	0	correct_rejection	NA	0
47	Correct	87	249	735	0	1	2	576507	691	1	hit	481	0
47	Correct	88	250	736	4	0	0	577215	692	0	correct_rejection	NA	0
47	Correct	89	251	737	5	0	0	577924	692	0	correct_rejection	NA	0
47	Correct	90	252	738	6	0	0	578632	692	0	correct_rejection	NA	0
47	Correct	91	253	739	4	0	0	579341	692	0	correct_rejection	NA	0
47	Correct	92	254	740	5	0	0	580050	691	0	correct_rejection	NA	0
47	Correct	93	255	741	6	0	0	580758	692	0	correct_rejection	NA	0
47	Correct	94	256	742	6	0	0	581467	691	0	correct_rejection	NA	0
47	Correct	95	257	743	0	1	1	582175	692	1	hit	461	0
47	Correct	96	258	744	5	0	0	582884	692	0	correct_rejection	NA	0
47	Correct	97	259	745	4	0	0	583592	692	0	correct_rejection	NA	0
47	Correct	98	260	746	6	0	0	584301	692	0	correct_rejection	NA	0
47	Correct	99	261	747	5	0	0	585010	691	0	correct_rejection	NA	0
47	Correct	100	262	748	4	0	0	585718	692	0	correct_rejection	NA	0
47	Correct	101	263	749	6	0	0	586427	691	0	correct_rejection	NA	0
47	Correct	102	264	750	5	0	0	587135	692	0	correct_rejection	NA	0
47	Correct	103	265	751	4	0	0	587844	691	0	correct_rejection	NA	0
47	Correct	104	266	752	9	0	0	588552	692	0	correct_rejection	NA	0
47	Correct	105	267	753	8	0	0	589261	692	0	correct_rejection	NA	0
47	Correct	106	268	754	7	0	0	589969	692	0	correct_rejection	NA	0
47	Correct	107	269	755	9	0	0	590678	692	0	correct_rejection	NA	0
47	Correct	108	270	756	8	0	0	591387	691	0	correct_rejection	NA	0
47	Correct	109	271	757	7	0	0	592095	692	0	correct_rejection	NA	0
47	Correct	110	272	758	9	0	0	592804	691	0	correct_rejection	NA	0
47	Correct	111	273	759	8	0	0	593512	692	0	correct_rejection	NA	0
47	Correct	112	274	760	7	0	0	594221	692	0	correct_rejection	NA	0
47	Correct	113	275	761	7	0	0	594929	692	0	correct_rejection	NA	0
47	Correct	114	276	762	8	0	0	595638	692	0	correct_rejection	NA	0
47	Correct	115	277	763	0	1	1	596347	691	1	hit	387	0
47	Correct	116	278	764	9	0	0	597055	692	0	correct_rejection	NA	0
47	Correct	117	279	765	7	0	0	597764	691	0	correct_rejection	NA	0
47	Correct	118	280	766	8	0	0	598472	692	0	correct_rejection	NA	0
47	Correct	119	281	767	9	0	0	599181	692	0	correct_rejection	NA	0
47	Correct	120	282	768	0	1	2	599889	692	1	hit	469	0
47	Correct	121	283	769	7	0	0	600598	692	0	correct_rejection	NA	0
47	Correct	122	284	770	8	0	0	601307	691	0	correct_rejection	NA	0
47	Correct	123	285	771	9	0	0	602015	692	0	correct_rejection	NA	0
47	Correct	124	286	772	4	0	0	602724	691	0	correct_rejection	NA	0
47	Correct	125	287	773	5	0	0	603432	692	0	correct_rejection	NA	0
47	Correct	126	288	774	0	1	1	604141	692	1	hit	418	0
47	Correct	127	289	775	6	0	0	604849	692	0	correct_rejection	NA	0
47	Correct	128	290	776	4	0	0	605558	692	0	correct_rejection	NA	0
47	Correct	129	291	777	5	0	0	606267	691	0	correct_rejection	NA	0
47	Correct	130	292	778	6	0	0	606975	692	0	correct_rejection	NA	0
47	Correct	131	293	779	4	0	0	607684	691	0	correct_rejection	NA	0
47	Correct	132	294	780	5	0	0	608392	692	0	correct_rejection	NA	0
47	Correct	133	295	781	6	0	0	609101	692	0	correct_rejection	NA	0
47	Correct	134	296	782	6	0	0	609809	692	0	correct_rejection	NA	0
47	Correct	135	297	783	5	0	0	610518	692	0	correct_rejection	NA	0
47	Correct	136	298	784	4	0	0	611227	691	0	correct_rejection	NA	0
47	Correct	137	299	785	6	0	0	611935	692	0	correct_rejection	NA	0
47	Correct	138	300	786	5	0	0	612644	691	0	correct_rejection	NA	0
47	Correct	139	301	787	4	0	0	613352	692	0	correct_rejection	NA	0
47	Correct	140	302	788	6	0	0	614061	691	0	correct_rejection	NA	0
47	Correct	141	303	789	5	0	0	614769	692	0	correct_rejection	NA	0
47	Correct	142	304	790	4	0	0	615478	692	0	correct_rejection	NA	0
47	Correct	143	305	791	9	0	0	616186	692	0	correct_rejection	NA	0
47	Correct	144	306	792	8	0	0	616895	692	0	correct_rejection	NA	0
47	Correct	145	307	793	7	0	0	617604	691	0	correct_rejection	NA	0
47	Correct	146	308	794	9	0	0	618312	692	0	correct_rejection	NA	0
47	Correct	147	309	795	8	0	0	619021	691	0	correct_rejection	NA	0
47	Correct	148	310	796	0	1	1	619729	692	1	hit	539	0
47	Correct	149	311	797	7	0	0	620438	692	0	correct_rejection	NA	0
47	Correct	150	312	798	9	0	0	621146	692	0	correct_rejection	NA	0
47	Correct	151	313	799	8	0	0	621855	692	0	correct_rejection	NA	0
47	Correct	152	314	800	7	0	0	622564	691	0	correct_rejection	NA	0
47	Correct	153	315	801	7	0	0	623272	692	0	correct_rejection	NA	0
47	Correct	154	316	802	0	1	1	623981	691	1	hit	372	0
47	Correct	155	317	803	8	0	0	624689	692	0	correct_rejection	NA	0
47	Correct	156	318	804	9	0	0	625398	692	0	correct_rejection	NA	0
47	Correct	157	319	805	7	0	0	626106	692	0	correct_rejection	NA	0
47	Correct	158	320	806	8	0	0	626815	692	0	correct_rejection	NA	0
47	Correct	159	321	807	9	0	0	627524	691	0	correct_rejection	NA	0
47	Correct	160	322	808	7	0	0	628232	692	0	correct_rejection	NA	0
47	Correct	161	323	809	8	0	0	628941	691	0	correct_rejection	NA	0
47	Correct	162	324	810	9	0	0	629649	692	0	correct_rejection	NA	0
trigger nr 622 at 632044
trigger nr 625 at 710996
47	Single	1	163	811	8	0	0	718028	692	0	correct_rejection	NA	6999
47	Single	2	164	812	6	0	0	718737	692	0	correct_rejection	NA	0
47	Single	3	165	813	7	0	0	719446	691	0	correct_rejection	NA	0
47	Single	4	166	814	5	0	0	720154	692	0	correct_rejection	NA	0
47	Single	5	167	815	0	1	1	720863	691	1	hit	320	0
47	Single	6	168	816	5	0	0	721571	692	0	correct_rejection	NA	0
47	Single	7	169	817	7	0	0	722280	692	0	correct_rejection	NA	0
47	Single	8	170	818	6	0	0	722988	692	0	correct_rejection	NA	0
47	Single	9	171	819	0	1	1	723697	692	1	hit	320	0
47	Single	10	172	820	8	0	0	724406	691	0	correct_rejection	NA	0
47	Single	11	173	821	7	0	0	725114	692	0	correct_rejection	NA	0
47	Single	12	174	822	7	0	0	725823	691	0	correct_rejection	NA	0
47	Single	13	175	823	8	0	0	726531	692	0	correct_rejection	NA	0
47	Single	14	176	824	8	0	0	727240	692	0	correct_rejection	NA	0
47	Single	15	177	825	4	0	0	727948	692	0	correct_rejection	NA	0
47	Single	16	178	826	7	0	0	728657	692	0	correct_rejection	NA	0
47	Single	17	179	827	0	1	1	729366	691	1	hit	291	0
47	Single	18	180	828	9	0	0	730074	692	0	correct_rejection	NA	0
47	Single	19	181	829	6	0	0	730783	691	0	correct_rejection	NA	0
47	Single	20	182	830	5	0	0	731491	692	0	correct_rejection	NA	0
47	Single	21	183	831	9	0	0	732200	692	0	correct_rejection	NA	0
47	Single	22	184	832	7	0	0	732908	692	0	correct_rejection	NA	0
47	Single	23	185	833	4	0	0	733617	692	0	correct_rejection	NA	0
47	Single	24	186	834	4	0	0	734326	691	0	correct_rejection	NA	0
47	Single	25	187	835	0	1	1	735034	692	1	hit	443	0
47	Single	26	188	836	6	0	0	735743	691	0	correct_rejection	NA	0
47	Single	27	189	837	9	0	0	736451	692	0	correct_rejection	NA	0
47	Single	28	190	838	9	0	0	737160	692	0	correct_rejection	NA	0
47	Single	29	191	839	5	0	0	737868	692	0	correct_rejection	NA	0
47	Single	30	192	840	6	0	0	738577	692	0	correct_rejection	NA	0
47	Single	31	193	841	6	0	0	739286	691	0	correct_rejection	NA	0
47	Single	32	194	842	0	1	1	739994	692	1	hit	417	0
47	Single	33	195	843	4	0	0	740703	691	0	correct_rejection	NA	0
47	Single	34	196	844	8	0	0	741411	692	0	correct_rejection	NA	0
47	Single	35	197	845	5	0	0	742120	691	0	correct_rejection	NA	0
47	Single	36	198	846	4	0	0	742828	692	0	correct_rejection	NA	0
47	Single	37	199	847	9	0	0	743537	692	0	correct_rejection	NA	0
47	Single	38	200	848	4	0	0	744245	692	0	correct_rejection	NA	0
47	Single	39	201	849	5	0	0	744954	692	0	correct_rejection	NA	0
47	Single	40	202	850	8	0	0	745663	691	0	correct_rejection	NA	0
47	Single	41	203	851	9	0	0	746371	692	0	correct_rejection	NA	0
47	Single	42	204	852	9	0	0	747080	691	0	correct_rejection	NA	0
47	Single	43	205	853	7	0	0	747788	692	0	correct_rejection	NA	0
47	Single	44	206	854	6	0	0	748497	692	0	correct_rejection	NA	0
47	Single	45	207	855	9	0	0	749205	692	0	correct_rejection	NA	0
47	Single	46	208	856	6	0	0	749914	692	0	correct_rejection	NA	0
47	Single	47	209	857	8	0	0	750623	691	0	correct_rejection	NA	0
47	Single	48	210	858	0	1	1	751331	692	1	hit	443	0
47	Single	49	211	859	4	0	0	752040	691	0	correct_rejection	NA	0
47	Single	50	212	860	8	0	0	752748	692	0	correct_rejection	NA	0
47	Single	51	213	861	8	0	0	753457	692	0	correct_rejection	NA	0
47	Single	52	214	862	0	1	1	754165	692	1	hit	539	0
47	Single	53	215	863	5	0	0	754874	692	0	correct_rejection	NA	0
47	Single	54	216	864	7	0	0	755583	691	0	correct_rejection	NA	0
47	Single	55	217	865	7	0	0	756291	692	0	correct_rejection	NA	0
47	Single	56	218	866	5	0	0	757000	691	0	correct_rejection	NA	0
47	Single	57	219	867	6	0	0	757708	692	0	correct_rejection	NA	0
47	Single	58	220	868	4	0	0	758417	692	0	correct_rejection	NA	0
47	Single	59	221	869	7	0	0	759125	692	0	correct_rejection	NA	0
47	Single	60	222	870	0	1	1	759834	692	1	hit	356	0
47	Single	61	223	871	4	0	0	760543	691	0	correct_rejection	NA	0
47	Single	62	224	872	6	0	0	761251	692	0	correct_rejection	NA	0
47	Single	63	225	873	5	0	0	761960	691	0	correct_rejection	NA	0
47	Single	64	226	874	5	0	0	762668	692	0	correct_rejection	NA	0
47	Single	65	227	875	8	0	0	763377	692	0	correct_rejection	NA	0
47	Single	66	228	876	0	1	1	764085	692	1	hit	393	0
47	Single	67	229	877	7	0	0	764794	692	0	correct_rejection	NA	0
47	Single	68	230	878	8	0	0	765503	691	0	correct_rejection	NA	0
47	Single	69	231	879	9	0	0	766211	692	0	correct_rejection	NA	0
47	Single	70	232	880	0	1	1	766920	691	1	hit	377	0
47	Single	71	233	881	4	0	0	767628	692	0	correct_rejection	NA	0
47	Single	72	234	882	9	0	0	768337	691	0	correct_rejection	NA	0
47	Single	73	235	883	5	0	0	769045	692	0	correct_rejection	NA	0
47	Single	74	236	884	4	0	0	769754	692	0	correct_rejection	NA	0
47	Single	75	237	885	4	0	0	770462	692	0	correct_rejection	NA	0
47	Single	76	238	886	5	0	0	771171	692	0	correct_rejection	NA	0
47	Single	77	239	887	0	1	1	771880	691	1	hit	437	0
47	Single	78	240	888	9	0	0	772588	692	0	correct_rejection	NA	0
47	Single	79	241	889	9	0	0	773297	691	0	correct_rejection	NA	0
47	Single	80	242	890	8	0	0	774005	692	0	correct_rejection	NA	0
47	Single	81	243	891	6	0	0	774714	692	0	correct_rejection	NA	0
47	Single	82	244	892	6	0	0	775422	692	0	correct_rejection	NA	0
47	Single	83	245	893	7	0	0	776131	692	0	correct_rejection	NA	0
47	Single	84	246	894	7	0	0	776840	691	0	correct_rejection	NA	0
47	Single	85	247	895	5	0	0	777548	692	0	correct_rejection	NA	0
47	Single	86	248	896	7	0	0	778257	691	0	correct_rejection	NA	0
47	Single	87	249	897	9	0	0	778965	692	0	correct_rejection	NA	0
47	Single	88	250	898	9	0	0	779674	692	0	correct_rejection	NA	0
47	Single	89	251	899	7	0	0	780382	692	0	correct_rejection	NA	0
47	Single	90	252	900	7	0	0	781091	692	0	correct_rejection	NA	0
47	Single	91	253	901	4	0	0	781800	691	0	correct_rejection	NA	0
47	Single	92	254	902	8	0	0	782508	692	0	correct_rejection	NA	0
47	Single	93	255	903	7	0	0	783217	691	0	correct_rejection	NA	0
47	Single	94	256	904	6	0	0	783925	692	0	correct_rejection	NA	0
47	Single	95	257	905	5	0	0	784634	692	0	correct_rejection	NA	0
47	Single	96	258	906	6	0	0	785342	692	0	correct_rejection	NA	0
47	Single	97	259	907	7	0	0	786051	692	0	correct_rejection	NA	0
47	Single	98	260	908	8	0	0	786760	691	0	correct_rejection	NA	0
47	Single	99	261	909	5	0	0	787468	692	0	correct_rejection	NA	0
47	Single	100	262	910	9	0	0	788177	691	0	correct_rejection	NA	0
47	Single	101	263	911	4	0	0	788885	692	0	correct_rejection	NA	0
47	Single	102	264	912	4	0	0	789594	692	0	correct_rejection	NA	0
47	Single	103	265	913	9	0	0	790302	692	0	correct_rejection	NA	0
47	Single	104	266	914	0	1	1	791011	692	1	hit	404	0
47	Single	105	267	915	8	0	0	791720	691	0	correct_rejection	NA	0
47	Single	106	268	916	9	0	0	792428	692	0	correct_rejection	NA	0
47	Single	107	269	917	6	0	0	793137	691	0	correct_rejection	NA	0
47	Single	108	270	918	9	0	0	793845	692	0	correct_rejection	NA	0
47	Single	109	271	919	0	1	1	794554	691	1	hit	465	0
47	Single	110	272	920	5	0	0	795262	692	0	correct_rejection	NA	0
47	Single	111	273	921	8	0	0	795971	692	0	correct_rejection	NA	0
47	Single	112	274	922	4	0	0	796680	691	0	correct_rejection	NA	0
47	Single	113	275	923	5	0	0	797388	692	0	correct_rejection	NA	0
47	Single	114	276	924	5	0	0	798097	691	0	correct_rejection	NA	0
47	Single	115	277	925	4	0	0	798805	692	0	correct_rejection	NA	0
47	Single	116	278	926	6	0	0	799514	691	0	correct_rejection	NA	0
47	Single	117	279	927	6	0	0	800222	692	0	correct_rejection	NA	0
47	Single	118	280	928	8	0	0	800931	692	0	correct_rejection	NA	0
47	Single	119	281	929	8	0	0	801639	692	0	correct_rejection	NA	0
47	Single	120	282	930	6	0	0	802348	692	0	correct_rejection	NA	0
47	Single	121	283	931	4	0	0	803057	691	0	correct_rejection	NA	0
47	Single	122	284	932	8	0	0	803765	692	0	correct_rejection	NA	0
47	Single	123	285	933	4	0	0	804474	691	0	correct_rejection	NA	0
47	Single	124	286	934	6	0	0	805182	692	0	correct_rejection	NA	0
47	Single	125	287	935	0	1	1	805891	692	1	hit	404	0
47	Single	126	288	936	9	0	0	806599	692	0	correct_rejection	NA	0
47	Single	127	289	937	8	0	0	807308	692	0	correct_rejection	NA	0
47	Single	128	290	938	8	0	0	808017	691	0	correct_rejection	NA	0
47	Single	129	291	939	0	1	1	808725	692	1	hit	528	0
47	Single	130	292	940	9	0	0	809434	691	0	correct_rejection	NA	0
47	Single	131	293	941	5	0	0	810142	692	0	correct_rejection	NA	0
47	Single	132	294	942	9	0	0	810851	692	0	correct_rejection	NA	0
47	Single	133	295	943	7	0	0	811559	692	0	correct_rejection	NA	0
47	Single	134	296	944	5	0	0	812268	692	0	correct_rejection	NA	0
47	Single	135	297	945	8	0	0	812977	691	0	correct_rejection	NA	0
47	Single	136	298	946	5	0	0	813685	692	0	correct_rejection	NA	0
47	Single	137	299	947	5	0	0	814394	691	0	correct_rejection	NA	0
47	Single	138	300	948	6	0	0	815102	692	0	correct_rejection	NA	0
47	Single	139	301	949	8	0	0	815811	692	0	correct_rejection	NA	0
47	Single	140	302	950	0	1	1	816519	692	1	hit	669	0
47	Single	141	303	951	6	0	0	817228	692	0	correct_rejection	NA	0
47	Single	142	304	952	7	0	0	817937	691	0	correct_rejection	NA	0
47	Single	143	305	953	9	0	0	818645	692	0	correct_rejection	NA	0
47	Single	144	306	954	6	0	0	819354	691	0	correct_rejection	NA	0
47	Single	145	307	955	0	1	1	820062	692	1	hit	462	0
47	Single	146	308	956	5	0	0	820771	691	0	correct_rejection	NA	0
47	Single	147	309	957	4	0	0	821479	692	0	correct_rejection	NA	0
47	Single	148	310	958	0	1	1	822188	692	1	hit	423	0
47	Single	149	311	959	5	0	0	822897	691	0	correct_rejection	NA	0
47	Single	150	312	960	7	0	0	823605	692	0	correct_rejection	NA	0
47	Single	151	313	961	8	0	0	824314	691	0	correct_rejection	NA	0
47	Single	152	314	962	7	0	0	825022	692	0	correct_rejection	NA	0
47	Single	153	315	963	4	0	0	825731	691	0	correct_rejection	NA	0
47	Single	154	316	964	4	0	0	826439	692	0	correct_rejection	NA	0
47	Single	155	317	965	7	0	0	827148	692	0	correct_rejection	NA	0
47	Single	156	318	966	7	0	0	827856	692	0	correct_rejection	NA	0
47	Single	157	319	967	6	0	0	828565	692	0	correct_rejection	NA	0
47	Single	158	320	968	6	0	0	829274	691	0	correct_rejection	NA	0
47	Single	159	321	969	4	0	0	829982	692	0	correct_rejection	NA	0
47	Single	160	322	970	9	0	0	830691	691	0	correct_rejection	NA	0
47	Single	161	323	971	9	0	0	831399	692	0	correct_rejection	NA	0
47	Single	162	324	972	4	0	0	832108	692	0	correct_rejection	NA	0
47	Triplet	1	487	973	6	0	0	841253	691	0	correct_rejection	NA	7219
47	Triplet	2	488	974	5	0	0	841961	692	0	correct_rejection	NA	0
47	Triplet	3	489	975	4	0	0	842670	691	0	correct_rejection	NA	0
47	Triplet	4	490	976	4	0	0	843378	692	0	correct_rejection	NA	0
47	Triplet	5	491	977	5	0	0	844087	692	0	correct_rejection	NA	0
47	Triplet	6	492	978	6	0	0	844795	692	0	correct_rejection	NA	0
47	Triplet	7	493	979	9	0	0	845504	692	0	correct_rejection	NA	0
47	Triplet	8	494	980	8	0	0	846213	691	0	correct_rejection	NA	0
47	Triplet	9	495	981	7	0	0	846921	692	0	correct_rejection	NA	0
47	Triplet	10	496	982	0	1	2	847630	691	1	hit	380	0
47	Triplet	11	497	983	4	0	0	848338	692	0	correct_rejection	NA	0
47	Triplet	12	498	984	5	0	0	849047	692	0	correct_rejection	NA	0
47	Triplet	13	499	985	0	1	1	849755	692	1	hit	519	0
47	Triplet	14	500	986	6	0	0	850464	692	0	correct_rejection	NA	0
47	Triplet	15	501	987	6	0	0	851173	691	0	correct_rejection	NA	0
47	Triplet	16	502	988	5	0	0	851881	692	0	correct_rejection	NA	0
47	Triplet	17	503	989	0	1	1	852590	691	1	hit	347	0
47	Triplet	18	504	990	4	0	0	853298	692	0	correct_rejection	NA	0
47	Triplet	19	505	991	6	0	0	854007	691	0	correct_rejection	NA	0
47	Triplet	20	506	992	5	0	0	854715	692	0	correct_rejection	NA	0
47	Triplet	21	507	993	4	0	0	855424	692	0	correct_rejection	NA	0
47	Triplet	22	508	994	7	0	0	856132	692	0	correct_rejection	NA	0
47	Triplet	23	509	995	0	1	1	856841	692	1	hit	358	0
47	Triplet	24	510	996	8	0	0	857550	691	0	correct_rejection	NA	0
47	Triplet	25	511	997	9	0	0	858258	692	0	correct_rejection	NA	0
47	Triplet	26	512	998	6	0	0	858967	691	0	correct_rejection	NA	0
47	Triplet	27	513	999	0	1	1	859675	692	1	hit	463	0
47	Triplet	28	514	1000	5	0	0	860384	692	0	correct_rejection	NA	0
47	Triplet	29	515	1001	4	0	0	861092	692	0	correct_rejection	NA	0
47	Triplet	30	516	1002	9	0	0	861801	692	0	correct_rejection	NA	0
47	Triplet	31	517	1003	0	1	1	862510	691	1	hit	344	0
47	Triplet	32	518	1004	8	0	0	863218	692	0	correct_rejection	NA	0
47	Triplet	33	519	1005	7	0	0	863927	691	0	correct_rejection	NA	0
47	Triplet	34	520	1006	9	0	0	864635	692	0	correct_rejection	NA	0
47	Triplet	35	521	1007	8	0	0	865344	692	0	correct_rejection	NA	0
47	Triplet	36	522	1008	0	1	1	866052	692	1	hit	390	0
47	Triplet	37	523	1009	7	0	0	866761	692	0	correct_rejection	NA	0
47	Triplet	38	524	1010	7	0	0	867470	691	0	correct_rejection	NA	0
47	Triplet	39	525	1011	8	0	0	868178	692	0	correct_rejection	NA	0
47	Triplet	40	526	1012	9	0	0	868887	691	0	correct_rejection	NA	0
47	Triplet	41	527	1013	0	1	2	869595	692	1	hit	383	0
47	Triplet	42	528	1014	4	0	0	870304	692	0	correct_rejection	NA	0
47	Triplet	43	529	1015	5	0	0	871012	692	0	correct_rejection	NA	0
47	Triplet	44	530	1016	6	0	0	871721	692	0	correct_rejection	NA	0
47	Triplet	45	531	1017	4	0	0	872430	691	0	correct_rejection	NA	0
47	Triplet	46	532	1018	5	0	0	873138	692	0	correct_rejection	NA	0
47	Triplet	47	533	1019	6	0	0	873847	691	0	correct_rejection	NA	0
47	Triplet	48	534	1020	7	0	0	874555	692	0	correct_rejection	NA	0
47	Triplet	49	535	1021	8	0	0	875264	692	0	correct_rejection	NA	0
47	Triplet	50	536	1022	9	0	0	875972	692	0	correct_rejection	NA	0
47	Triplet	51	537	1023	7	0	0	876681	692	0	correct_rejection	NA	0
47	Triplet	52	538	1024	8	0	0	877390	691	0	correct_rejection	NA	0
47	Triplet	53	539	1025	0	1	1	878098	692	1	hit	426	0
47	Triplet	54	540	1026	9	0	0	878807	691	0	correct_rejection	NA	0
47	Triplet	55	541	1027	9	0	0	879515	692	0	correct_rejection	NA	0
47	Triplet	56	542	1028	8	0	0	880224	691	0	correct_rejection	NA	0
47	Triplet	57	543	1029	7	0	0	880932	692	0	correct_rejection	NA	0
47	Triplet	58	544	1030	4	0	0	881641	692	0	correct_rejection	NA	0
47	Triplet	59	545	1031	5	0	0	882349	692	0	correct_rejection	NA	0
47	Triplet	60	546	1032	0	1	1	883058	692	1	hit	316	0
47	Triplet	61	547	1033	6	0	0	883767	691	0	correct_rejection	NA	0
47	Triplet	62	548	1034	7	0	0	884475	692	0	correct_rejection	NA	0
47	Triplet	63	549	1035	8	0	0	885184	691	0	correct_rejection	NA	0
47	Triplet	64	550	1036	9	0	0	885892	692	0	correct_rejection	NA	0
47	Triplet	65	551	1037	6	0	0	886601	692	0	correct_rejection	NA	0
47	Triplet	66	552	1038	0	1	1	887309	692	1	hit	380	0
47	Triplet	67	553	1039	5	0	0	888018	692	0	correct_rejection	NA	0
47	Triplet	68	554	1040	4	0	0	888727	691	0	correct_rejection	NA	0
47	Triplet	69	555	1041	6	0	0	889435	692	0	correct_rejection	NA	0
47	Triplet	70	556	1042	5	0	0	890144	691	0	correct_rejection	NA	0
47	Triplet	71	557	1043	4	0	0	890852	692	0	correct_rejection	NA	0
47	Triplet	72	558	1044	4	0	0	891561	692	0	correct_rejection	NA	0
47	Triplet	73	559	1045	5	0	0	892269	692	0	correct_rejection	NA	0
47	Triplet	74	560	1046	6	0	0	892978	692	0	correct_rejection	NA	0
47	Triplet	75	561	1047	4	0	0	893687	691	0	correct_rejection	NA	0
47	Triplet	76	562	1048	5	0	0	894395	692	0	correct_rejection	NA	0
47	Triplet	77	563	1049	6	0	0	895104	691	0	correct_rejection	NA	0
47	Triplet	78	564	1050	0	1	2	895812	692	1	hit	388	0
47	Triplet	79	565	1051	6	0	0	896521	692	0	correct_rejection	NA	0
47	Triplet	80	566	1052	5	0	0	897229	692	0	correct_rejection	NA	0
47	Triplet	81	567	1053	4	0	0	897938	692	0	correct_rejection	NA	0
47	Triplet	82	568	1054	7	0	0	898647	691	0	correct_rejection	NA	0
47	Triplet	83	569	1055	0	1	1	899355	692	1	hit	357	0
47	Triplet	84	570	1056	8	0	0	900064	691	0	correct_rejection	NA	0
47	Triplet	85	571	1057	9	0	0	900772	692	0	correct_rejection	NA	0
47	Triplet	86	572	1058	0	1	2	901481	692	1	hit	378	0
47	Triplet	87	573	1059	9	0	0	902189	692	0	correct_rejection	NA	0
47	Triplet	88	574	1060	8	0	0	902898	692	0	correct_rejection	NA	0
47	Triplet	89	575	1061	0	1	1	903607	691	1	hit	348	0
47	Triplet	90	576	1062	7	0	0	904315	692	0	correct_rejection	NA	0
47	Triplet	91	577	1063	4	0	0	905024	691	0	correct_rejection	NA	0
47	Triplet	92	578	1064	5	0	0	905732	692	0	correct_rejection	NA	0
47	Triplet	93	579	1065	6	0	0	906441	691	0	correct_rejection	NA	0
47	Triplet	94	580	1066	9	0	0	907149	692	0	correct_rejection	NA	0
47	Triplet	95	581	1067	8	0	0	907858	692	0	correct_rejection	NA	0
47	Triplet	96	582	1068	7	0	0	908566	692	0	correct_rejection	NA	0
47	Triplet	97	583	1069	9	0	0	909275	692	0	correct_rejection	NA	0
47	Triplet	98	584	1070	8	0	0	909984	691	0	correct_rejection	NA	0
47	Triplet	99	585	1071	0	1	1	910692	692	1	hit	367	0
47	Triplet	100	586	1072	7	0	0	911401	691	0	correct_rejection	NA	0
47	Triplet	101	587	1073	6	0	0	912109	692	0	correct_rejection	NA	0
47	Triplet	102	588	1074	5	0	0	912818	692	0	correct_rejection	NA	0
47	Triplet	103	589	1075	4	0	0	913526	692	0	correct_rejection	NA	0
47	Triplet	104	590	1076	9	0	0	914235	692	0	correct_rejection	NA	0
47	Triplet	105	591	1077	8	0	0	914944	691	0	correct_rejection	NA	0
47	Triplet	106	592	1078	7	0	0	915652	692	0	correct_rejection	NA	0
47	Triplet	107	593	1079	7	0	0	916361	691	0	correct_rejection	NA	0
47	Triplet	108	594	1080	8	0	0	917069	692	0	correct_rejection	NA	0
47	Triplet	109	595	1081	9	0	0	917778	692	0	correct_rejection	NA	0
47	Triplet	110	596	1082	7	0	0	918486	692	0	correct_rejection	NA	0
47	Triplet	111	597	1083	8	0	0	919195	692	0	correct_rejection	NA	0
47	Triplet	112	598	1084	9	0	0	919904	691	0	correct_rejection	NA	0
47	Triplet	113	599	1085	6	0	0	920612	692	0	correct_rejection	NA	0
47	Triplet	114	600	1086	5	0	0	921321	691	0	correct_rejection	NA	0
47	Triplet	115	601	1087	4	0	0	922029	692	0	correct_rejection	NA	0
47	Triplet	116	602	1088	0	1	2	922738	692	1	hit	480	0
47	Triplet	117	603	1089	9	0	0	923446	692	0	correct_rejection	NA	0
47	Triplet	118	604	1090	8	0	0	924155	692	0	correct_rejection	NA	0
47	Triplet	119	605	1091	7	0	0	924864	691	0	correct_rejection	NA	0
47	Triplet	120	606	1092	6	0	0	925572	692	0	correct_rejection	NA	0
47	Triplet	121	607	1093	5	0	0	926281	691	0	correct_rejection	NA	0
47	Triplet	122	608	1094	4	0	0	926989	692	0	correct_rejection	NA	0
47	Triplet	123	609	1095	7	0	0	927698	692	0	correct_rejection	NA	0
47	Triplet	124	610	1096	8	0	0	928406	692	0	correct_rejection	NA	0
47	Triplet	125	611	1097	9	0	0	929115	692	0	correct_rejection	NA	0
47	Triplet	126	612	1098	7	0	0	929824	691	0	correct_rejection	NA	0
47	Triplet	127	613	1099	8	0	0	930532	692	0	correct_rejection	NA	0
47	Triplet	128	614	1100	9	0	0	931241	691	0	correct_rejection	NA	0
47	Triplet	129	615	1101	4	0	0	931949	692	0	correct_rejection	NA	0
47	Triplet	130	616	1102	5	0	0	932658	691	0	correct_rejection	NA	0
47	Triplet	131	617	1103	6	0	0	933366	692	0	correct_rejection	NA	0
47	Triplet	132	618	1104	6	0	0	934075	692	0	correct_rejection	NA	0
47	Triplet	133	619	1105	5	0	0	934784	691	0	correct_rejection	NA	0
47	Triplet	134	620	1106	4	0	0	935492	692	0	correct_rejection	NA	0
47	Triplet	135	621	1107	4	0	0	936201	691	0	correct_rejection	NA	0
47	Triplet	136	622	1108	5	0	0	936909	692	0	correct_rejection	NA	0
47	Triplet	137	623	1109	6	0	0	937618	691	0	correct_rejection	NA	0
47	Triplet	138	624	1110	7	0	0	938326	692	0	correct_rejection	NA	0
47	Triplet	139	625	1111	8	0	0	939035	692	0	correct_rejection	NA	0
47	Triplet	140	626	1112	9	0	0	939743	692	0	correct_rejection	NA	0
47	Triplet	141	627	1113	9	0	0	940452	692	0	correct_rejection	NA	0
47	Triplet	142	628	1114	8	0	0	941161	691	0	correct_rejection	NA	0
47	Triplet	143	629	1115	7	0	0	941869	692	0	correct_rejection	NA	0
47	Triplet	144	630	1116	0	1	2	942578	691	1	hit	343	0
47	Triplet	145	631	1117	9	0	0	943286	692	0	correct_rejection	NA	0
47	Triplet	146	632	1118	8	0	0	943995	692	0	correct_rejection	NA	0
47	Triplet	147	633	1119	7	0	0	944703	692	0	correct_rejection	NA	0
47	Triplet	148	634	1120	4	0	0	945412	692	0	correct_rejection	NA	0
47	Triplet	149	635	1121	5	0	0	946121	691	0	correct_rejection	NA	0
47	Triplet	150	636	1122	6	0	0	946829	692	0	correct_rejection	NA	0
47	Triplet	151	637	1123	4	0	0	947538	691	0	correct_rejection	NA	0
47	Triplet	152	638	1124	5	0	0	948246	692	0	correct_rejection	NA	0
47	Triplet	153	639	1125	6	0	0	948955	692	0	correct_rejection	NA	0
47	Triplet	154	640	1126	9	0	0	949663	692	0	correct_rejection	NA	0
47	Triplet	155	641	1127	8	0	0	950372	692	0	correct_rejection	NA	0
47	Triplet	156	642	1128	7	0	0	951081	691	0	correct_rejection	NA	0
47	Triplet	157	643	1129	7	0	0	951789	692	0	correct_rejection	NA	0
47	Triplet	158	644	1130	8	0	0	952498	691	0	correct_rejection	NA	0
47	Triplet	159	645	1131	9	0	0	953206	692	0	correct_rejection	NA	0
47	Triplet	160	646	1132	6	0	0	953915	692	0	correct_rejection	NA	0
47	Triplet	161	647	1133	5	0	0	954623	692	0	correct_rejection	NA	0
47	Triplet	162	648	1134	4	0	0	955332	692	0	correct_rejection	NA	0
47	Correct	1	1	1135	4	0	0	965127	692	0	correct_rejection	NA	7099
47	Correct	2	2	1136	5	0	0	965835	692	0	correct_rejection	NA	0
47	Correct	3	3	1137	6	0	0	966544	692	0	correct_rejection	NA	0
47	Correct	4	4	1138	0	1	2	967253	691	0	miss	NA	0
47	Correct	5	5	1139	4	0	0	967961	692	0	correct_rejection	NA	0
47	Correct	6	6	1140	5	0	0	968670	691	0	correct_rejection	NA	0
47	Correct	7	7	1141	6	0	0	969378	692	0	correct_rejection	NA	0
47	Correct	8	8	1142	4	0	0	970087	692	0	correct_rejection	NA	0
47	Correct	9	9	1143	5	0	0	970795	692	0	correct_rejection	NA	0
47	Correct	10	10	1144	6	0	0	971504	692	0	correct_rejection	NA	0
47	Correct	11	11	1145	0	1	3	972213	691	1	hit	393	0
47	Correct	12	12	1146	6	0	0	972921	692	0	correct_rejection	NA	0
47	Correct	13	13	1147	5	0	0	973630	691	0	correct_rejection	NA	0
47	Correct	14	14	1148	4	0	0	974338	692	0	correct_rejection	NA	0
47	Correct	15	15	1149	6	0	0	975047	692	0	correct_rejection	NA	0
47	Correct	16	16	1150	0	1	1	975755	692	1	hit	376	0
47	Correct	17	17	1151	5	0	0	976464	692	0	correct_rejection	NA	0
47	Correct	18	18	1152	4	0	0	977173	691	0	correct_rejection	NA	0
47	Correct	19	19	1153	6	0	0	977881	692	0	correct_rejection	NA	0
47	Correct	20	20	1154	5	0	0	978590	691	0	correct_rejection	NA	0
47	Correct	21	21	1155	4	0	0	979298	692	0	correct_rejection	NA	0
47	Correct	22	22	1156	9	0	0	980007	691	0	correct_rejection	NA	0
47	Correct	23	23	1157	8	0	0	980715	692	0	correct_rejection	NA	0
47	Correct	24	24	1158	7	0	0	981424	692	0	correct_rejection	NA	0
47	Correct	25	25	1159	9	0	0	982132	692	0	correct_rejection	NA	0
47	Correct	26	26	1160	8	0	0	982841	692	0	correct_rejection	NA	0
47	Correct	27	27	1161	7	0	0	983550	691	0	correct_rejection	NA	0
47	Correct	28	28	1162	0	1	2	984258	692	1	hit	397	0
47	Correct	29	29	1163	9	0	0	984967	691	0	correct_rejection	NA	0
47	Correct	30	30	1164	8	0	0	985675	692	0	correct_rejection	NA	0
47	Correct	31	31	1165	7	0	0	986384	692	0	correct_rejection	NA	0
47	Correct	32	32	1166	7	0	0	987092	692	0	correct_rejection	NA	0
47	Correct	33	33	1167	8	0	0	987801	692	0	correct_rejection	NA	0
47	Correct	34	34	1168	9	0	0	988510	691	0	correct_rejection	NA	0
47	Correct	35	35	1169	7	0	0	989218	692	0	correct_rejection	NA	0
47	Correct	36	36	1170	8	0	0	989927	691	0	correct_rejection	NA	0
47	Correct	37	37	1171	9	0	0	990635	692	0	correct_rejection	NA	0
47	Correct	38	38	1172	7	0	0	991344	692	0	correct_rejection	NA	0
47	Correct	39	39	1173	8	0	0	992052	692	0	correct_rejection	NA	0
47	Correct	40	40	1174	9	0	0	992761	692	0	correct_rejection	NA	0
47	Correct	41	41	1175	0	1	4	993470	691	1	hit	390	0
47	Correct	42	42	1176	4	0	0	994178	692	0	correct_rejection	NA	0
47	Correct	43	43	1177	5	0	0	994887	691	0	correct_rejection	NA	0
47	Correct	44	44	1178	0	1	1	995595	692	1	hit	423	0
47	Correct	45	45	1179	6	0	0	996304	692	0	correct_rejection	NA	0
47	Correct	46	46	1180	4	0	0	997012	692	0	correct_rejection	NA	0
47	Correct	47	47	1181	5	0	0	997721	692	0	correct_rejection	NA	0
47	Correct	48	48	1182	6	0	0	998430	691	0	correct_rejection	NA	0
47	Correct	49	49	1183	4	0	0	999138	692	0	correct_rejection	NA	0
47	Correct	50	50	1184	5	0	0	999847	691	0	correct_rejection	NA	0
47	Correct	51	51	1185	6	0	0	1000555	692	0	correct_rejection	NA	0
47	Correct	52	52	1186	6	0	0	1001264	692	0	correct_rejection	NA	0
47	Correct	53	53	1187	5	0	0	1001972	692	0	correct_rejection	NA	0
47	Correct	54	54	1188	4	0	0	1002681	692	0	correct_rejection	NA	0
47	Correct	55	55	1189	6	0	0	1003390	691	0	correct_rejection	NA	0
47	Correct	56	56	1190	5	0	0	1004098	692	0	correct_rejection	NA	0
47	Correct	57	57	1191	4	0	0	1004807	691	0	correct_rejection	NA	0
47	Correct	58	58	1192	6	0	0	1005515	692	0	correct_rejection	NA	0
47	Correct	59	59	1193	5	0	0	1006224	691	0	correct_rejection	NA	0
47	Correct	60	60	1194	4	0	0	1006932	692	0	correct_rejection	NA	0
47	Correct	61	61	1195	9	0	0	1007641	692	0	correct_rejection	NA	0
47	Correct	62	62	1196	8	0	0	1008349	692	0	correct_rejection	NA	0
47	Correct	63	63	1197	7	0	0	1009058	692	0	correct_rejection	NA	0
47	Correct	64	64	1198	9	0	0	1009767	691	0	correct_rejection	NA	0
47	Correct	65	65	1199	8	0	0	1010475	692	0	correct_rejection	NA	0
47	Correct	66	66	1200	7	0	0	1011184	691	0	correct_rejection	NA	0
47	Correct	67	67	1201	9	0	0	1011892	692	0	correct_rejection	NA	0
47	Correct	68	68	1202	8	0	0	1012601	692	0	correct_rejection	NA	0
47	Correct	69	69	1203	7	0	0	1013309	692	0	correct_rejection	NA	0
47	Correct	70	70	1204	7	0	0	1014018	692	0	correct_rejection	NA	0
47	Correct	71	71	1205	8	0	0	1014727	691	0	correct_rejection	NA	0
47	Correct	72	72	1206	9	0	0	1015435	692	0	correct_rejection	NA	0
47	Correct	73	73	1207	7	0	0	1016144	691	0	correct_rejection	NA	0
47	Correct	74	74	1208	8	0	0	1016852	692	0	correct_rejection	NA	0
47	Correct	75	75	1209	9	0	0	1017561	692	0	correct_rejection	NA	0
47	Correct	76	76	1210	7	0	0	1018269	692	0	correct_rejection	NA	0
47	Correct	77	77	1211	8	0	0	1018978	692	0	correct_rejection	NA	0
47	Correct	78	78	1212	9	0	0	1019687	691	0	correct_rejection	NA	0
47	Correct	79	79	1213	4	0	0	1020395	692	0	correct_rejection	NA	0
47	Correct	80	80	1214	0	1	1	1021104	691	1	hit	490	0
47	Correct	81	81	1215	5	0	0	1021812	692	0	correct_rejection	NA	0
47	Correct	82	82	1216	6	0	0	1022521	692	0	correct_rejection	NA	0
47	Correct	83	83	1217	4	0	0	1023229	692	0	correct_rejection	NA	0
47	Correct	84	84	1218	5	0	0	1023938	692	0	correct_rejection	NA	0
47	Correct	85	85	1219	6	0	0	1024647	691	0	correct_rejection	NA	0
47	Correct	86	86	1220	4	0	0	1025355	692	0	correct_rejection	NA	0
47	Correct	87	87	1221	0	1	1	1026064	691	1	hit	341	0
47	Correct	88	88	1222	5	0	0	1026772	692	0	correct_rejection	NA	0
47	Correct	89	89	1223	6	0	0	1027481	692	0	correct_rejection	NA	0
47	Correct	90	90	1224	6	0	0	1028189	692	0	correct_rejection	NA	0
47	Correct	91	91	1225	5	0	0	1028898	692	0	correct_rejection	NA	0
47	Correct	92	92	1226	0	1	1	1029607	691	1	hit	311	0
47	Correct	93	93	1227	4	0	0	1030315	692	0	correct_rejection	NA	0
47	Correct	94	94	1228	6	0	0	1031024	691	0	correct_rejection	NA	0
47	Correct	95	95	1229	5	0	0	1031732	692	0	correct_rejection	NA	0
47	Correct	96	96	1230	0	1	1	1032441	691	1	hit	381	0
47	Correct	97	97	1231	4	0	0	1033149	692	0	correct_rejection	NA	0
47	Correct	98	98	1232	6	0	0	1033858	692	0	correct_rejection	NA	0
47	Correct	99	99	1233	5	0	0	1034566	692	0	correct_rejection	NA	0
47	Correct	100	100	1234	4	0	0	1035275	692	0	correct_rejection	NA	0
47	Correct	101	101	1235	9	0	0	1035984	691	0	correct_rejection	NA	0
47	Correct	102	102	1236	0	1	1	1036692	692	1	hit	328	0
47	Correct	103	103	1237	8	0	0	1037401	691	0	correct_rejection	NA	0
47	Correct	104	104	1238	7	0	0	1038109	692	0	correct_rejection	NA	0
47	Correct	105	105	1239	9	0	0	1038818	692	0	correct_rejection	NA	0
47	Correct	106	106	1240	8	0	0	1039526	692	0	correct_rejection	NA	0
47	Correct	107	107	1241	7	0	0	1040235	692	0	correct_rejection	NA	0
47	Correct	108	108	1242	9	0	0	1040944	691	0	correct_rejection	NA	0
47	Correct	109	109	1243	8	0	0	1041652	692	0	correct_rejection	NA	0
47	Correct	110	110	1244	0	1	1	1042361	691	1	hit	348	0
47	Correct	111	111	1245	7	0	0	1043069	692	0	correct_rejection	NA	0
47	Correct	112	112	1246	7	0	0	1043778	692	0	correct_rejection	NA	0
47	Correct	113	113	1247	8	0	0	1044486	692	0	correct_rejection	NA	0
47	Correct	114	114	1248	9	0	0	1045195	692	0	correct_rejection	NA	0
47	Correct	115	115	1249	7	0	0	1045904	691	0	correct_rejection	NA	0
47	Correct	116	116	1250	8	0	0	1046612	692	0	correct_rejection	NA	0
47	Correct	117	117	1251	9	0	0	1047321	691	0	correct_rejection	NA	0
47	Correct	118	118	1252	7	0	0	1048029	692	0	correct_rejection	NA	0
47	Correct	119	119	1253	8	0	0	1048738	692	0	correct_rejection	NA	0
47	Correct	120	120	1254	0	1	1	1049446	692	1	hit	391	0
47	Correct	121	121	1255	9	0	0	1050155	692	0	correct_rejection	NA	0
47	Correct	122	122	1256	4	0	0	1050864	691	0	correct_rejection	NA	0
47	Correct	123	123	1257	5	0	0	1051572	692	0	correct_rejection	NA	0
47	Correct	124	124	1258	6	0	0	1052281	691	0	correct_rejection	NA	0
47	Correct	125	125	1259	4	0	0	1052989	692	0	correct_rejection	NA	0
47	Correct	126	126	1260	5	0	0	1053698	692	0	correct_rejection	NA	0
47	Correct	127	127	1261	6	0	0	1054406	692	0	correct_rejection	NA	0
47	Correct	128	128	1262	4	0	0	1055115	692	0	correct_rejection	NA	0
47	Correct	129	129	1263	5	0	0	1055824	691	0	correct_rejection	NA	0
47	Correct	130	130	1264	0	1	1	1056532	692	1	hit	355	0
47	Correct	131	131	1265	6	0	0	1057241	691	0	correct_rejection	NA	0
47	Correct	132	132	1266	6	0	0	1057949	692	0	correct_rejection	NA	0
47	Correct	133	133	1267	0	1	1	1058658	691	1	hit	399	0
47	Correct	134	134	1268	5	0	0	1059366	692	0	correct_rejection	NA	0
47	Correct	135	135	1269	4	0	0	1060075	692	0	correct_rejection	NA	0
47	Correct	136	136	1270	6	0	0	1060784	691	0	correct_rejection	NA	0
47	Correct	137	137	1271	5	0	0	1061492	692	0	correct_rejection	NA	0
47	Correct	138	138	1272	4	0	0	1062201	691	0	correct_rejection	NA	0
47	Correct	139	139	1273	0	1	2	1062909	692	1	hit	377	0
47	Correct	140	140	1274	6	0	0	1063618	691	0	correct_rejection	NA	0
47	Correct	141	141	1275	5	0	0	1064326	692	0	correct_rejection	NA	0
47	Correct	142	142	1276	4	0	0	1065035	692	0	correct_rejection	NA	0
47	Correct	143	143	1277	9	0	0	1065743	692	0	correct_rejection	NA	0
47	Correct	144	144	1278	8	0	0	1066452	692	0	correct_rejection	NA	0
47	Correct	145	145	1279	7	0	0	1067161	691	0	correct_rejection	NA	0
47	Correct	146	146	1280	9	0	0	1067869	692	0	correct_rejection	NA	0
47	Correct	147	147	1281	8	0	0	1068578	691	0	correct_rejection	NA	0
47	Correct	148	148	1282	7	0	0	1069286	692	0	correct_rejection	NA	0
47	Correct	149	149	1283	9	0	0	1069995	692	0	correct_rejection	NA	0
47	Correct	150	150	1284	0	1	1	1070703	692	1	hit	463	0
47	Correct	151	151	1285	8	0	0	1071412	692	0	correct_rejection	NA	0
47	Correct	152	152	1286	7	0	0	1072121	691	0	correct_rejection	NA	0
47	Correct	153	153	1287	7	0	0	1072829	692	0	correct_rejection	NA	0
47	Correct	154	154	1288	8	0	0	1073538	691	0	correct_rejection	NA	0
47	Correct	155	155	1289	9	0	0	1074246	692	0	correct_rejection	NA	0
47	Correct	156	156	1290	0	1	2	1074955	692	1	hit	375	0
47	Correct	157	157	1291	7	0	0	1075663	692	0	correct_rejection	NA	0
47	Correct	158	158	1292	8	0	0	1076372	692	0	correct_rejection	NA	0
47	Correct	159	159	1293	9	0	0	1077081	691	0	correct_rejection	NA	0
47	Correct	160	160	1294	7	0	0	1077789	692	0	correct_rejection	NA	0
47	Correct	161	161	1295	8	0	0	1078498	691	0	correct_rejection	NA	0
47	Correct	162	162	1296	9	0	0	1079206	692	0	correct_rejection	NA	0
47	Nonet	1	325	1297	4	0	0	1088559	692	0	correct_rejection	NA	7528
47	Nonet	2	326	1298	5	0	0	1089268	692	0	correct_rejection	NA	0
47	Nonet	3	327	1299	6	0	0	1089976	692	0	correct_rejection	NA	0
47	Nonet	4	328	1300	4	0	0	1090685	692	0	correct_rejection	NA	0
47	Nonet	5	329	1301	5	0	0	1091394	691	0	correct_rejection	NA	0
47	Nonet	6	330	1302	6	0	0	1092102	692	0	correct_rejection	NA	0
47	Nonet	7	331	1303	0	1	2	1092811	691	1	hit	382	0
47	Nonet	8	332	1304	4	0	0	1093519	692	0	correct_rejection	NA	0
47	Nonet	9	333	1305	5	0	0	1094228	692	0	correct_rejection	NA	0
47	Nonet	10	334	1306	6	0	0	1094936	692	0	correct_rejection	NA	0
47	Nonet	11	335	1307	6	0	0	1095645	692	0	correct_rejection	NA	0
47	Nonet	12	336	1308	0	1	1	1096354	691	1	hit	406	0
47	Nonet	13	337	1309	5	0	0	1097062	692	0	correct_rejection	NA	0
47	Nonet	14	338	1310	4	0	0	1097771	691	0	correct_rejection	NA	0
47	Nonet	15	339	1311	6	0	0	1098479	692	0	correct_rejection	NA	0
47	Nonet	16	340	1312	5	0	0	1099188	692	0	correct_rejection	NA	0
47	Nonet	17	341	1313	4	0	0	1099896	692	0	correct_rejection	NA	0
47	Nonet	18	342	1314	6	0	0	1100605	692	0	correct_rejection	NA	0
47	Nonet	19	343	1315	5	0	0	1101314	691	0	correct_rejection	NA	0
47	Nonet	20	344	1316	4	0	0	1102022	692	0	correct_rejection	NA	0
47	Nonet	21	345	1317	4	0	0	1102731	691	0	correct_rejection	NA	0
47	Nonet	22	346	1318	5	0	0	1103439	692	0	correct_rejection	NA	0
47	Nonet	23	347	1319	6	0	0	1104148	692	0	correct_rejection	NA	0
47	Nonet	24	348	1320	4	0	0	1104856	692	0	correct_rejection	NA	0
47	Nonet	25	349	1321	0	1	1	1105565	692	1	hit	484	0
47	Nonet	26	350	1322	5	0	0	1106274	691	0	correct_rejection	NA	0
47	Nonet	27	351	1323	6	0	0	1106982	692	0	correct_rejection	NA	0
47	Nonet	28	352	1324	4	0	0	1107691	691	0	correct_rejection	NA	0
47	Nonet	29	353	1325	5	0	0	1108399	692	0	correct_rejection	NA	0
47	Nonet	30	354	1326	6	0	0	1109108	692	0	correct_rejection	NA	0
47	Nonet	31	355	1327	9	0	0	1109816	692	0	correct_rejection	NA	0
47	Nonet	32	356	1328	8	0	0	1110525	692	0	correct_rejection	NA	0
47	Nonet	33	357	1329	7	0	0	1111234	691	0	correct_rejection	NA	0
47	Nonet	34	358	1330	9	0	0	1111942	692	0	correct_rejection	NA	0
47	Nonet	35	359	1331	8	0	0	1112651	691	0	correct_rejection	NA	0
47	Nonet	36	360	1332	7	0	0	1113359	692	0	correct_rejection	NA	0
47	Nonet	37	361	1333	9	0	0	1114068	691	0	correct_rejection	NA	0
47	Nonet	38	362	1334	8	0	0	1114776	692	0	correct_rejection	NA	0
47	Nonet	39	363	1335	7	0	0	1115485	692	0	correct_rejection	NA	0
47	Nonet	40	364	1336	4	0	0	1116193	692	0	correct_rejection	NA	0
47	Nonet	41	365	1337	5	0	0	1116902	692	0	correct_rejection	NA	0
47	Nonet	42	366	1338	6	0	0	1117611	691	0	correct_rejection	NA	0
47	Nonet	43	367	1339	4	0	0	1118319	692	0	correct_rejection	NA	0
47	Nonet	44	368	1340	5	0	0	1119028	691	0	correct_rejection	NA	0
47	Nonet	45	369	1341	0	1	1	1119736	692	1	hit	333	0
47	Nonet	46	370	1342	6	0	0	1120445	692	0	correct_rejection	NA	0
47	Nonet	47	371	1343	4	0	0	1121153	692	0	correct_rejection	NA	0
47	Nonet	48	372	1344	5	0	0	1121862	692	0	correct_rejection	NA	0
47	Nonet	49	373	1345	6	0	0	1122571	691	0	correct_rejection	NA	0
47	Nonet	50	374	1346	7	0	0	1123279	692	0	correct_rejection	NA	0
47	Nonet	51	375	1347	0	1	1	1123988	691	1	hit	386	0
47	Nonet	52	376	1348	8	0	0	1124696	692	0	correct_rejection	NA	0
47	Nonet	53	377	1349	9	0	0	1125405	692	0	correct_rejection	NA	0
47	Nonet	54	378	1350	7	0	0	1126113	692	0	correct_rejection	NA	0
47	Nonet	55	379	1351	8	0	0	1126822	692	0	correct_rejection	NA	0
47	Nonet	56	380	1352	9	0	0	1127531	691	0	correct_rejection	NA	0
47	Nonet	57	381	1353	7	0	0	1128239	692	0	correct_rejection	NA	0
47	Nonet	58	382	1354	8	0	0	1128948	691	0	correct_rejection	NA	0
47	Nonet	59	383	1355	9	0	0	1129656	692	0	correct_rejection	NA	0
47	Nonet	60	384	1356	9	0	0	1130365	692	0	correct_rejection	NA	0
47	Nonet	61	385	1357	8	0	0	1131073	692	0	correct_rejection	NA	0
47	Nonet	62	386	1358	7	0	0	1131782	692	0	correct_rejection	NA	0
47	Nonet	63	387	1359	9	0	0	1132491	691	0	correct_rejection	NA	0
47	Nonet	64	388	1360	8	0	0	1133199	692	0	correct_rejection	NA	0
47	Nonet	65	389	1361	0	1	1	1133908	691	1	hit	392	0
47	Nonet	66	390	1362	7	0	0	1134616	692	0	correct_rejection	NA	0
47	Nonet	67	391	1363	9	0	0	1135325	692	0	correct_rejection	NA	0
47	Nonet	68	392	1364	8	0	0	1136033	692	0	correct_rejection	NA	0
47	Nonet	69	393	1365	7	0	0	1136742	692	0	correct_rejection	NA	0
47	Nonet	70	394	1366	0	1	3	1137451	691	1	hit	392	0
47	Nonet	71	395	1367	9	0	0	1138159	692	0	correct_rejection	NA	0
47	Nonet	72	396	1368	8	0	0	1138868	691	0	correct_rejection	NA	0
47	Nonet	73	397	1369	7	0	0	1139576	692	0	correct_rejection	NA	0
47	Nonet	74	398	1370	9	0	0	1140285	691	0	correct_rejection	NA	0
47	Nonet	75	399	1371	8	0	0	1140993	692	0	correct_rejection	NA	0
47	Nonet	76	400	1372	7	0	0	1141702	692	0	correct_rejection	NA	0
47	Nonet	77	401	1373	9	0	0	1142410	692	0	correct_rejection	NA	0
47	Nonet	78	402	1374	0	1	1	1143119	692	1	hit	352	0
47	Nonet	79	403	1375	8	0	0	1143828	691	0	correct_rejection	NA	0
47	Nonet	80	404	1376	7	0	0	1144536	692	0	correct_rejection	NA	0
47	Nonet	81	405	1377	6	0	0	1145245	691	0	correct_rejection	NA	0
47	Nonet	82	406	1378	5	0	0	1145953	692	0	correct_rejection	NA	0
47	Nonet	83	407	1379	4	0	0	1146662	692	0	correct_rejection	NA	0
47	Nonet	84	408	1380	0	1	2	1147370	692	1	hit	435	0
47	Nonet	85	409	1381	6	0	0	1148079	692	0	correct_rejection	NA	0
47	Nonet	86	410	1382	5	0	0	1148788	691	0	correct_rejection	NA	0
47	Nonet	87	411	1383	4	0	0	1149496	692	0	correct_rejection	NA	0
47	Nonet	88	412	1384	6	0	0	1150205	691	0	correct_rejection	NA	0
47	Nonet	89	413	1385	5	0	0	1150913	692	0	correct_rejection	NA	0
47	Nonet	90	414	1386	4	0	0	1151622	692	0	correct_rejection	NA	0
47	Nonet	91	415	1387	7	0	0	1152330	692	0	correct_rejection	NA	0
47	Nonet	92	416	1388	8	0	0	1153039	692	0	correct_rejection	NA	0
47	Nonet	93	417	1389	9	0	0	1153748	691	0	correct_rejection	NA	0
47	Nonet	94	418	1390	7	0	0	1154456	692	0	correct_rejection	NA	0
47	Nonet	95	419	1391	8	0	0	1155165	691	0	correct_rejection	NA	0
47	Nonet	96	420	1392	9	0	0	1155873	692	0	correct_rejection	NA	0
47	Nonet	97	421	1393	7	0	0	1156582	692	0	correct_rejection	NA	0
47	Nonet	98	422	1394	8	0	0	1157290	692	0	correct_rejection	NA	0
47	Nonet	99	423	1395	9	0	0	1157999	692	0	correct_rejection	NA	0
47	Nonet	100	424	1396	6	0	0	1158708	691	0	correct_rejection	NA	0
47	Nonet	101	425	1397	0	1	1	1159416	692	1	hit	325	0
47	Nonet	102	426	1398	5	0	0	1160125	691	0	correct_rejection	NA	0
47	Nonet	103	427	1399	4	0	0	1160833	692	0	correct_rejection	NA	0
47	Nonet	104	428	1400	6	0	0	1161542	692	0	correct_rejection	NA	0
47	Nonet	105	429	1401	5	0	0	1162250	692	0	correct_rejection	NA	0
47	Nonet	106	430	1402	4	0	0	1162959	692	0	correct_rejection	NA	0
47	Nonet	107	431	1403	6	0	0	1163668	691	0	correct_rejection	NA	0
47	Nonet	108	432	1404	5	0	0	1164376	692	0	correct_rejection	NA	0
47	Nonet	109	433	1405	4	0	0	1165085	691	0	correct_rejection	NA	0
47	Nonet	110	434	1406	0	1	3	1165793	692	1	hit	437	0
47	Nonet	111	435	1407	6	0	0	1166502	691	0	correct_rejection	NA	0
47	Nonet	112	436	1408	5	0	0	1167210	692	0	correct_rejection	NA	0
47	Nonet	113	437	1409	0	1	1	1167919	692	1	hit	442	0
47	Nonet	114	438	1410	4	0	0	1168627	692	0	correct_rejection	NA	0
47	Nonet	115	439	1411	6	0	0	1169336	692	0	correct_rejection	NA	0
47	Nonet	116	440	1412	5	0	0	1170045	691	0	correct_rejection	NA	0
47	Nonet	117	441	1413	4	0	0	1170753	692	0	correct_rejection	NA	0
47	Nonet	118	442	1414	6	0	0	1171462	691	0	correct_rejection	NA	0
47	Nonet	119	443	1415	5	0	0	1172170	692	0	correct_rejection	NA	0
47	Nonet	120	444	1416	4	0	0	1172879	692	0	correct_rejection	NA	0
47	Nonet	121	445	1417	9	0	0	1173587	692	0	correct_rejection	NA	0
47	Nonet	122	446	1418	8	0	0	1174296	692	0	correct_rejection	NA	0
47	Nonet	123	447	1419	0	1	1	1175005	691	1	hit	422	0
47	Nonet	124	448	1420	7	0	0	1175713	692	0	correct_rejection	NA	0
47	Nonet	125	449	1421	9	0	0	1176422	691	0	correct_rejection	NA	0
47	Nonet	126	450	1422	8	0	0	1177130	692	0	correct_rejection	NA	0
47	Nonet	127	451	1423	7	0	0	1177839	692	0	correct_rejection	NA	0
47	Nonet	128	452	1424	9	0	0	1178547	692	0	correct_rejection	NA	0
47	Nonet	129	453	1425	8	0	0	1179256	692	0	correct_rejection	NA	0
47	Nonet	130	454	1426	7	0	0	1179965	691	0	correct_rejection	NA	0
47	Nonet	131	455	1427	0	1	3	1180673	692	1	hit	373	0
47	Nonet	132	456	1428	7	0	0	1181382	691	0	correct_rejection	NA	0
47	Nonet	133	457	1429	8	0	0	1182090	692	0	correct_rejection	NA	0
47	Nonet	134	458	1430	9	0	0	1182799	692	0	correct_rejection	NA	0
47	Nonet	135	459	1431	7	0	0	1183507	692	0	correct_rejection	NA	0
47	Nonet	136	460	1432	8	0	0	1184216	692	0	correct_rejection	NA	0
47	Nonet	137	461	1433	0	1	1	1184925	691	1	hit	411	0
47	Nonet	138	462	1434	9	0	0	1185633	692	0	correct_rejection	NA	0
47	Nonet	139	463	1435	7	0	0	1186342	691	0	correct_rejection	NA	0
47	Nonet	140	464	1436	8	0	0	1187050	692	0	correct_rejection	NA	0
47	Nonet	141	465	1437	9	0	0	1187759	692	0	correct_rejection	NA	0
47	Nonet	142	466	1438	0	1	3	1188467	692	1	hit	472	0
47	Nonet	143	467	1439	7	0	0	1189176	692	0	correct_rejection	NA	0
47	Nonet	144	468	1440	8	0	0	1189885	691	0	correct_rejection	NA	0
47	Nonet	145	469	1441	9	0	0	1190593	692	0	correct_rejection	NA	0
47	Nonet	146	470	1442	7	0	0	1191302	691	0	correct_rejection	NA	0
47	Nonet	147	471	1443	8	0	0	1192010	692	0	correct_rejection	NA	0
47	Nonet	148	472	1444	9	0	0	1192719	691	0	correct_rejection	NA	0
47	Nonet	149	473	1445	7	0	0	1193427	692	0	correct_rejection	NA	0
47	Nonet	150	474	1446	8	0	0	1194136	692	0	correct_rejection	NA	0
47	Nonet	151	475	1447	9	0	0	1194845	691	0	correct_rejection	NA	0
47	Nonet	152	476	1448	4	0	0	1195553	692	0	correct_rejection	NA	0
47	Nonet	153	477	1449	5	0	0	1196262	691	0	correct_rejection	NA	0
47	Nonet	154	478	1450	0	1	1	1196970	692	1	hit	342	0
47	Nonet	155	479	1451	6	0	0	1197679	691	0	correct_rejection	NA	0
47	Nonet	156	480	1452	4	0	0	1198387	692	0	correct_rejection	NA	0
47	Nonet	157	481	1453	0	1	1	1199096	692	0	miss	NA	0
47	Nonet	158	482	1454	5	0	0	1199804	692	0	correct_rejection	NA	0
47	Nonet	159	483	1455	6	0	0	1200513	692	0	correct_rejection	NA	0
47	Nonet	160	484	1456	4	0	0	1201222	691	0	correct_rejection	NA	0
47	Nonet	161	485	1457	5	0	0	1201930	692	0	correct_rejection	NA	0
47	Nonet	162	486	1458	6	0	0	1202639	691	0	correct_rejection	NA	0
47	Triplet	1	163	1459	6	0	0	1212917	692	0	correct_rejection	NA	7899
47	Triplet	2	164	1460	5	0	0	1213626	691	0	correct_rejection	NA	0
47	Triplet	3	165	1461	4	0	0	1214334	692	0	correct_rejection	NA	0
47	Triplet	4	166	1462	0	1	2	1215043	692	1	hit	433	0
47	Triplet	5	167	1463	6	0	0	1215751	692	0	correct_rejection	NA	0
47	Triplet	6	168	1464	5	0	0	1216460	692	0	correct_rejection	NA	0
47	Triplet	7	169	1465	0	1	1	1217169	691	1	hit	344	0
47	Triplet	8	170	1466	4	0	0	1217877	692	0	correct_rejection	NA	0
47	Triplet	9	171	1467	4	0	0	1218586	691	0	correct_rejection	NA	0
47	Triplet	10	172	1468	5	0	0	1219294	692	0	correct_rejection	NA	0
47	Triplet	11	173	1469	0	1	1	1220003	692	1	hit	368	0
47	Triplet	12	174	1470	6	0	0	1220711	692	0	correct_rejection	NA	0
47	Triplet	13	175	1471	9	0	0	1221420	692	0	correct_rejection	NA	0
47	Triplet	14	176	1472	8	0	0	1222129	691	0	correct_rejection	NA	0
47	Triplet	15	177	1473	7	0	0	1222837	692	0	correct_rejection	NA	0
47	Triplet	16	178	1474	6	0	0	1223546	691	0	correct_rejection	NA	0
47	Triplet	17	179	1475	0	1	1	1224254	692	1	hit	329	0
47	Triplet	18	180	1476	5	0	0	1224963	691	0	correct_rejection	NA	0
47	Triplet	19	181	1477	4	0	0	1225671	692	0	correct_rejection	NA	0
47	Triplet	20	182	1478	9	0	0	1226380	692	0	correct_rejection	NA	0
47	Triplet	21	183	1479	8	0	0	1227088	692	0	correct_rejection	NA	0
47	Triplet	22	184	1480	7	0	0	1227797	692	0	correct_rejection	NA	0
47	Triplet	23	185	1481	0	1	2	1228506	691	1	hit	402	0
47	Triplet	24	186	1482	7	0	0	1229214	692	0	correct_rejection	NA	0
47	Triplet	25	187	1483	8	0	0	1229923	691	0	correct_rejection	NA	0
47	Triplet	26	188	1484	9	0	0	1230631	692	0	correct_rejection	NA	0
47	Triplet	27	189	1485	6	0	0	1231340	692	0	correct_rejection	NA	0
47	Triplet	28	190	1486	5	0	0	1232048	692	0	correct_rejection	NA	0
47	Triplet	29	191	1487	0	1	1	1232757	692	1	hit	348	0
47	Triplet	30	192	1488	4	0	0	1233466	691	0	correct_rejection	NA	0
47	Triplet	31	193	1489	7	0	0	1234174	692	0	correct_rejection	NA	0
47	Triplet	32	194	1490	8	0	0	1234883	691	0	correct_rejection	NA	0
47	Triplet	33	195	1491	9	0	0	1235591	692	0	correct_rejection	NA	0
47	Triplet	34	196	1492	7	0	0	1236300	692	0	correct_rejection	NA	0
47	Triplet	35	197	1493	8	0	0	1237008	692	0	correct_rejection	NA	0
47	Triplet	36	198	1494	9	0	0	1237717	692	0	correct_rejection	NA	0
47	Triplet	37	199	1495	9	0	0	1238426	691	0	correct_rejection	NA	0
47	Triplet	38	200	1496	8	0	0	1239134	692	0	correct_rejection	NA	0
47	Triplet	39	201	1497	7	0	0	1239843	691	0	correct_rejection	NA	0
47	Triplet	40	202	1498	9	0	0	1240551	692	0	correct_rejection	NA	0
47	Triplet	41	203	1499	8	0	0	1241260	692	0	correct_rejection	NA	0
47	Triplet	42	204	1500	0	1	1	1241968	692	1	hit	404	0
47	Triplet	43	205	1501	7	0	0	1242677	692	0	correct_rejection	NA	0
47	Triplet	44	206	1502	4	0	0	1243386	691	0	correct_rejection	NA	0
47	Triplet	45	207	1503	5	0	0	1244094	692	0	correct_rejection	NA	0
47	Triplet	46	208	1504	6	0	0	1244803	691	0	correct_rejection	NA	0
47	Triplet	47	209	1505	4	0	0	1245511	692	0	correct_rejection	NA	0
47	Triplet	48	210	1506	5	0	0	1246220	692	0	correct_rejection	NA	0
47	Triplet	49	211	1507	6	0	0	1246928	692	0	correct_rejection	NA	0
47	Triplet	50	212	1508	7	0	0	1247637	692	0	correct_rejection	NA	0
47	Triplet	51	213	1509	8	0	0	1248346	691	0	correct_rejection	NA	0
47	Triplet	52	214	1510	9	0	0	1249054	692	0	correct_rejection	NA	0
47	Triplet	53	215	1511	4	0	0	1249763	691	0	correct_rejection	NA	0
47	Triplet	54	216	1512	5	0	0	1250471	692	0	correct_rejection	NA	0
47	Triplet	55	217	1513	6	0	0	1251180	691	0	correct_rejection	NA	0
47	Triplet	56	218	1514	7	0	0	1251888	692	0	correct_rejection	NA	0
47	Triplet	57	219	1515	0	1	1	1252597	692	1	hit	371	0
47	Triplet	58	220	1516	8	0	0	1253306	691	0	correct_rejection	NA	0
47	Triplet	59	221	1517	9	0	0	1254014	692	0	correct_rejection	NA	0
47	Triplet	60	222	1518	0	1	2	1254723	691	1	hit	516	0
47	Triplet	61	223	1519	6	0	0	1255431	692	0	correct_rejection	NA	0
47	Triplet	62	224	1520	5	0	0	1256140	691	0	correct_rejection	NA	0
47	Triplet	63	225	1521	4	0	0	1256848	692	0	correct_rejection	NA	0
47	Triplet	64	226	1522	6	0	0	1257557	692	0	correct_rejection	NA	0
47	Triplet	65	227	1523	5	0	0	1258265	692	0	correct_rejection	NA	0
47	Triplet	66	228	1524	4	0	0	1258974	692	0	correct_rejection	NA	0
47	Triplet	67	229	1525	9	0	0	1259683	691	0	correct_rejection	NA	0
47	Triplet	68	230	1526	8	0	0	1260391	692	0	correct_rejection	NA	0
47	Triplet	69	231	1527	7	0	0	1261100	691	0	correct_rejection	NA	0
47	Triplet	70	232	1528	4	0	0	1261808	692	0	correct_rejection	NA	0
47	Triplet	71	233	1529	0	1	1	1262517	692	1	hit	433	0
47	Triplet	72	234	1530	5	0	0	1263225	692	0	correct_rejection	NA	0
47	Triplet	73	235	1531	6	0	0	1263934	692	0	correct_rejection	NA	0
47	Triplet	74	236	1532	7	0	0	1264643	691	0	correct_rejection	NA	0
47	Triplet	75	237	1533	8	0	0	1265351	692	0	correct_rejection	NA	0
47	Triplet	76	238	1534	9	0	0	1266060	691	0	correct_rejection	NA	0
47	Triplet	77	239	1535	7	0	0	1266768	692	0	correct_rejection	NA	0
47	Triplet	78	240	1536	8	0	0	1267477	692	0	correct_rejection	NA	0
47	Triplet	79	241	1537	9	0	0	1268185	692	0	correct_rejection	NA	0
47	Triplet	80	242	1538	4	0	0	1268894	692	0	correct_rejection	NA	0
47	Triplet	81	243	1539	5	0	0	1269603	691	0	correct_rejection	NA	0
47	Triplet	82	244	1540	6	0	0	1270311	692	0	correct_rejection	NA	0
47	Triplet	83	245	1541	6	0	0	1271020	691	0	correct_rejection	NA	0
47	Triplet	84	246	1542	5	0	0	1271728	692	0	correct_rejection	NA	0
47	Triplet	85	247	1543	4	0	0	1272437	692	0	correct_rejection	NA	0
47	Triplet	86	248	1544	7	0	0	1273145	692	0	correct_rejection	NA	0
47	Triplet	87	249	1545	8	0	0	1273854	692	0	correct_rejection	NA	0
47	Triplet	88	250	1546	9	0	0	1274563	691	0	correct_rejection	NA	0
47	Triplet	89	251	1547	9	0	0	1275271	692	0	correct_rejection	NA	0
47	Triplet	90	252	1548	8	0	0	1275980	691	0	correct_rejection	NA	0
47	Triplet	91	253	1549	7	0	0	1276688	692	0	correct_rejection	NA	0
47	Triplet	92	254	1550	6	0	0	1277397	692	0	correct_rejection	NA	0
47	Triplet	93	255	1551	5	0	0	1278105	692	0	correct_rejection	NA	0
47	Triplet	94	256	1552	4	0	0	1278814	692	0	correct_rejection	NA	0
47	Triplet	95	257	1553	4	0	0	1279523	691	0	correct_rejection	NA	0
47	Triplet	96	258	1554	5	0	0	1280231	692	0	correct_rejection	NA	0
47	Triplet	97	259	1555	6	0	0	1280940	691	0	correct_rejection	NA	0
47	Triplet	98	260	1556	4	0	0	1281648	692	0	correct_rejection	NA	0
47	Triplet	99	261	1557	5	0	0	1282357	691	0	correct_rejection	NA	0
47	Triplet	100	262	1558	6	0	0	1283065	692	0	correct_rejection	NA	0
47	Triplet	101	263	1559	9	0	0	1283774	692	0	correct_rejection	NA	0
47	Triplet	102	264	1560	8	0	0	1284482	692	0	correct_rejection	NA	0
47	Triplet	103	265	1561	7	0	0	1285191	692	0	correct_rejection	NA	0
47	Triplet	104	266	1562	0	1	2	1285900	691	1	hit	469	0
47	Triplet	105	267	1563	9	0	0	1286608	692	0	correct_rejection	NA	0
47	Triplet	106	268	1564	8	0	0	1287317	691	0	correct_rejection	NA	0
47	Triplet	107	269	1565	7	0	0	1288025	692	0	correct_rejection	NA	0
47	Triplet	108	270	1566	4	0	0	1288734	692	0	correct_rejection	NA	0
47	Triplet	109	271	1567	5	0	0	1289442	692	0	correct_rejection	NA	0
47	Triplet	110	272	1568	6	0	0	1290151	692	0	correct_rejection	NA	0
47	Triplet	111	273	1569	4	0	0	1290860	691	0	correct_rejection	NA	0
47	Triplet	112	274	1570	5	0	0	1291568	692	0	correct_rejection	NA	0
47	Triplet	113	275	1571	6	0	0	1292277	691	0	correct_rejection	NA	0
47	Triplet	114	276	1572	6	0	0	1292985	692	0	correct_rejection	NA	0
47	Triplet	115	277	1573	0	1	1	1293694	692	1	hit	433	0
47	Triplet	116	278	1574	5	0	0	1294402	692	0	correct_rejection	NA	0
47	Triplet	117	279	1575	4	0	0	1295111	692	0	correct_rejection	NA	0
47	Triplet	118	280	1576	9	0	0	1295820	691	0	correct_rejection	NA	0
47	Triplet	119	281	1577	8	0	0	1296528	692	0	correct_rejection	NA	0
47	Triplet	120	282	1578	0	1	1	1297237	691	1	hit	349	0
47	Triplet	121	283	1579	7	0	0	1297945	692	0	correct_rejection	NA	0
47	Triplet	122	284	1580	9	0	0	1298654	692	0	correct_rejection	NA	0
47	Triplet	123	285	1581	0	1	1	1299362	692	1	hit	493	0
47	Triplet	124	286	1582	8	0	0	1300071	692	0	correct_rejection	NA	0
47	Triplet	125	287	1583	7	0	0	1300780	691	0	correct_rejection	NA	0
47	Triplet	126	288	1584	6	0	0	1301488	692	0	correct_rejection	NA	0
47	Triplet	127	289	1585	5	0	0	1302197	691	0	correct_rejection	NA	0
47	Triplet	128	290	1586	4	0	0	1302905	692	0	correct_rejection	NA	0
47	Triplet	129	291	1587	6	0	0	1303614	692	0	correct_rejection	NA	0
47	Triplet	130	292	1588	5	0	0	1304322	692	0	correct_rejection	NA	0
47	Triplet	131	293	1589	4	0	0	1305031	692	0	correct_rejection	NA	0
47	Triplet	132	294	1590	7	0	0	1305740	691	0	correct_rejection	NA	0
47	Triplet	133	295	1591	0	1	1	1306448	692	0	miss	NA	0
47	Triplet	134	296	1592	8	0	0	1307157	691	0	correct_rejection	NA	0
47	Triplet	135	297	1593	9	0	0	1307865	692	0	correct_rejection	NA	0
47	Triplet	136	298	1594	4	0	0	1308574	691	0	correct_rejection	NA	0
47	Triplet	137	299	1595	5	0	0	1309282	692	0	correct_rejection	NA	0
47	Triplet	138	300	1596	6	0	0	1309991	692	0	correct_rejection	NA	0
47	Triplet	139	301	1597	7	0	0	1310699	692	0	correct_rejection	NA	0
