ID	block	trial_block	trial_cat	trial_total	number	violation	level_violation	onset	duration	Response	Hit_Miss	RT	pre_trial_fixcross_ISI
first_trigger_at: 6263
trigger nr 3 at 10263
1	Single	1	163	1	8	0	0	16349	684	0	correct_rejection	NA	6011
1	Single	2	164	2	6	0	0	17066	683	0	correct_rejection	NA	0
1	Single	3	165	3	7	0	0	17783	683	0	correct_rejection	NA	0
1	Single	4	166	4	5	0	0	18499	684	0	correct_rejection	NA	0
1	Single	5	167	5	0	1	1	19216	683	1	hit	300	0
1	Single	6	168	6	5	0	0	19933	683	0	correct_rejection	NA	0
1	Single	7	169	7	7	0	0	20649	684	0	correct_rejection	NA	0
1	Single	8	170	8	6	0	0	21366	683	0	correct_rejection	NA	0
1	Single	9	171	9	0	1	1	22082	684	1	hit	294	0
1	Single	10	172	10	8	0	0	22799	683	0	correct_rejection	NA	0
1	Single	11	173	11	7	0	0	23516	683	0	correct_rejection	NA	0
1	Single	12	174	12	7	0	0	24232	684	0	correct_rejection	NA	0
1	Single	13	175	13	8	0	0	24949	683	0	correct_rejection	NA	0
1	Single	14	176	14	8	0	0	25666	683	0	correct_rejection	NA	0
1	Single	15	177	15	4	0	0	26382	684	0	correct_rejection	NA	0
1	Single	16	178	16	7	0	0	27099	683	0	correct_rejection	NA	0
1	Single	17	179	17	0	1	1	27816	683	1	hit	292	0
1	Single	18	180	18	9	0	0	28532	684	0	correct_rejection	NA	0
1	Single	19	181	19	6	0	0	29249	683	0	correct_rejection	NA	0
1	Single	20	182	20	5	0	0	29966	683	0	correct_rejection	NA	0
1	Single	21	183	21	9	0	0	30682	684	0	correct_rejection	NA	0
1	Single	22	184	22	7	0	0	31399	683	0	correct_rejection	NA	0
1	Single	23	185	23	4	0	0	32116	683	0	correct_rejection	NA	0
1	Single	24	186	24	4	0	0	32832	684	0	correct_rejection	NA	0
1	Single	25	187	25	0	1	1	33549	683	1	hit	302	0
1	Single	26	188	26	6	0	0	34266	683	0	correct_rejection	NA	0
1	Single	27	189	27	9	0	0	34982	684	0	correct_rejection	NA	0
1	Single	28	190	28	9	0	0	35699	683	0	correct_rejection	NA	0
1	Single	29	191	29	5	0	0	36416	683	0	correct_rejection	NA	0
1	Single	30	192	30	6	0	0	37132	684	0	correct_rejection	NA	0
1	Single	31	193	31	6	0	0	37849	683	0	correct_rejection	NA	0
1	Single	32	194	32	0	1	1	38566	683	1	hit	324	0
1	Single	33	195	33	4	0	0	39282	684	0	correct_rejection	NA	0
1	Single	34	196	34	8	0	0	39999	683	0	correct_rejection	NA	0
1	Single	35	197	35	5	0	0	40716	683	0	correct_rejection	NA	0
1	Single	36	198	36	4	0	0	41432	684	0	correct_rejection	NA	0
1	Single	37	199	37	9	0	0	42149	683	0	correct_rejection	NA	0
1	Single	38	200	38	4	0	0	42865	684	0	correct_rejection	NA	0
1	Single	39	201	39	5	0	0	43582	684	0	correct_rejection	NA	0
1	Single	40	202	40	8	0	0	44299	683	0	correct_rejection	NA	0
1	Single	41	203	41	9	0	0	45015	684	0	correct_rejection	NA	0
1	Single	42	204	42	9	0	0	45732	683	0	correct_rejection	NA	0
1	Single	43	205	43	7	0	0	46449	683	0	correct_rejection	NA	0
1	Single	44	206	44	6	0	0	47165	684	0	correct_rejection	NA	0
1	Single	45	207	45	9	0	0	47882	683	0	correct_rejection	NA	0
1	Single	46	208	46	6	0	0	48599	683	0	correct_rejection	NA	0
1	Single	47	209	47	8	0	0	49315	684	0	correct_rejection	NA	0
1	Single	48	210	48	0	1	1	50032	683	1	hit	296	0
1	Single	49	211	49	4	0	0	50749	683	0	correct_rejection	NA	0
1	Single	50	212	50	8	0	0	51465	684	0	correct_rejection	NA	0
1	Single	51	213	51	8	0	0	52182	683	0	correct_rejection	NA	0
1	Single	52	214	52	0	1	1	52899	683	1	hit	352	0
1	Single	53	215	53	5	0	0	53615	684	0	correct_rejection	NA	0
1	Single	54	216	54	7	0	0	54332	683	0	correct_rejection	NA	0
1	Single	55	217	55	7	0	0	55049	683	0	correct_rejection	NA	0
1	Single	56	218	56	5	0	0	55765	684	0	correct_rejection	NA	0
1	Single	57	219	57	6	0	0	56482	683	0	correct_rejection	NA	0
1	Single	58	220	58	4	0	0	57199	683	0	correct_rejection	NA	0
1	Single	59	221	59	7	0	0	57915	684	0	correct_rejection	NA	0
1	Single	60	222	60	0	1	1	58632	683	1	hit	284	0
1	Single	61	223	61	4	0	0	59349	683	0	correct_rejection	NA	0
1	Single	62	224	62	6	0	0	60065	684	0	correct_rejection	NA	0
1	Single	63	225	63	5	0	0	60782	683	0	correct_rejection	NA	0
1	Single	64	226	64	5	0	0	61499	683	0	correct_rejection	NA	0
1	Single	65	227	65	8	0	0	62215	684	0	correct_rejection	NA	0
1	Single	66	228	66	0	1	1	62932	683	1	hit	342	0
1	Single	67	229	67	7	0	0	63649	683	0	correct_rejection	NA	0
1	Single	68	230	68	8	0	0	64365	684	0	correct_rejection	NA	0
1	Single	69	231	69	9	0	0	65082	683	0	correct_rejection	NA	0
1	Single	70	232	70	0	1	1	65798	684	1	hit	333	0
1	Single	71	233	71	4	0	0	66515	684	0	correct_rejection	NA	0
1	Single	72	234	72	9	0	0	67232	683	0	correct_rejection	NA	0
1	Single	73	235	73	5	0	0	67948	684	0	correct_rejection	NA	0
1	Single	74	236	74	4	0	0	68665	683	0	correct_rejection	NA	0
1	Single	75	237	75	4	0	0	69382	683	0	correct_rejection	NA	0
1	Single	76	238	76	5	0	0	70098	684	0	correct_rejection	NA	0
1	Single	77	239	77	0	1	1	70815	683	1	hit	292	0
1	Single	78	240	78	9	0	0	71532	683	0	correct_rejection	NA	0
1	Single	79	241	79	9	0	0	72248	684	0	correct_rejection	NA	0
1	Single	80	242	80	8	0	0	72965	683	0	correct_rejection	NA	0
1	Single	81	243	81	6	0	0	73682	683	0	correct_rejection	NA	0
1	Single	82	244	82	6	0	0	74398	684	0	correct_rejection	NA	0
1	Single	83	245	83	7	0	0	75115	683	0	correct_rejection	NA	0
1	Single	84	246	84	7	0	0	75832	683	0	correct_rejection	NA	0
1	Single	85	247	85	5	0	0	76548	684	0	correct_rejection	NA	0
1	Single	86	248	86	7	0	0	77265	683	0	correct_rejection	NA	0
1	Single	87	249	87	9	0	0	77982	683	0	correct_rejection	NA	0
1	Single	88	250	88	9	0	0	78698	684	0	correct_rejection	NA	0
1	Single	89	251	89	7	0	0	79415	683	0	correct_rejection	NA	0
1	Single	90	252	90	7	0	0	80132	683	0	correct_rejection	NA	0
1	Single	91	253	91	4	0	0	80848	684	0	correct_rejection	NA	0
1	Single	92	254	92	8	0	0	81565	683	0	correct_rejection	NA	0
1	Single	93	255	93	7	0	0	82282	683	0	correct_rejection	NA	0
1	Single	94	256	94	6	0	0	82998	684	0	correct_rejection	NA	0
1	Single	95	257	95	5	0	0	83715	683	0	correct_rejection	NA	0
1	Single	96	258	96	6	0	0	84432	683	0	correct_rejection	NA	0
1	Single	97	259	97	7	0	0	85148	684	0	correct_rejection	NA	0
1	Single	98	260	98	8	0	0	85865	683	0	correct_rejection	NA	0
1	Single	99	261	99	5	0	0	86581	684	0	correct_rejection	NA	0
1	Single	100	262	100	9	0	0	87298	684	0	correct_rejection	NA	0
1	Single	101	263	101	4	0	0	88015	683	0	correct_rejection	NA	0
1	Single	102	264	102	4	0	0	88731	684	0	correct_rejection	NA	0
1	Single	103	265	103	9	0	0	89448	683	0	correct_rejection	NA	0
1	Single	104	266	104	0	1	1	90165	683	1	hit	277	0
1	Single	105	267	105	8	0	0	90881	684	0	correct_rejection	NA	0
1	Single	106	268	106	9	0	0	91598	683	0	correct_rejection	NA	0
1	Single	107	269	107	6	0	0	92315	683	0	correct_rejection	NA	0
1	Single	108	270	108	9	0	0	93031	684	0	correct_rejection	NA	0
1	Single	109	271	109	0	1	1	93748	683	1	hit	333	0
1	Single	110	272	110	5	0	0	94465	683	0	correct_rejection	NA	0
1	Single	111	273	111	8	0	0	95181	684	0	correct_rejection	NA	0
1	Single	112	274	112	4	0	0	95898	683	0	correct_rejection	NA	0
1	Single	113	275	113	5	0	0	96615	683	0	correct_rejection	NA	0
1	Single	114	276	114	5	0	0	97331	684	0	correct_rejection	NA	0
1	Single	115	277	115	4	0	0	98048	683	0	correct_rejection	NA	0
1	Single	116	278	116	6	0	0	98765	683	0	correct_rejection	NA	0
1	Single	117	279	117	6	0	0	99481	684	0	correct_rejection	NA	0
1	Single	118	280	118	8	0	0	100198	683	0	correct_rejection	NA	0
1	Single	119	281	119	8	0	0	100915	683	0	correct_rejection	NA	0
1	Single	120	282	120	6	0	0	101631	684	0	correct_rejection	NA	0
1	Single	121	283	121	4	0	0	102348	683	0	correct_rejection	NA	0
1	Single	122	284	122	8	0	0	103065	683	0	correct_rejection	NA	0
1	Single	123	285	123	4	0	0	103781	684	0	correct_rejection	NA	0
1	Single	124	286	124	6	0	0	104498	683	0	correct_rejection	NA	0
1	Single	125	287	125	0	1	1	105215	683	1	hit	333	0
1	Single	126	288	126	9	0	0	105931	684	0	correct_rejection	NA	0
1	Single	127	289	127	8	0	0	106648	683	0	correct_rejection	NA	0
1	Single	128	290	128	8	0	0	107365	683	0	correct_rejection	NA	0
1	Single	129	291	129	0	1	1	108081	684	1	hit	289	0
1	Single	130	292	130	9	0	0	108798	683	0	correct_rejection	NA	0
1	Single	131	293	131	5	0	0	109514	684	0	correct_rejection	NA	0
1	Single	132	294	132	9	0	0	110231	683	0	correct_rejection	NA	0
1	Single	133	295	133	7	0	0	110948	683	0	correct_rejection	NA	0
1	Single	134	296	134	5	0	0	111664	684	0	correct_rejection	NA	0
1	Single	135	297	135	8	0	0	112381	683	0	correct_rejection	NA	0
1	Single	136	298	136	5	0	0	113098	683	0	correct_rejection	NA	0
1	Single	137	299	137	5	0	0	113814	684	0	correct_rejection	NA	0
1	Single	138	300	138	6	0	0	114531	683	0	correct_rejection	NA	0
1	Single	139	301	139	8	0	0	115248	683	0	correct_rejection	NA	0
1	Single	140	302	140	0	1	1	115964	684	1	hit	297	0
1	Single	141	303	141	6	0	0	116681	683	0	correct_rejection	NA	0
1	Single	142	304	142	7	0	0	117398	683	0	correct_rejection	NA	0
1	Single	143	305	143	9	0	0	118114	684	0	correct_rejection	NA	0
1	Single	144	306	144	6	0	0	118831	683	0	correct_rejection	NA	0
1	Single	145	307	145	0	1	1	119548	683	1	hit	345	0
1	Single	146	308	146	5	0	0	120264	684	0	correct_rejection	NA	0
1	Single	147	309	147	4	0	0	120981	683	0	correct_rejection	NA	0
1	Single	148	310	148	0	1	1	121698	683	1	hit	365	0
1	Single	149	311	149	5	0	0	122414	684	0	correct_rejection	NA	0
1	Single	150	312	150	7	0	0	123131	683	0	correct_rejection	NA	0
1	Single	151	313	151	8	0	0	123848	683	0	correct_rejection	NA	0
1	Single	152	314	152	7	0	0	124564	684	0	correct_rejection	NA	0
1	Single	153	315	153	4	0	0	125281	683	0	correct_rejection	NA	0
1	Single	154	316	154	4	0	0	125998	683	0	correct_rejection	NA	0
1	Single	155	317	155	7	0	0	126714	684	0	correct_rejection	NA	0
1	Single	156	318	156	7	0	0	127431	683	0	correct_rejection	NA	0
1	Single	157	319	157	6	0	0	128148	683	0	correct_rejection	NA	0
1	Single	158	320	158	6	0	0	128864	684	0	correct_rejection	NA	0
1	Single	159	321	159	4	0	0	129581	683	0	correct_rejection	NA	0
1	Single	160	322	160	9	0	0	130298	683	0	correct_rejection	NA	0
1	Single	161	323	161	9	0	0	131014	684	0	correct_rejection	NA	0
1	Single	162	324	162	4	0	0	131731	683	0	correct_rejection	NA	0
1	Nonet	1	487	163	7	0	0	141714	683	0	correct_rejection	NA	9228
1	Nonet	2	488	164	8	0	0	142431	683	0	correct_rejection	NA	0
1	Nonet	3	489	165	9	0	0	143147	684	0	correct_rejection	NA	0
1	Nonet	4	490	166	0	1	2	143864	683	1	hit	281	0
1	Nonet	5	491	167	7	0	0	144581	683	0	correct_rejection	NA	0
1	Nonet	6	492	168	8	0	0	145297	684	0	correct_rejection	NA	0
1	Nonet	7	493	169	9	0	0	146014	683	0	correct_rejection	NA	0
1	Nonet	8	494	170	7	0	0	146731	683	0	correct_rejection	NA	0
1	Nonet	9	495	171	8	0	0	147447	684	0	correct_rejection	NA	0
1	Nonet	10	496	172	9	0	0	148164	683	0	correct_rejection	NA	0
1	Nonet	11	497	173	7	0	0	148881	683	0	correct_rejection	NA	0
1	Nonet	12	498	174	8	0	0	149597	684	0	correct_rejection	NA	0
1	Nonet	13	499	175	0	1	1	150314	683	1	hit	299	0
1	Nonet	14	500	176	9	0	0	151031	683	0	correct_rejection	NA	0
1	Nonet	15	501	177	7	0	0	151747	684	0	correct_rejection	NA	0
1	Nonet	16	502	178	0	1	1	152464	683	1	hit	343	0
1	Nonet	17	503	179	8	0	0	153180	684	0	correct_rejection	NA	0
1	Nonet	18	504	180	9	0	0	153897	684	0	correct_rejection	NA	0
1	Nonet	19	505	181	7	0	0	154614	683	0	correct_rejection	NA	0
1	Nonet	20	506	182	8	0	0	155330	684	0	correct_rejection	NA	0
1	Nonet	21	507	183	9	0	0	156047	683	0	correct_rejection	NA	0
1	Nonet	22	508	184	9	0	0	156764	683	0	correct_rejection	NA	0
1	Nonet	23	509	185	8	0	0	157480	684	0	correct_rejection	NA	0
1	Nonet	24	510	186	7	0	0	158197	683	0	correct_rejection	NA	0
1	Nonet	25	511	187	9	0	0	158914	683	0	correct_rejection	NA	0
1	Nonet	26	512	188	8	0	0	159630	684	0	correct_rejection	NA	0
1	Nonet	27	513	189	7	0	0	160347	683	0	correct_rejection	NA	0
1	Nonet	28	514	190	9	0	0	161064	683	0	correct_rejection	NA	0
1	Nonet	29	515	191	0	1	1	161780	684	1	hit	299	0
1	Nonet	30	516	192	8	0	0	162497	683	0	correct_rejection	NA	0
1	Nonet	31	517	193	7	0	0	163214	683	0	correct_rejection	NA	0
1	Nonet	32	518	194	9	0	0	163930	684	0	correct_rejection	NA	0
1	Nonet	33	519	195	8	0	0	164647	683	0	correct_rejection	NA	0
1	Nonet	34	520	196	7	0	0	165364	683	0	correct_rejection	NA	0
1	Nonet	35	521	197	9	0	0	166080	684	0	correct_rejection	NA	0
1	Nonet	36	522	198	0	1	1	166797	683	1	hit	298	0
1	Nonet	37	523	199	8	0	0	167514	683	0	correct_rejection	NA	0
1	Nonet	38	524	200	7	0	0	168230	684	0	correct_rejection	NA	0
1	Nonet	39	525	201	9	0	0	168947	683	0	correct_rejection	NA	0
1	Nonet	40	526	202	8	0	0	169664	683	0	correct_rejection	NA	0
1	Nonet	41	527	203	7	0	0	170380	684	0	correct_rejection	NA	0
1	Nonet	42	528	204	4	0	0	171097	683	0	correct_rejection	NA	0
1	Nonet	43	529	205	5	0	0	171814	683	0	correct_rejection	NA	0
1	Nonet	44	530	206	6	0	0	172530	684	0	correct_rejection	NA	0
1	Nonet	45	531	207	4	0	0	173247	683	0	correct_rejection	NA	0
1	Nonet	46	532	208	5	0	0	173964	683	0	correct_rejection	NA	0
1	Nonet	47	533	209	0	1	1	174680	684	1	hit	289	0
1	Nonet	48	534	210	6	0	0	175397	683	0	correct_rejection	NA	0
1	Nonet	49	535	211	4	0	0	176113	684	0	correct_rejection	NA	0
1	Nonet	50	536	212	5	0	0	176830	684	0	correct_rejection	NA	0
1	Nonet	51	537	213	6	0	0	177547	683	0	correct_rejection	NA	0
1	Nonet	52	538	214	6	0	0	178263	684	0	correct_rejection	NA	0
1	Nonet	53	539	215	5	0	0	178980	683	0	correct_rejection	NA	0
1	Nonet	54	540	216	4	0	0	179697	683	0	correct_rejection	NA	0
1	Nonet	55	541	217	6	0	0	180413	684	0	correct_rejection	NA	0
1	Nonet	56	542	218	5	0	0	181130	683	0	correct_rejection	NA	0
1	Nonet	57	543	219	4	0	0	181847	683	0	correct_rejection	NA	0
1	Nonet	58	544	220	6	0	0	182563	684	0	correct_rejection	NA	0
1	Nonet	59	545	221	5	0	0	183280	683	0	correct_rejection	NA	0
1	Nonet	60	546	222	4	0	0	183997	683	0	correct_rejection	NA	0
1	Nonet	61	547	223	4	0	0	184713	684	0	correct_rejection	NA	0
1	Nonet	62	548	224	5	0	0	185430	683	0	correct_rejection	NA	0
1	Nonet	63	549	225	6	0	0	186147	683	0	correct_rejection	NA	0
1	Nonet	64	550	226	4	0	0	186863	684	0	correct_rejection	NA	0
1	Nonet	65	551	227	5	0	0	187580	683	0	correct_rejection	NA	0
1	Nonet	66	552	228	6	0	0	188297	683	0	correct_rejection	NA	0
1	Nonet	67	553	229	0	1	2	189013	684	1	hit	317	0
1	Nonet	68	554	230	4	0	0	189730	683	0	correct_rejection	NA	0
1	Nonet	69	555	231	5	0	0	190447	683	0	correct_rejection	NA	0
1	Nonet	70	556	232	6	0	0	191163	684	0	correct_rejection	NA	0
1	Nonet	71	557	233	7	0	0	191880	683	0	correct_rejection	NA	0
1	Nonet	72	558	234	8	0	0	192597	683	0	correct_rejection	NA	0
1	Nonet	73	559	235	9	0	0	193313	684	0	correct_rejection	NA	0
1	Nonet	74	560	236	7	0	0	194030	683	0	correct_rejection	NA	0
1	Nonet	75	561	237	8	0	0	194747	683	0	correct_rejection	NA	0
1	Nonet	76	562	238	9	0	0	195463	684	0	correct_rejection	NA	0
1	Nonet	77	563	239	7	0	0	196180	683	0	correct_rejection	NA	0
1	Nonet	78	564	240	8	0	0	196896	684	0	correct_rejection	NA	0
1	Nonet	79	565	241	9	0	0	197613	684	0	correct_rejection	NA	0
1	Nonet	80	566	242	6	0	0	198330	683	0	correct_rejection	NA	0
1	Nonet	81	567	243	5	0	0	199046	684	0	correct_rejection	NA	0
1	Nonet	82	568	244	0	1	1	199763	683	1	hit	319	0
1	Nonet	83	569	245	4	0	0	200480	683	0	correct_rejection	NA	0
1	Nonet	84	570	246	6	0	0	201196	684	0	correct_rejection	NA	0
1	Nonet	85	571	247	5	0	0	201913	683	0	correct_rejection	NA	0
1	Nonet	86	572	248	4	0	0	202630	683	0	correct_rejection	NA	0
1	Nonet	87	573	249	0	1	2	203346	684	1	hit	378	0
1	Nonet	88	574	250	6	0	0	204063	683	0	correct_rejection	NA	0
1	Nonet	89	575	251	5	0	0	204780	683	0	correct_rejection	NA	0
1	Nonet	90	576	252	4	0	0	205496	684	0	correct_rejection	NA	0
1	Nonet	91	577	253	9	0	0	206213	683	0	correct_rejection	NA	0
1	Nonet	92	578	254	8	0	0	206930	683	0	correct_rejection	NA	0
1	Nonet	93	579	255	7	0	0	207646	684	0	correct_rejection	NA	0
1	Nonet	94	580	256	9	0	0	208363	683	0	correct_rejection	NA	0
1	Nonet	95	581	257	8	0	0	209080	683	0	correct_rejection	NA	0
1	Nonet	96	582	258	7	0	0	209796	684	0	correct_rejection	NA	0
1	Nonet	97	583	259	0	1	2	210513	683	1	hit	287	0
1	Nonet	98	584	260	9	0	0	211230	683	0	correct_rejection	NA	0
1	Nonet	99	585	261	8	0	0	211946	684	0	correct_rejection	NA	0
1	Nonet	100	586	262	7	0	0	212663	683	0	correct_rejection	NA	0
1	Nonet	101	587	263	6	0	0	213380	683	0	correct_rejection	NA	0
1	Nonet	102	588	264	5	0	0	214096	684	1	false_alarm	311	0
1	Nonet	103	589	265	0	1	1	214813	683	1	hit	450	0
1	Nonet	104	590	266	4	0	0	215530	683	0	correct_rejection	NA	0
1	Nonet	105	591	267	6	0	0	216246	684	0	correct_rejection	NA	0
1	Nonet	106	592	268	5	0	0	216963	683	0	correct_rejection	NA	0
1	Nonet	107	593	269	4	0	0	217680	683	0	correct_rejection	NA	0
1	Nonet	108	594	270	6	0	0	218396	684	0	correct_rejection	NA	0
1	Nonet	109	595	271	5	0	0	219113	683	0	correct_rejection	NA	0
1	Nonet	110	596	272	4	0	0	219829	684	0	correct_rejection	NA	0
1	Nonet	111	597	273	6	0	0	220546	683	0	correct_rejection	NA	0
1	Nonet	112	598	274	5	0	0	221263	683	0	correct_rejection	NA	0
1	Nonet	113	599	275	4	0	0	221979	684	0	correct_rejection	NA	0
1	Nonet	114	600	276	6	0	0	222696	683	0	correct_rejection	NA	0
1	Nonet	115	601	277	5	0	0	223413	683	0	correct_rejection	NA	0
1	Nonet	116	602	278	4	0	0	224129	684	0	correct_rejection	NA	0
1	Nonet	117	603	279	6	0	0	224846	683	0	correct_rejection	NA	0
1	Nonet	118	604	280	0	1	1	225563	683	1	hit	427	0
1	Nonet	119	605	281	5	0	0	226279	684	0	correct_rejection	NA	0
1	Nonet	120	606	282	4	0	0	226996	683	0	correct_rejection	NA	0
1	Nonet	121	607	283	7	0	0	227713	683	0	correct_rejection	NA	0
1	Nonet	122	608	284	8	0	0	228429	684	0	correct_rejection	NA	0
1	Nonet	123	609	285	0	1	1	229146	683	1	hit	297	0
1	Nonet	124	610	286	9	0	0	229863	683	0	correct_rejection	NA	0
1	Nonet	125	611	287	7	0	0	230579	684	0	correct_rejection	NA	0
1	Nonet	126	612	288	0	1	1	231296	683	1	hit	305	0
1	Nonet	127	613	289	8	0	0	232013	683	0	correct_rejection	NA	0
1	Nonet	128	614	290	9	0	0	232729	684	0	correct_rejection	NA	0
1	Nonet	129	615	291	0	1	2	233446	683	1	hit	266	0
1	Nonet	130	616	292	7	0	0	234163	683	0	correct_rejection	NA	0
1	Nonet	131	617	293	8	0	0	234879	684	0	correct_rejection	NA	0
1	Nonet	132	618	294	9	0	0	235596	683	0	correct_rejection	NA	0
1	Nonet	133	619	295	4	0	0	236313	683	0	correct_rejection	NA	0
1	Nonet	134	620	296	5	0	0	237029	684	0	correct_rejection	NA	0
1	Nonet	135	621	297	6	0	0	237746	683	0	correct_rejection	NA	0
1	Nonet	136	622	298	4	0	0	238463	683	0	correct_rejection	NA	0
1	Nonet	137	623	299	5	0	0	239179	684	0	correct_rejection	NA	0
1	Nonet	138	624	300	6	0	0	239896	683	0	correct_rejection	NA	0
1	Nonet	139	625	301	4	0	0	240612	684	0	correct_rejection	NA	0
1	Nonet	140	626	302	5	0	0	241329	684	0	correct_rejection	NA	0
1	Nonet	141	627	303	6	0	0	242046	683	0	correct_rejection	NA	0
1	Nonet	142	628	304	4	0	0	242762	684	0	correct_rejection	NA	0
1	Nonet	143	629	305	5	0	0	243479	683	0	correct_rejection	NA	0
1	Nonet	144	630	306	6	0	0	244196	683	0	correct_rejection	NA	0
1	Nonet	145	631	307	4	0	0	244912	684	0	correct_rejection	NA	0
1	Nonet	146	632	308	0	1	1	245629	683	1	hit	353	0
1	Nonet	147	633	309	5	0	0	246346	683	0	correct_rejection	NA	0
1	Nonet	148	634	310	6	0	0	247062	684	0	correct_rejection	NA	0
1	Nonet	149	635	311	0	1	2	247779	683	1	hit	327	0
1	Nonet	150	636	312	4	0	0	248496	683	0	correct_rejection	NA	0
1	Nonet	151	637	313	5	0	0	249212	684	0	correct_rejection	NA	0
1	Nonet	152	638	314	6	0	0	249929	683	0	correct_rejection	NA	0
1	Nonet	153	639	315	9	0	0	250646	683	0	correct_rejection	NA	0
1	Nonet	154	640	316	8	0	0	251362	684	0	correct_rejection	NA	0
1	Nonet	155	641	317	7	0	0	252079	683	0	correct_rejection	NA	0
1	Nonet	156	642	318	9	0	0	252796	683	0	correct_rejection	NA	0
1	Nonet	157	643	319	8	0	0	253512	684	0	correct_rejection	NA	0
1	Nonet	158	644	320	7	0	0	254229	683	0	correct_rejection	NA	0
1	Nonet	159	645	321	9	0	0	254946	683	0	correct_rejection	NA	0
1	Nonet	160	646	322	8	0	0	255662	684	0	correct_rejection	NA	0
1	Nonet	161	647	323	0	1	1	256379	683	1	hit	374	0
1	Nonet	162	648	324	7	0	0	257096	683	0	correct_rejection	NA	0
1	Correct	1	163	325	4	0	0	265829	683	0	correct_rejection	NA	7969
1	Correct	2	164	326	5	0	0	266545	684	0	correct_rejection	NA	0
1	Correct	3	165	327	6	0	0	267262	683	0	correct_rejection	NA	0
1	Correct	4	166	328	4	0	0	267979	683	0	correct_rejection	NA	0
1	Correct	5	167	329	5	0	0	268695	684	0	correct_rejection	NA	0
1	Correct	6	168	330	6	0	0	269412	683	0	correct_rejection	NA	0
1	Correct	7	169	331	4	0	0	270129	683	0	correct_rejection	NA	0
1	Correct	8	170	332	0	1	1	270845	684	1	hit	310	0
1	Correct	9	171	333	5	0	0	271562	683	0	correct_rejection	NA	0
1	Correct	10	172	334	6	0	0	272279	683	0	correct_rejection	NA	0
1	Correct	11	173	335	6	0	0	272995	684	0	correct_rejection	NA	0
1	Correct	12	174	336	5	0	0	273712	683	0	correct_rejection	NA	0
1	Correct	13	175	337	4	0	0	274429	683	0	correct_rejection	NA	0
1	Correct	14	176	338	0	1	2	275145	684	1	hit	332	0
1	Correct	15	177	339	6	0	0	275862	683	0	correct_rejection	NA	0
1	Correct	16	178	340	5	0	0	276579	683	0	correct_rejection	NA	0
1	Correct	17	179	341	4	0	0	277295	684	0	correct_rejection	NA	0
1	Correct	18	180	342	6	0	0	278012	683	0	correct_rejection	NA	0
1	Correct	19	181	343	5	0	0	278729	683	0	correct_rejection	NA	0
1	Correct	20	182	344	4	0	0	279445	684	0	correct_rejection	NA	0
1	Correct	21	183	345	0	1	3	280162	683	1	hit	313	0
1	Correct	22	184	346	9	0	0	280879	683	0	correct_rejection	NA	0
1	Correct	23	185	347	8	0	0	281595	684	0	correct_rejection	NA	0
1	Correct	24	186	348	7	0	0	282312	683	0	correct_rejection	NA	0
1	Correct	25	187	349	0	1	2	283029	683	1	hit	399	0
1	Correct	26	188	350	9	0	0	283745	684	0	correct_rejection	NA	0
1	Correct	27	189	351	8	0	0	284462	683	0	correct_rejection	NA	0
1	Correct	28	190	352	0	1	1	285178	684	1	hit	311	0
1	Correct	29	191	353	7	0	0	285895	683	0	correct_rejection	NA	0
1	Correct	30	192	354	9	0	0	286612	683	0	correct_rejection	NA	0
1	Correct	31	193	355	8	0	0	287328	684	0	correct_rejection	NA	0
1	Correct	32	194	356	7	0	0	288045	683	0	correct_rejection	NA	0
1	Correct	33	195	357	0	1	3	288762	683	1	hit	321	0
1	Correct	34	196	358	7	0	0	289478	684	0	correct_rejection	NA	0
1	Correct	35	197	359	8	0	0	290195	683	0	correct_rejection	NA	0
1	Correct	36	198	360	9	0	0	290912	683	0	correct_rejection	NA	0
1	Correct	37	199	361	7	0	0	291628	684	0	correct_rejection	NA	0
1	Correct	38	200	362	8	0	0	292345	683	0	correct_rejection	NA	0
1	Correct	39	201	363	9	0	0	293062	683	0	correct_rejection	NA	0
1	Correct	40	202	364	7	0	0	293778	684	0	correct_rejection	NA	0
1	Correct	41	203	365	8	0	0	294495	683	0	correct_rejection	NA	0
1	Correct	42	204	366	9	0	0	295212	683	0	correct_rejection	NA	0
1	Correct	43	205	367	4	0	0	295928	684	0	correct_rejection	NA	0
1	Correct	44	206	368	5	0	0	296645	683	0	correct_rejection	NA	0
1	Correct	45	207	369	6	0	0	297362	683	0	correct_rejection	NA	0
1	Correct	46	208	370	4	0	0	298078	684	0	correct_rejection	NA	0
1	Correct	47	209	371	5	0	0	298795	683	0	correct_rejection	NA	0
1	Correct	48	210	372	6	0	0	299512	683	0	correct_rejection	NA	0
1	Correct	49	211	373	4	0	0	300228	684	0	correct_rejection	NA	0
1	Correct	50	212	374	5	0	0	300945	683	0	correct_rejection	NA	0
1	Correct	51	213	375	6	0	0	301662	683	0	correct_rejection	NA	0
1	Correct	52	214	376	6	0	0	302378	684	0	correct_rejection	NA	0
1	Correct	53	215	377	5	0	0	303095	683	0	correct_rejection	NA	0
1	Correct	54	216	378	4	0	0	303812	683	0	correct_rejection	NA	0
1	Correct	55	217	379	6	0	0	304528	684	0	correct_rejection	NA	0
1	Correct	56	218	380	5	0	0	305245	683	0	correct_rejection	NA	0
1	Correct	57	219	381	4	0	0	305962	683	0	correct_rejection	NA	0
1	Correct	58	220	382	6	0	0	306678	684	0	correct_rejection	NA	0
1	Correct	59	221	383	5	0	0	307395	683	0	correct_rejection	NA	0
1	Correct	60	222	384	0	1	1	308111	684	1	hit	322	0
1	Correct	61	223	385	4	0	0	308828	684	0	correct_rejection	NA	0
1	Correct	62	224	386	9	0	0	309545	683	0	correct_rejection	NA	0
1	Correct	63	225	387	0	1	1	310261	684	1	hit	347	0
1	Correct	64	226	388	8	0	0	310978	683	0	correct_rejection	NA	0
1	Correct	65	227	389	7	0	0	311695	683	0	correct_rejection	NA	0
1	Correct	66	228	390	9	0	0	312411	684	0	correct_rejection	NA	0
1	Correct	67	229	391	8	0	0	313128	683	0	correct_rejection	NA	0
1	Correct	68	230	392	7	0	0	313845	683	0	correct_rejection	NA	0
1	Correct	69	231	393	9	0	0	314561	684	0	correct_rejection	NA	0
1	Correct	70	232	394	8	0	0	315278	683	0	correct_rejection	NA	0
1	Correct	71	233	395	7	0	0	315995	683	0	correct_rejection	NA	0
1	Correct	72	234	396	7	0	0	316711	684	0	correct_rejection	NA	0
1	Correct	73	235	397	8	0	0	317428	683	0	correct_rejection	NA	0
1	Correct	74	236	398	0	1	1	318145	683	1	hit	280	0
1	Correct	75	237	399	9	0	0	318861	684	0	correct_rejection	NA	0
1	Correct	76	238	400	7	0	0	319578	683	0	correct_rejection	NA	0
1	Correct	77	239	401	0	1	1	320295	683	1	hit	318	0
1	Correct	78	240	402	8	0	0	321011	684	0	correct_rejection	NA	0
1	Correct	79	241	403	9	0	0	321728	683	0	correct_rejection	NA	0
1	Correct	80	242	404	7	0	0	322445	683	0	correct_rejection	NA	0
1	Correct	81	243	405	0	1	1	323161	684	1	hit	259	0
1	Correct	82	244	406	8	0	0	323878	683	0	correct_rejection	NA	0
1	Correct	83	245	407	9	0	0	324595	683	0	correct_rejection	NA	0
1	Correct	84	246	408	4	0	0	325311	684	0	correct_rejection	NA	0
1	Correct	85	247	409	5	0	0	326028	683	0	correct_rejection	NA	0
1	Correct	86	248	410	6	0	0	326745	683	0	correct_rejection	NA	0
1	Correct	87	249	411	0	1	2	327461	684	1	hit	314	0
1	Correct	88	250	412	4	0	0	328178	683	0	correct_rejection	NA	0
1	Correct	89	251	413	5	0	0	328894	684	0	correct_rejection	NA	0
1	Correct	90	252	414	6	0	0	329611	684	0	correct_rejection	NA	0
1	Correct	91	253	415	4	0	0	330328	683	0	correct_rejection	NA	0
1	Correct	92	254	416	5	0	0	331044	684	0	correct_rejection	NA	0
1	Correct	93	255	417	6	0	0	331761	683	0	correct_rejection	NA	0
1	Correct	94	256	418	6	0	0	332478	683	0	correct_rejection	NA	0
1	Correct	95	257	419	0	1	1	333194	684	1	hit	304	0
1	Correct	96	258	420	5	0	0	333911	683	0	correct_rejection	NA	0
1	Correct	97	259	421	4	0	0	334628	683	0	correct_rejection	NA	0
1	Correct	98	260	422	6	0	0	335344	684	0	correct_rejection	NA	0
1	Correct	99	261	423	5	0	0	336061	683	0	correct_rejection	NA	0
1	Correct	100	262	424	4	0	0	336778	683	0	correct_rejection	NA	0
1	Correct	101	263	425	6	0	0	337494	684	0	correct_rejection	NA	0
1	Correct	102	264	426	5	0	0	338211	683	0	correct_rejection	NA	0
1	Correct	103	265	427	4	0	0	338928	683	0	correct_rejection	NA	0
1	Correct	104	266	428	9	0	0	339644	684	0	correct_rejection	NA	0
1	Correct	105	267	429	8	0	0	340361	683	0	correct_rejection	NA	0
1	Correct	106	268	430	7	0	0	341078	683	0	correct_rejection	NA	0
1	Correct	107	269	431	9	0	0	341794	684	0	correct_rejection	NA	0
1	Correct	108	270	432	8	0	0	342511	683	0	correct_rejection	NA	0
1	Correct	109	271	433	7	0	0	343228	683	0	correct_rejection	NA	0
1	Correct	110	272	434	9	0	0	343944	684	0	correct_rejection	NA	0
1	Correct	111	273	435	8	0	0	344661	683	0	correct_rejection	NA	0
1	Correct	112	274	436	7	0	0	345378	683	0	correct_rejection	NA	0
1	Correct	113	275	437	7	0	0	346094	684	0	correct_rejection	NA	0
1	Correct	114	276	438	8	0	0	346811	683	0	correct_rejection	NA	0
1	Correct	115	277	439	0	1	1	347528	683	1	hit	319	0
1	Correct	116	278	440	9	0	0	348244	684	0	correct_rejection	NA	0
1	Correct	117	279	441	7	0	0	348961	683	0	correct_rejection	NA	0
1	Correct	118	280	442	8	0	0	349678	683	0	correct_rejection	NA	0
1	Correct	119	281	443	9	0	0	350394	684	0	correct_rejection	NA	0
1	Correct	120	282	444	0	1	2	351111	683	1	hit	427	0
1	Correct	121	283	445	7	0	0	351827	684	0	correct_rejection	NA	0
1	Correct	122	284	446	8	0	0	352544	683	0	correct_rejection	NA	0
1	Correct	123	285	447	9	0	0	353261	683	0	correct_rejection	NA	0
1	Correct	124	286	448	4	0	0	353977	684	0	correct_rejection	NA	0
1	Correct	125	287	449	5	0	0	354694	683	0	correct_rejection	NA	0
1	Correct	126	288	450	0	1	1	355411	683	1	hit	336	0
1	Correct	127	289	451	6	0	0	356127	684	0	correct_rejection	NA	0
1	Correct	128	290	452	4	0	0	356844	683	0	correct_rejection	NA	0
1	Correct	129	291	453	5	0	0	357561	683	0	correct_rejection	NA	0
1	Correct	130	292	454	6	0	0	358277	684	0	correct_rejection	NA	0
1	Correct	131	293	455	4	0	0	358994	683	0	correct_rejection	NA	0
1	Correct	132	294	456	5	0	0	359711	683	0	correct_rejection	NA	0
1	Correct	133	295	457	6	0	0	360427	684	0	correct_rejection	NA	0
1	Correct	134	296	458	6	0	0	361144	683	0	correct_rejection	NA	0
1	Correct	135	297	459	5	0	0	361861	683	0	correct_rejection	NA	0
1	Correct	136	298	460	4	0	0	362577	684	0	correct_rejection	NA	0
1	Correct	137	299	461	6	0	0	363294	683	0	correct_rejection	NA	0
1	Correct	138	300	462	5	0	0	364011	683	0	correct_rejection	NA	0
1	Correct	139	301	463	4	0	0	364727	684	0	correct_rejection	NA	0
1	Correct	140	302	464	6	0	0	365444	683	0	correct_rejection	NA	0
1	Correct	141	303	465	5	0	0	366161	683	0	correct_rejection	NA	0
1	Correct	142	304	466	4	0	0	366877	684	0	correct_rejection	NA	0
1	Correct	143	305	467	9	0	0	367594	683	0	correct_rejection	NA	0
1	Correct	144	306	468	8	0	0	368311	683	0	correct_rejection	NA	0
1	Correct	145	307	469	7	0	0	369027	684	0	correct_rejection	NA	0
1	Correct	146	308	470	9	0	0	369744	683	0	correct_rejection	NA	0
1	Correct	147	309	471	8	0	0	370461	683	0	correct_rejection	NA	0
1	Correct	148	310	472	0	1	1	371177	684	1	hit	392	0
1	Correct	149	311	473	7	0	0	371894	683	0	correct_rejection	NA	0
1	Correct	150	312	474	9	0	0	372611	683	0	correct_rejection	NA	0
1	Correct	151	313	475	8	0	0	373327	684	0	correct_rejection	NA	0
1	Correct	152	314	476	7	0	0	374044	683	0	correct_rejection	NA	0
1	Correct	153	315	477	7	0	0	374760	684	0	correct_rejection	NA	0
1	Correct	154	316	478	0	1	1	375477	683	1	hit	332	0
1	Correct	155	317	479	8	0	0	376194	683	0	correct_rejection	NA	0
1	Correct	156	318	480	9	0	0	376910	684	0	correct_rejection	NA	0
1	Correct	157	319	481	7	0	0	377627	683	0	correct_rejection	NA	0
1	Correct	158	320	482	8	0	0	378344	683	0	correct_rejection	NA	0
1	Correct	159	321	483	9	0	0	379060	684	0	correct_rejection	NA	0
1	Correct	160	322	484	7	0	0	379777	683	0	correct_rejection	NA	0
1	Correct	161	323	485	8	0	0	380494	683	1	false_alarm	301	0
1	Correct	162	324	486	9	0	0	381210	684	0	correct_rejection	NA	0
1	Triplet	1	1	487	9	0	0	389610	684	0	correct_rejection	NA	7642
1	Triplet	2	2	488	8	0	0	390327	683	0	correct_rejection	NA	0
1	Triplet	3	3	489	7	0	0	391044	683	0	correct_rejection	NA	0
1	Triplet	4	4	490	6	0	0	391760	684	0	correct_rejection	NA	0
1	Triplet	5	5	491	5	0	0	392477	683	0	correct_rejection	NA	0
1	Triplet	6	6	492	4	0	0	393194	683	0	correct_rejection	NA	0
1	Triplet	7	7	493	7	0	0	393910	684	0	correct_rejection	NA	0
1	Triplet	8	8	494	8	0	0	394627	683	0	correct_rejection	NA	0
1	Triplet	9	9	495	9	0	0	395343	684	0	correct_rejection	NA	0
1	Triplet	10	10	496	7	0	0	396060	683	0	correct_rejection	NA	0
1	Triplet	11	11	497	8	0	0	396777	683	0	correct_rejection	NA	0
1	Triplet	12	12	498	9	0	0	397493	684	0	correct_rejection	NA	0
1	Triplet	13	13	499	0	1	2	398210	683	1	hit	333	0
1	Triplet	14	14	500	4	0	0	398927	683	0	correct_rejection	NA	0
1	Triplet	15	15	501	5	0	0	399643	684	0	correct_rejection	NA	0
1	Triplet	16	16	502	0	1	1	400360	683	1	hit	465	0
1	Triplet	17	17	503	6	0	0	401077	683	0	correct_rejection	NA	0
1	Triplet	18	18	504	6	0	0	401793	684	0	correct_rejection	NA	0
1	Triplet	19	19	505	0	1	1	402510	683	1	hit	330	0
1	Triplet	20	20	506	5	0	0	403227	683	0	correct_rejection	NA	0
1	Triplet	21	21	507	4	0	0	403943	684	0	correct_rejection	NA	0
1	Triplet	22	22	508	4	0	0	404660	683	0	correct_rejection	NA	0
1	Triplet	23	23	509	5	0	0	405377	683	0	correct_rejection	NA	0
1	Triplet	24	24	510	6	0	0	406093	684	0	correct_rejection	NA	0
1	Triplet	25	25	511	0	1	2	406810	683	1	hit	314	0
1	Triplet	26	26	512	7	0	0	407527	683	0	correct_rejection	NA	0
1	Triplet	27	27	513	8	0	0	408243	684	0	correct_rejection	NA	0
1	Triplet	28	28	514	9	0	0	408960	683	0	correct_rejection	NA	0
1	Triplet	29	29	515	9	0	0	409677	683	0	correct_rejection	NA	0
1	Triplet	30	30	516	8	0	0	410393	684	0	correct_rejection	NA	0
1	Triplet	31	31	517	7	0	0	411110	683	0	correct_rejection	NA	0
1	Triplet	32	32	518	7	0	0	411827	683	0	correct_rejection	NA	0
1	Triplet	33	33	519	8	0	0	412543	684	0	correct_rejection	NA	0
1	Triplet	34	34	520	9	0	0	413260	683	0	correct_rejection	NA	0
1	Triplet	35	35	521	6	0	0	413977	683	0	correct_rejection	NA	0
1	Triplet	36	36	522	5	0	0	414693	684	0	correct_rejection	NA	0
1	Triplet	37	37	523	4	0	0	415410	683	0	correct_rejection	NA	0
1	Triplet	38	38	524	6	0	0	416126	684	0	correct_rejection	NA	0
1	Triplet	39	39	525	5	0	0	416843	684	0	correct_rejection	NA	0
1	Triplet	40	40	526	4	0	0	417560	683	0	correct_rejection	NA	0
1	Triplet	41	41	527	9	0	0	418276	684	0	correct_rejection	NA	0
1	Triplet	42	42	528	8	0	0	418993	683	0	correct_rejection	NA	0
1	Triplet	43	43	529	7	0	0	419710	683	0	correct_rejection	NA	0
1	Triplet	44	44	530	9	0	0	420426	684	0	correct_rejection	NA	0
1	Triplet	45	45	531	8	0	0	421143	683	0	correct_rejection	NA	0
1	Triplet	46	46	532	7	0	0	421860	683	0	correct_rejection	NA	0
1	Triplet	47	47	533	0	1	2	422576	684	1	hit	431	0
1	Triplet	48	48	534	4	0	0	423293	683	0	correct_rejection	NA	0
1	Triplet	49	49	535	5	0	0	424010	683	0	correct_rejection	NA	0
1	Triplet	50	50	536	0	1	1	424726	684	1	hit	662	0
1	Triplet	51	51	537	6	0	0	425443	683	0	correct_rejection	NA	0
1	Triplet	52	52	538	4	0	0	426160	683	0	correct_rejection	NA	0
1	Triplet	53	53	539	5	0	0	426876	684	0	correct_rejection	NA	0
1	Triplet	54	54	540	6	0	0	427593	683	0	correct_rejection	NA	0
1	Triplet	55	55	541	9	0	0	428310	683	0	correct_rejection	NA	0
1	Triplet	56	56	542	8	0	0	429026	684	0	correct_rejection	NA	0
1	Triplet	57	57	543	7	0	0	429743	683	0	correct_rejection	NA	0
1	Triplet	58	58	544	4	0	0	430460	683	0	correct_rejection	NA	0
1	Triplet	59	59	545	5	0	0	431176	684	0	correct_rejection	NA	0
1	Triplet	60	60	546	6	0	0	431893	683	0	correct_rejection	NA	0
1	Triplet	61	61	547	0	1	2	432610	683	1	hit	319	0
1	Triplet	62	62	548	6	0	0	433326	684	0	correct_rejection	NA	0
1	Triplet	63	63	549	5	0	0	434043	683	0	correct_rejection	NA	0
1	Triplet	64	64	550	0	1	1	434760	683	1	hit	544	0
1	Triplet	65	65	551	4	0	0	435476	684	0	correct_rejection	NA	0
1	Triplet	66	66	552	6	0	0	436193	683	0	correct_rejection	NA	0
1	Triplet	67	67	553	5	0	0	436910	683	0	correct_rejection	NA	0
1	Triplet	68	68	554	4	0	0	437626	684	0	correct_rejection	NA	0
1	Triplet	69	69	555	0	1	2	438343	683	1	hit	363	0
1	Triplet	70	70	556	7	0	0	439059	684	0	correct_rejection	NA	0
1	Triplet	71	71	557	8	0	0	439776	684	0	correct_rejection	NA	0
1	Triplet	72	72	558	0	1	1	440493	683	1	hit	392	0
1	Triplet	73	73	559	9	0	0	441209	684	0	correct_rejection	NA	0
1	Triplet	74	74	560	4	0	0	441926	683	0	correct_rejection	NA	0
1	Triplet	75	75	561	0	1	1	442643	683	1	hit	346	0
1	Triplet	76	76	562	5	0	0	443359	684	0	correct_rejection	NA	0
1	Triplet	77	77	563	6	0	0	444076	683	0	correct_rejection	NA	0
1	Triplet	78	78	564	9	0	0	444793	683	0	correct_rejection	NA	0
1	Triplet	79	79	565	8	0	0	445509	684	0	correct_rejection	NA	0
1	Triplet	80	80	566	7	0	0	446226	683	0	correct_rejection	NA	0
1	Triplet	81	81	567	7	0	0	446943	683	0	correct_rejection	NA	0
1	Triplet	82	82	568	8	0	0	447659	684	0	correct_rejection	NA	0
1	Triplet	83	83	569	9	0	0	448376	683	0	correct_rejection	NA	0
1	Triplet	84	84	570	0	1	2	449093	683	1	hit	332	0
1	Triplet	85	85	571	9	0	0	449809	684	0	correct_rejection	NA	0
1	Triplet	86	86	572	8	0	0	450526	683	0	correct_rejection	NA	0
1	Triplet	87	87	573	7	0	0	451243	683	0	correct_rejection	NA	0
1	Triplet	88	88	574	6	0	0	451959	684	0	correct_rejection	NA	0
1	Triplet	89	89	575	5	0	0	452676	683	0	correct_rejection	NA	0
1	Triplet	90	90	576	4	0	0	453393	683	0	correct_rejection	NA	0
1	Triplet	91	91	577	4	0	0	454109	684	0	correct_rejection	NA	0
1	Triplet	92	92	578	5	0	0	454826	683	0	correct_rejection	NA	0
1	Triplet	93	93	579	6	0	0	455543	683	0	correct_rejection	NA	0
1	Triplet	94	94	580	4	0	0	456259	684	0	correct_rejection	NA	0
1	Triplet	95	95	581	0	1	1	456976	683	1	hit	373	0
1	Triplet	96	96	582	5	0	0	457693	683	0	correct_rejection	NA	0
1	Triplet	97	97	583	6	0	0	458409	684	0	correct_rejection	NA	0
1	Triplet	98	98	584	7	0	0	459126	683	0	correct_rejection	NA	0
1	Triplet	99	99	585	8	0	0	459843	683	0	correct_rejection	NA	0
1	Triplet	100	100	586	9	0	0	460559	684	0	correct_rejection	NA	0
1	Triplet	101	101	587	7	0	0	461276	683	0	correct_rejection	NA	0
1	Triplet	102	102	588	8	0	0	461992	684	0	correct_rejection	NA	0
1	Triplet	103	103	589	9	0	0	462709	683	0	correct_rejection	NA	0
1	Triplet	104	104	590	6	0	0	463426	683	0	correct_rejection	NA	0
1	Triplet	105	105	591	5	0	0	464142	684	0	correct_rejection	NA	0
1	Triplet	106	106	592	4	0	0	464859	683	0	correct_rejection	NA	0
1	Triplet	107	107	593	9	0	0	465576	683	0	correct_rejection	NA	0
1	Triplet	108	108	594	8	0	0	466292	684	0	correct_rejection	NA	0
1	Triplet	109	109	595	0	1	1	467009	683	1	hit	352	0
1	Triplet	110	110	596	7	0	0	467726	683	0	correct_rejection	NA	0
1	Triplet	111	111	597	7	0	0	468442	684	0	correct_rejection	NA	0
1	Triplet	112	112	598	8	0	0	469159	683	0	correct_rejection	NA	0
1	Triplet	113	113	599	9	0	0	469876	683	0	correct_rejection	NA	0
1	Triplet	114	114	600	4	0	0	470592	684	0	correct_rejection	NA	0
1	Triplet	115	115	601	5	0	0	471309	683	0	correct_rejection	NA	0
1	Triplet	116	116	602	6	0	0	472026	683	0	correct_rejection	NA	0
1	Triplet	117	117	603	4	0	0	472742	684	0	correct_rejection	NA	0
1	Triplet	118	118	604	5	0	0	473459	683	0	correct_rejection	NA	0
1	Triplet	119	119	605	6	0	0	474176	683	0	correct_rejection	NA	0
1	Triplet	120	120	606	0	1	2	474892	684	1	hit	385	0
1	Triplet	121	121	607	9	0	0	475609	683	0	correct_rejection	NA	0
1	Triplet	122	122	608	8	0	0	476326	683	0	correct_rejection	NA	0
1	Triplet	123	123	609	7	0	0	477042	684	0	correct_rejection	NA	0
1	Triplet	124	124	610	4	0	0	477759	683	0	correct_rejection	NA	0
1	Triplet	125	125	611	5	0	0	478476	683	0	correct_rejection	NA	0
1	Triplet	126	126	612	6	0	0	479192	684	0	correct_rejection	NA	0
1	Triplet	127	127	613	7	0	0	479909	683	0	correct_rejection	NA	0
1	Triplet	128	128	614	8	0	0	480626	683	0	correct_rejection	NA	0
1	Triplet	129	129	615	0	1	1	481342	684	1	hit	297	0
1	Triplet	130	130	616	9	0	0	482059	683	0	correct_rejection	NA	0
1	Triplet	131	131	617	6	0	0	482775	684	0	correct_rejection	NA	0
1	Triplet	132	132	618	5	0	0	483492	684	0	correct_rejection	NA	0
1	Triplet	133	133	619	4	0	0	484209	683	0	correct_rejection	NA	0
1	Triplet	134	134	620	0	1	2	484925	684	1	hit	324	0
1	Triplet	135	135	621	4	0	0	485642	683	0	correct_rejection	NA	0
1	Triplet	136	136	622	5	0	0	486359	683	0	correct_rejection	NA	0
1	Triplet	137	137	623	6	0	0	487075	684	0	correct_rejection	NA	0
1	Triplet	138	138	624	6	0	0	487792	683	0	correct_rejection	NA	0
1	Triplet	139	139	625	5	0	0	488509	683	0	correct_rejection	NA	0
1	Triplet	140	140	626	4	0	0	489225	684	0	correct_rejection	NA	0
1	Triplet	141	141	627	9	0	0	489942	683	0	correct_rejection	NA	0
1	Triplet	142	142	628	8	0	0	490659	683	0	correct_rejection	NA	0
1	Triplet	143	143	629	7	0	0	491375	684	0	correct_rejection	NA	0
1	Triplet	144	144	630	7	0	0	492092	683	0	correct_rejection	NA	0
1	Triplet	145	145	631	8	0	0	492809	683	0	correct_rejection	NA	0
1	Triplet	146	146	632	9	0	0	493525	684	0	correct_rejection	NA	0
1	Triplet	147	147	633	7	0	0	494242	683	0	correct_rejection	NA	0
1	Triplet	148	148	634	8	0	0	494959	683	0	correct_rejection	NA	0
1	Triplet	149	149	635	9	0	0	495675	684	0	correct_rejection	NA	0
1	Triplet	150	150	636	9	0	0	496392	683	0	correct_rejection	NA	0
1	Triplet	151	151	637	0	1	1	497109	683	1	hit	346	0
1	Triplet	152	152	638	8	0	0	497825	684	0	correct_rejection	NA	0
1	Triplet	153	153	639	7	0	0	498542	683	0	correct_rejection	NA	0
1	Triplet	154	154	640	9	0	0	499259	683	0	correct_rejection	NA	0
1	Triplet	155	155	641	8	0	0	499975	684	0	correct_rejection	NA	0
1	Triplet	156	156	642	7	0	0	500692	683	0	correct_rejection	NA	0
1	Triplet	157	157	643	6	0	0	501409	683	0	correct_rejection	NA	0
1	Triplet	158	158	644	5	0	0	502125	684	0	correct_rejection	NA	0
1	Triplet	159	159	645	4	0	0	502842	683	0	correct_rejection	NA	0
1	Triplet	160	160	646	6	0	0	503559	683	0	correct_rejection	NA	0
1	Triplet	161	161	647	5	0	0	504275	684	0	correct_rejection	NA	0
1	Triplet	162	162	648	4	0	0	504992	683	0	correct_rejection	NA	0
1	Nonet	1	163	649	4	0	0	511992	683	0	correct_rejection	NA	6233
1	Nonet	2	164	650	5	0	0	512708	684	0	correct_rejection	NA	0
1	Nonet	3	165	651	6	0	0	513425	683	0	correct_rejection	NA	0
1	Nonet	4	166	652	4	0	0	514142	683	0	correct_rejection	NA	0
1	Nonet	5	167	653	5	0	0	514858	684	0	correct_rejection	NA	0
1	Nonet	6	168	654	6	0	0	515575	683	0	correct_rejection	NA	0
1	Nonet	7	169	655	4	0	0	516292	683	0	correct_rejection	NA	0
1	Nonet	8	170	656	5	0	0	517008	684	0	correct_rejection	NA	0
1	Nonet	9	171	657	0	1	1	517725	683	1	hit	577	0
1	Nonet	10	172	658	6	0	0	518442	683	0	correct_rejection	NA	0
1	Nonet	11	173	659	4	0	0	519158	684	0	correct_rejection	NA	0
1	Nonet	12	174	660	5	0	0	519875	683	0	correct_rejection	NA	0
1	Nonet	13	175	661	6	0	0	520592	683	0	correct_rejection	NA	0
1	Nonet	14	176	662	4	0	0	521308	684	0	correct_rejection	NA	0
1	Nonet	15	177	663	5	0	0	522025	683	0	correct_rejection	NA	0
1	Nonet	16	178	664	6	0	0	522742	683	0	correct_rejection	NA	0
1	Nonet	17	179	665	4	0	0	523458	684	0	correct_rejection	NA	0
1	Nonet	18	180	666	5	0	0	524175	683	0	correct_rejection	NA	0
1	Nonet	19	181	667	6	0	0	524892	683	0	correct_rejection	NA	0
1	Nonet	20	182	668	7	0	0	525608	684	0	correct_rejection	NA	0
1	Nonet	21	183	669	8	0	0	526325	683	0	correct_rejection	NA	0
1	Nonet	22	184	670	9	0	0	527041	684	0	correct_rejection	NA	0
1	Nonet	23	185	671	7	0	0	527758	683	0	correct_rejection	NA	0
1	Nonet	24	186	672	8	0	0	528475	683	0	correct_rejection	NA	0
1	Nonet	25	187	673	9	0	0	529191	684	0	correct_rejection	NA	0
1	Nonet	26	188	674	7	0	0	529908	683	0	correct_rejection	NA	0
1	Nonet	27	189	675	0	1	1	530625	683	1	hit	518	0
1	Nonet	28	190	676	8	0	0	531341	684	0	correct_rejection	NA	0
1	Nonet	29	191	677	9	0	0	532058	683	0	correct_rejection	NA	0
1	Nonet	30	192	678	0	1	3	532775	683	1	hit	395	0
1	Nonet	31	193	679	7	0	0	533491	684	0	correct_rejection	NA	0
1	Nonet	32	194	680	8	0	0	534208	683	0	correct_rejection	NA	0
1	Nonet	33	195	681	9	0	0	534925	683	0	correct_rejection	NA	0
1	Nonet	34	196	682	7	0	0	535641	684	0	correct_rejection	NA	0
1	Nonet	35	197	683	0	1	1	536358	683	1	hit	302	0
1	Nonet	36	198	684	8	0	0	537075	683	0	correct_rejection	NA	0
1	Nonet	37	199	685	9	0	0	537791	684	0	correct_rejection	NA	0
1	Nonet	38	200	686	7	0	0	538508	683	0	correct_rejection	NA	0
1	Nonet	39	201	687	8	0	0	539225	683	0	correct_rejection	NA	0
1	Nonet	40	202	688	9	0	0	539941	684	0	correct_rejection	NA	0
1	Nonet	41	203	689	6	0	0	540658	683	0	correct_rejection	NA	0
1	Nonet	42	204	690	5	0	0	541375	683	0	correct_rejection	NA	0
1	Nonet	43	205	691	4	0	0	542091	684	0	correct_rejection	NA	0
1	Nonet	44	206	692	6	0	0	542808	683	0	correct_rejection	NA	0
1	Nonet	45	207	693	5	0	0	543525	683	0	correct_rejection	NA	0
1	Nonet	46	208	694	4	0	0	544241	684	0	correct_rejection	NA	0
1	Nonet	47	209	695	6	0	0	544958	683	0	correct_rejection	NA	0
1	Nonet	48	210	696	5	0	0	545675	683	0	correct_rejection	NA	0
1	Nonet	49	211	697	0	1	1	546391	684	1	hit	335	0
1	Nonet	50	212	698	4	0	0	547108	683	0	correct_rejection	NA	0
1	Nonet	51	213	699	6	0	0	547825	683	0	correct_rejection	NA	0
1	Nonet	52	214	700	5	0	0	548541	684	0	correct_rejection	NA	0
1	Nonet	53	215	701	4	0	0	549258	683	0	correct_rejection	NA	0
1	Nonet	54	216	702	6	0	0	549974	684	0	correct_rejection	NA	0
1	Nonet	55	217	703	0	1	1	550691	683	1	hit	409	0
1	Nonet	56	218	704	5	0	0	551408	683	0	correct_rejection	NA	0
1	Nonet	57	219	705	4	0	0	552124	684	0	correct_rejection	NA	0
1	Nonet	58	220	706	6	0	0	552841	683	0	correct_rejection	NA	0
1	Nonet	59	221	707	5	0	0	553558	683	0	correct_rejection	NA	0
1	Nonet	60	222	708	4	0	0	554274	684	0	correct_rejection	NA	0
1	Nonet	61	223	709	4	0	0	554991	683	0	correct_rejection	NA	0
1	Nonet	62	224	710	0	1	1	555708	683	1	hit	320	0
1	Nonet	63	225	711	5	0	0	556424	684	0	correct_rejection	NA	0
1	Nonet	64	226	712	6	0	0	557141	683	0	correct_rejection	NA	0
1	Nonet	65	227	713	4	0	0	557858	683	0	correct_rejection	NA	0
1	Nonet	66	228	714	5	0	0	558574	684	0	correct_rejection	NA	0
1	Nonet	67	229	715	6	0	0	559291	683	0	correct_rejection	NA	0
1	Nonet	68	230	716	4	0	0	560008	683	0	correct_rejection	NA	0
1	Nonet	69	231	717	5	0	0	560724	684	0	correct_rejection	NA	0
1	Nonet	70	232	718	6	0	0	561441	683	0	correct_rejection	NA	0
1	Nonet	71	233	719	6	0	0	562158	683	0	correct_rejection	NA	0
1	Nonet	72	234	720	5	0	0	562874	684	0	correct_rejection	NA	0
1	Nonet	73	235	721	4	0	0	563591	683	0	correct_rejection	NA	0
1	Nonet	74	236	722	6	0	0	564308	683	0	correct_rejection	NA	0
1	Nonet	75	237	723	0	1	1	565024	684	1	hit	320	0
1	Nonet	76	238	724	5	0	0	565741	683	0	correct_rejection	NA	0
1	Nonet	77	239	725	4	0	0	566458	683	0	correct_rejection	NA	0
1	Nonet	78	240	726	0	1	2	567174	684	1	hit	459	0
1	Nonet	79	241	727	6	0	0	567891	683	0	correct_rejection	NA	0
1	Nonet	80	242	728	5	0	0	568608	683	0	correct_rejection	NA	0
1	Nonet	81	243	729	4	0	0	569324	684	0	correct_rejection	NA	0
1	Nonet	82	244	730	9	0	0	570041	683	0	correct_rejection	NA	0
1	Nonet	83	245	731	0	1	1	570757	684	1	hit	325	0
1	Nonet	84	246	732	8	0	0	571474	684	0	correct_rejection	NA	0
1	Nonet	85	247	733	7	0	0	572191	683	0	correct_rejection	NA	0
1	Nonet	86	248	734	9	0	0	572907	684	0	correct_rejection	NA	0
1	Nonet	87	249	735	8	0	0	573624	683	0	correct_rejection	NA	0
1	Nonet	88	250	736	7	0	0	574341	683	0	correct_rejection	NA	0
1	Nonet	89	251	737	9	0	0	575057	684	0	correct_rejection	NA	0
1	Nonet	90	252	738	8	0	0	575774	683	0	correct_rejection	NA	0
1	Nonet	91	253	739	7	0	0	576491	683	0	correct_rejection	NA	0
1	Nonet	92	254	740	4	0	0	577207	684	0	correct_rejection	NA	0
1	Nonet	93	255	741	5	0	0	577924	683	0	correct_rejection	NA	0
1	Nonet	94	256	742	6	0	0	578641	683	0	correct_rejection	NA	0
1	Nonet	95	257	743	0	1	2	579357	684	1	hit	329	0
1	Nonet	96	258	744	4	0	0	580074	683	0	correct_rejection	NA	0
1	Nonet	97	259	745	5	0	0	580791	683	0	correct_rejection	NA	0
1	Nonet	98	260	746	6	0	0	581507	684	0	correct_rejection	NA	0
1	Nonet	99	261	747	4	0	0	582224	683	0	correct_rejection	NA	0
1	Nonet	100	262	748	0	1	1	582941	683	1	hit	456	0
1	Nonet	101	263	749	5	0	0	583657	684	0	correct_rejection	NA	0
1	Nonet	102	264	750	6	0	0	584374	683	0	correct_rejection	NA	0
1	Nonet	103	265	751	9	0	0	585091	683	0	correct_rejection	NA	0
1	Nonet	104	266	752	0	1	1	585807	684	1	hit	392	0
1	Nonet	105	267	753	8	0	0	586524	683	0	correct_rejection	NA	0
1	Nonet	106	268	754	7	0	0	587241	683	0	correct_rejection	NA	0
1	Nonet	107	269	755	9	0	0	587957	684	0	correct_rejection	NA	0
1	Nonet	108	270	756	0	1	1	588674	683	1	hit	386	0
1	Nonet	109	271	757	8	0	0	589391	683	0	correct_rejection	NA	0
1	Nonet	110	272	758	7	0	0	590107	684	0	correct_rejection	NA	0
1	Nonet	111	273	759	9	0	0	590824	683	0	correct_rejection	NA	0
1	Nonet	112	274	760	8	0	0	591541	683	0	correct_rejection	NA	0
1	Nonet	113	275	761	7	0	0	592257	684	0	correct_rejection	NA	0
1	Nonet	114	276	762	0	1	3	592974	683	1	hit	376	0
1	Nonet	115	277	763	7	0	0	593690	684	0	correct_rejection	NA	0
1	Nonet	116	278	764	8	0	0	594407	683	0	correct_rejection	NA	0
1	Nonet	117	279	765	9	0	0	595124	683	0	correct_rejection	NA	0
1	Nonet	118	280	766	7	0	0	595840	684	0	correct_rejection	NA	0
1	Nonet	119	281	767	8	0	0	596557	683	0	correct_rejection	NA	0
1	Nonet	120	282	768	9	0	0	597274	683	0	correct_rejection	NA	0
1	Nonet	121	283	769	7	0	0	597990	684	0	correct_rejection	NA	0
1	Nonet	122	284	770	8	0	0	598707	683	0	correct_rejection	NA	0
1	Nonet	123	285	771	9	0	0	599424	683	0	correct_rejection	NA	0
1	Nonet	124	286	772	9	0	0	600140	684	0	correct_rejection	NA	0
1	Nonet	125	287	773	8	0	0	600857	683	0	correct_rejection	NA	0
1	Nonet	126	288	774	7	0	0	601574	683	0	correct_rejection	NA	0
1	Nonet	127	289	775	9	0	0	602290	684	0	correct_rejection	NA	0
1	Nonet	128	290	776	8	0	0	603007	683	0	correct_rejection	NA	0
1	Nonet	129	291	777	7	0	0	603724	683	0	correct_rejection	NA	0
1	Nonet	130	292	778	9	0	0	604440	684	0	correct_rejection	NA	0
1	Nonet	131	293	779	8	0	0	605157	683	0	correct_rejection	NA	0
1	Nonet	132	294	780	7	0	0	605874	683	0	correct_rejection	NA	0
1	Nonet	133	295	781	0	1	3	606590	684	1	hit	388	0
1	Nonet	134	296	782	9	0	0	607307	683	0	correct_rejection	NA	0
1	Nonet	135	297	783	8	0	0	608024	683	0	correct_rejection	NA	0
1	Nonet	136	298	784	7	0	0	608740	684	0	correct_rejection	NA	0
1	Nonet	137	299	785	9	0	0	609457	683	0	correct_rejection	NA	0
1	Nonet	138	300	786	8	0	0	610174	683	0	correct_rejection	NA	0
1	Nonet	139	301	787	7	0	0	610890	684	0	correct_rejection	NA	0
1	Nonet	140	302	788	9	0	0	611607	683	0	correct_rejection	NA	0
1	Nonet	141	303	789	8	0	0	612324	683	0	correct_rejection	NA	0
1	Nonet	142	304	790	7	0	0	613040	684	0	correct_rejection	NA	0
1	Nonet	143	305	791	6	0	0	613757	683	0	correct_rejection	NA	0
1	Nonet	144	306	792	5	0	0	614473	684	0	correct_rejection	NA	0
1	Nonet	145	307	793	4	0	0	615190	684	0	correct_rejection	NA	0
1	Nonet	146	308	794	0	1	2	615907	683	1	hit	665	0
1	Nonet	147	309	795	6	0	0	616623	684	0	correct_rejection	NA	0
1	Nonet	148	310	796	5	0	0	617340	683	0	correct_rejection	NA	0
1	Nonet	149	311	797	4	0	0	618057	683	0	correct_rejection	NA	0
1	Nonet	150	312	798	6	0	0	618773	684	0	correct_rejection	NA	0
1	Nonet	151	313	799	5	0	0	619490	683	0	correct_rejection	NA	0
1	Nonet	152	314	800	4	0	0	620207	683	0	correct_rejection	NA	0
1	Nonet	153	315	801	7	0	0	620923	684	0	correct_rejection	NA	0
1	Nonet	154	316	802	8	0	0	621640	683	0	correct_rejection	NA	0
1	Nonet	155	317	803	0	1	1	622357	683	1	hit	338	0
1	Nonet	156	318	804	9	0	0	623073	684	0	correct_rejection	NA	0
1	Nonet	157	319	805	7	0	0	623790	683	0	correct_rejection	NA	0
1	Nonet	158	320	806	8	0	0	624507	683	1	false_alarm	299	0
1	Nonet	159	321	807	9	0	0	625223	684	0	correct_rejection	NA	0
1	Nonet	160	322	808	7	0	0	625940	683	0	correct_rejection	NA	0
1	Nonet	161	323	809	8	0	0	626657	683	0	correct_rejection	NA	0
1	Nonet	162	324	810	9	0	0	627373	684	0	correct_rejection	NA	0
trigger nr 311 at 626248
trigger nr 317 at 726429
1	Triplet	1	487	811	6	0	0	732705	683	0	correct_rejection	NA	6211
1	Triplet	2	488	812	5	0	0	733422	683	0	correct_rejection	NA	0
1	Triplet	3	489	813	4	0	0	734138	684	0	correct_rejection	NA	0
1	Triplet	4	490	814	4	0	0	734855	683	0	correct_rejection	NA	0
1	Triplet	5	491	815	5	0	0	735572	683	0	correct_rejection	NA	0
1	Triplet	6	492	816	6	0	0	736288	684	0	correct_rejection	NA	0
1	Triplet	7	493	817	9	0	0	737005	683	0	correct_rejection	NA	0
1	Triplet	8	494	818	8	0	0	737722	683	0	correct_rejection	NA	0
1	Triplet	9	495	819	7	0	0	738438	684	0	correct_rejection	NA	0
1	Triplet	10	496	820	0	1	2	739155	683	1	hit	332	0
1	Triplet	11	497	821	4	0	0	739872	683	0	correct_rejection	NA	0
1	Triplet	12	498	822	5	0	0	740588	684	0	correct_rejection	NA	0
1	Triplet	13	499	823	0	1	1	741305	683	1	hit	386	0
1	Triplet	14	500	824	6	0	0	742022	683	0	correct_rejection	NA	0
1	Triplet	15	501	825	6	0	0	742738	684	0	correct_rejection	NA	0
1	Triplet	16	502	826	5	0	0	743455	683	0	correct_rejection	NA	0
1	Triplet	17	503	827	0	1	1	744172	683	1	hit	298	0
1	Triplet	18	504	828	4	0	0	744888	684	0	correct_rejection	NA	0
1	Triplet	19	505	829	6	0	0	745605	683	0	correct_rejection	NA	0
1	Triplet	20	506	830	5	0	0	746321	684	0	correct_rejection	NA	0
1	Triplet	21	507	831	4	0	0	747038	683	0	correct_rejection	NA	0
1	Triplet	22	508	832	7	0	0	747755	683	0	correct_rejection	NA	0
1	Triplet	23	509	833	0	1	1	748471	684	1	hit	305	0
1	Triplet	24	510	834	8	0	0	749188	683	0	correct_rejection	NA	0
1	Triplet	25	511	835	9	0	0	749905	683	0	correct_rejection	NA	0
1	Triplet	26	512	836	6	0	0	750621	684	0	correct_rejection	NA	0
1	Triplet	27	513	837	0	1	1	751338	683	1	hit	337	0
1	Triplet	28	514	838	5	0	0	752055	683	0	correct_rejection	NA	0
1	Triplet	29	515	839	4	0	0	752771	684	0	correct_rejection	NA	0
1	Triplet	30	516	840	9	0	0	753488	683	0	correct_rejection	NA	0
1	Triplet	31	517	841	0	1	1	754205	683	1	hit	324	0
1	Triplet	32	518	842	8	0	0	754921	684	0	correct_rejection	NA	0
1	Triplet	33	519	843	7	0	0	755638	683	0	correct_rejection	NA	0
1	Triplet	34	520	844	9	0	0	756355	683	0	correct_rejection	NA	0
1	Triplet	35	521	845	8	0	0	757071	684	0	correct_rejection	NA	0
1	Triplet	36	522	846	0	1	1	757788	683	1	hit	328	0
1	Triplet	37	523	847	7	0	0	758505	683	0	correct_rejection	NA	0
1	Triplet	38	524	848	7	0	0	759221	684	0	correct_rejection	NA	0
1	Triplet	39	525	849	8	0	0	759938	683	0	correct_rejection	NA	0
1	Triplet	40	526	850	9	0	0	760655	683	0	correct_rejection	NA	0
1	Triplet	41	527	851	0	1	2	761371	684	1	hit	351	0
1	Triplet	42	528	852	4	0	0	762088	683	0	correct_rejection	NA	0
1	Triplet	43	529	853	5	0	0	762805	683	0	correct_rejection	NA	0
1	Triplet	44	530	854	6	0	0	763521	684	0	correct_rejection	NA	0
1	Triplet	45	531	855	4	0	0	764238	683	0	correct_rejection	NA	0
1	Triplet	46	532	856	5	0	0	764955	683	0	correct_rejection	NA	0
1	Triplet	47	533	857	6	0	0	765671	684	0	correct_rejection	NA	0
1	Triplet	48	534	858	7	0	0	766388	683	0	correct_rejection	NA	0
1	Triplet	49	535	859	8	0	0	767105	683	0	correct_rejection	NA	0
1	Triplet	50	536	860	9	0	0	767821	684	0	correct_rejection	NA	0
1	Triplet	51	537	861	7	0	0	768538	683	0	correct_rejection	NA	0
1	Triplet	52	538	862	8	0	0	769254	684	0	correct_rejection	NA	0
1	Triplet	53	539	863	0	1	1	769971	683	1	hit	450	0
1	Triplet	54	540	864	9	0	0	770688	683	0	correct_rejection	NA	0
1	Triplet	55	541	865	9	0	0	771404	684	0	correct_rejection	NA	0
1	Triplet	56	542	866	8	0	0	772121	683	0	correct_rejection	NA	0
1	Triplet	57	543	867	7	0	0	772838	683	0	correct_rejection	NA	0
1	Triplet	58	544	868	4	0	0	773554	684	0	correct_rejection	NA	0
1	Triplet	59	545	869	5	0	0	774271	683	0	correct_rejection	NA	0
1	Triplet	60	546	870	0	1	1	774988	683	1	hit	353	0
1	Triplet	61	547	871	6	0	0	775704	684	0	correct_rejection	NA	0
1	Triplet	62	548	872	7	0	0	776421	683	0	correct_rejection	NA	0
1	Triplet	63	549	873	8	0	0	777138	683	0	correct_rejection	NA	0
1	Triplet	64	550	874	9	0	0	777854	684	0	correct_rejection	NA	0
1	Triplet	65	551	875	6	0	0	778571	683	0	correct_rejection	NA	0
1	Triplet	66	552	876	0	1	1	779288	683	1	hit	329	0
1	Triplet	67	553	877	5	0	0	780004	684	0	correct_rejection	NA	0
1	Triplet	68	554	878	4	0	0	780721	683	0	correct_rejection	NA	0
1	Triplet	69	555	879	6	0	0	781438	683	0	correct_rejection	NA	0
1	Triplet	70	556	880	5	0	0	782154	684	0	correct_rejection	NA	0
1	Triplet	71	557	881	4	0	0	782871	683	0	correct_rejection	NA	0
1	Triplet	72	558	882	4	0	0	783588	683	0	correct_rejection	NA	0
1	Triplet	73	559	883	5	0	0	784304	684	0	correct_rejection	NA	0
1	Triplet	74	560	884	6	0	0	785021	683	0	correct_rejection	NA	0
1	Triplet	75	561	885	4	0	0	785738	683	0	correct_rejection	NA	0
1	Triplet	76	562	886	5	0	0	786454	684	0	correct_rejection	NA	0
1	Triplet	77	563	887	6	0	0	787171	683	0	correct_rejection	NA	0
1	Triplet	78	564	888	0	1	2	787888	683	1	hit	350	0
1	Triplet	79	565	889	6	0	0	788604	684	0	correct_rejection	NA	0
1	Triplet	80	566	890	5	0	0	789321	683	0	correct_rejection	NA	0
1	Triplet	81	567	891	4	0	0	790037	684	0	correct_rejection	NA	0
1	Triplet	82	568	892	7	0	0	790754	684	0	correct_rejection	NA	0
1	Triplet	83	569	893	0	1	1	791471	683	1	hit	360	0
1	Triplet	84	570	894	8	0	0	792187	684	0	correct_rejection	NA	0
1	Triplet	85	571	895	9	0	0	792904	683	0	correct_rejection	NA	0
1	Triplet	86	572	896	0	1	2	793621	683	1	hit	289	0
1	Triplet	87	573	897	9	0	0	794337	684	0	correct_rejection	NA	0
1	Triplet	88	574	898	8	0	0	795054	683	0	correct_rejection	NA	0
1	Triplet	89	575	899	0	1	1	795771	683	1	hit	300	0
1	Triplet	90	576	900	7	0	0	796487	684	0	correct_rejection	NA	0
1	Triplet	91	577	901	4	0	0	797204	683	0	correct_rejection	NA	0
1	Triplet	92	578	902	5	0	0	797921	683	0	correct_rejection	NA	0
1	Triplet	93	579	903	6	0	0	798637	684	0	correct_rejection	NA	0
1	Triplet	94	580	904	9	0	0	799354	683	0	correct_rejection	NA	0
1	Triplet	95	581	905	8	0	0	800071	683	0	correct_rejection	NA	0
1	Triplet	96	582	906	7	0	0	800787	684	0	correct_rejection	NA	0
1	Triplet	97	583	907	9	0	0	801504	683	0	correct_rejection	NA	0
1	Triplet	98	584	908	8	0	0	802221	683	0	correct_rejection	NA	0
1	Triplet	99	585	909	0	1	1	802937	684	1	hit	288	0
1	Triplet	100	586	910	7	0	0	803654	683	0	correct_rejection	NA	0
1	Triplet	101	587	911	6	0	0	804371	683	0	correct_rejection	NA	0
1	Triplet	102	588	912	5	0	0	805087	684	0	correct_rejection	NA	0
1	Triplet	103	589	913	4	0	0	805804	683	0	correct_rejection	NA	0
1	Triplet	104	590	914	9	0	0	806521	683	0	correct_rejection	NA	0
1	Triplet	105	591	915	8	0	0	807237	684	0	correct_rejection	NA	0
1	Triplet	106	592	916	7	0	0	807954	683	0	correct_rejection	NA	0
1	Triplet	107	593	917	7	0	0	808671	683	0	correct_rejection	NA	0
1	Triplet	108	594	918	8	0	0	809387	684	0	correct_rejection	NA	0
1	Triplet	109	595	919	9	0	0	810104	683	0	correct_rejection	NA	0
1	Triplet	110	596	920	7	0	0	810821	683	0	correct_rejection	NA	0
1	Triplet	111	597	921	8	0	0	811537	684	0	correct_rejection	NA	0
1	Triplet	112	598	922	9	0	0	812254	683	0	correct_rejection	NA	0
1	Triplet	113	599	923	6	0	0	812970	684	0	correct_rejection	NA	0
1	Triplet	114	600	924	5	0	0	813687	683	0	correct_rejection	NA	0
1	Triplet	115	601	925	4	0	0	814404	683	0	correct_rejection	NA	0
1	Triplet	116	602	926	0	1	2	815120	684	1	hit	317	0
1	Triplet	117	603	927	9	0	0	815837	683	0	correct_rejection	NA	0
1	Triplet	118	604	928	8	0	0	816554	683	0	correct_rejection	NA	0
1	Triplet	119	605	929	7	0	0	817270	684	0	correct_rejection	NA	0
1	Triplet	120	606	930	6	0	0	817987	683	0	correct_rejection	NA	0
1	Triplet	121	607	931	5	0	0	818704	683	0	correct_rejection	NA	0
1	Triplet	122	608	932	4	0	0	819420	684	0	correct_rejection	NA	0
1	Triplet	123	609	933	7	0	0	820137	683	0	correct_rejection	NA	0
1	Triplet	124	610	934	8	0	0	820854	683	0	correct_rejection	NA	0
1	Triplet	125	611	935	9	0	0	821570	684	0	correct_rejection	NA	0
1	Triplet	126	612	936	7	0	0	822287	683	0	correct_rejection	NA	0
1	Triplet	127	613	937	8	0	0	823004	683	0	correct_rejection	NA	0
1	Triplet	128	614	938	9	0	0	823720	684	0	correct_rejection	NA	0
1	Triplet	129	615	939	4	0	0	824437	683	0	correct_rejection	NA	0
1	Triplet	130	616	940	5	0	0	825154	683	0	correct_rejection	NA	0
1	Triplet	131	617	941	6	0	0	825870	684	0	correct_rejection	NA	0
1	Triplet	132	618	942	6	0	0	826587	683	0	correct_rejection	NA	0
1	Triplet	133	619	943	5	0	0	827304	683	0	correct_rejection	NA	0
1	Triplet	134	620	944	4	0	0	828020	684	0	correct_rejection	NA	0
1	Triplet	135	621	945	4	0	0	828737	683	0	correct_rejection	NA	0
1	Triplet	136	622	946	5	0	0	829454	683	0	correct_rejection	NA	0
1	Triplet	137	623	947	6	0	0	830170	684	0	correct_rejection	NA	0
1	Triplet	138	624	948	7	0	0	830887	683	0	correct_rejection	NA	0
1	Triplet	139	625	949	8	0	0	831604	683	0	correct_rejection	NA	0
1	Triplet	140	626	950	9	0	0	832320	684	0	correct_rejection	NA	0
1	Triplet	141	627	951	9	0	0	833037	683	0	correct_rejection	NA	0
1	Triplet	142	628	952	8	0	0	833753	684	0	correct_rejection	NA	0
1	Triplet	143	629	953	7	0	0	834470	683	0	correct_rejection	NA	0
1	Triplet	144	630	954	0	1	2	835187	683	1	hit	465	0
1	Triplet	145	631	955	9	0	0	835903	684	0	correct_rejection	NA	0
1	Triplet	146	632	956	8	0	0	836620	683	0	correct_rejection	NA	0
1	Triplet	147	633	957	7	0	0	837337	683	0	correct_rejection	NA	0
1	Triplet	148	634	958	4	0	0	838053	684	0	correct_rejection	NA	0
1	Triplet	149	635	959	5	0	0	838770	683	0	correct_rejection	NA	0
1	Triplet	150	636	960	6	0	0	839487	683	0	correct_rejection	NA	0
1	Triplet	151	637	961	4	0	0	840203	684	0	correct_rejection	NA	0
1	Triplet	152	638	962	5	0	0	840920	683	0	correct_rejection	NA	0
1	Triplet	153	639	963	6	0	0	841637	683	0	correct_rejection	NA	0
1	Triplet	154	640	964	9	0	0	842353	684	0	correct_rejection	NA	0
1	Triplet	155	641	965	8	0	0	843070	683	0	correct_rejection	NA	0
1	Triplet	156	642	966	7	0	0	843787	683	0	correct_rejection	NA	0
1	Triplet	157	643	967	7	0	0	844503	684	0	correct_rejection	NA	0
1	Triplet	158	644	968	8	0	0	845220	683	0	correct_rejection	NA	0
1	Triplet	159	645	969	9	0	0	845937	683	0	correct_rejection	NA	0
1	Triplet	160	646	970	6	0	0	846653	684	0	correct_rejection	NA	0
1	Triplet	161	647	971	5	0	0	847370	683	0	correct_rejection	NA	0
1	Triplet	162	648	972	4	0	0	848087	683	0	correct_rejection	NA	0
1	Single	1	487	973	7	0	0	854870	683	0	correct_rejection	NA	6028
1	Single	2	488	974	4	0	0	855586	684	0	correct_rejection	NA	0
1	Single	3	489	975	5	0	0	856303	684	0	correct_rejection	NA	0
1	Single	4	490	976	0	1	1	857020	683	1	hit	426	0
1	Single	5	491	977	5	0	0	857736	684	0	correct_rejection	NA	0
1	Single	6	492	978	7	0	0	858453	683	0	correct_rejection	NA	0
1	Single	7	493	979	6	0	0	859170	683	0	correct_rejection	NA	0
1	Single	8	494	980	4	0	0	859886	684	0	correct_rejection	NA	0
1	Single	9	495	981	9	0	0	860603	683	0	correct_rejection	NA	0
1	Single	10	496	982	0	1	1	861320	683	1	hit	348	0
1	Single	11	497	983	5	0	0	862036	684	0	correct_rejection	NA	0
1	Single	12	498	984	9	0	0	862753	683	0	correct_rejection	NA	0
1	Single	13	499	985	0	1	1	863470	683	1	hit	479	0
1	Single	14	500	986	4	0	0	864186	684	0	correct_rejection	NA	0
1	Single	15	501	987	8	0	0	864903	683	0	correct_rejection	NA	0
1	Single	16	502	988	5	0	0	865620	683	0	correct_rejection	NA	0
1	Single	17	503	989	8	0	0	866336	684	0	correct_rejection	NA	0
1	Single	18	504	990	4	0	0	867053	683	0	correct_rejection	NA	0
1	Single	19	505	991	7	0	0	867770	683	0	correct_rejection	NA	0
1	Single	20	506	992	8	0	0	868486	684	0	correct_rejection	NA	0
1	Single	21	507	993	6	0	0	869203	683	0	correct_rejection	NA	0
1	Single	22	508	994	8	0	0	869920	683	0	correct_rejection	NA	0
1	Single	23	509	995	9	0	0	870636	684	0	correct_rejection	NA	0
1	Single	24	510	996	7	0	0	871353	683	0	correct_rejection	NA	0
1	Single	25	511	997	0	1	1	872070	683	1	hit	334	0
1	Single	26	512	998	5	0	0	872786	684	0	correct_rejection	NA	0
1	Single	27	513	999	6	0	0	873503	683	0	correct_rejection	NA	0
1	Single	28	514	1000	9	0	0	874220	683	0	correct_rejection	NA	0
1	Single	29	515	1001	6	0	0	874936	684	0	correct_rejection	NA	0
1	Single	30	516	1002	6	0	0	875653	683	0	correct_rejection	NA	0
1	Single	31	517	1003	5	0	0	876369	684	0	correct_rejection	NA	0
1	Single	32	518	1004	4	0	0	877086	684	0	correct_rejection	NA	0
1	Single	33	519	1005	4	0	0	877803	683	0	correct_rejection	NA	0
1	Single	34	520	1006	0	1	1	878519	684	1	hit	360	0
1	Single	35	521	1007	6	0	0	879236	683	0	correct_rejection	NA	0
1	Single	36	522	1008	7	0	0	879953	683	0	correct_rejection	NA	0
1	Single	37	523	1009	7	0	0	880669	684	0	correct_rejection	NA	0
1	Single	38	524	1010	9	0	0	881386	683	0	correct_rejection	NA	0
1	Single	39	525	1011	9	0	0	882103	683	0	correct_rejection	NA	0
1	Single	40	526	1012	8	0	0	882819	684	0	correct_rejection	NA	0
1	Single	41	527	1013	8	0	0	883536	683	0	correct_rejection	NA	0
1	Single	42	528	1014	5	0	0	884253	683	0	correct_rejection	NA	0
1	Single	43	529	1015	9	0	0	884969	684	0	correct_rejection	NA	0
1	Single	44	530	1016	9	0	0	885686	683	0	correct_rejection	NA	0
1	Single	45	531	1017	7	0	0	886403	683	0	correct_rejection	NA	0
1	Single	46	532	1018	0	1	1	887119	684	1	hit	343	0
1	Single	47	533	1019	9	0	0	887836	683	0	correct_rejection	NA	0
1	Single	48	534	1020	5	0	0	888553	683	0	correct_rejection	NA	0
1	Single	49	535	1021	5	0	0	889269	684	0	correct_rejection	NA	0
1	Single	50	536	1022	0	1	1	889986	683	1	hit	640	0
1	Single	51	537	1023	8	0	0	890703	683	0	correct_rejection	NA	0
1	Single	52	538	1024	7	0	0	891419	684	0	correct_rejection	NA	0
1	Single	53	539	1025	5	0	0	892136	683	0	correct_rejection	NA	0
1	Single	54	540	1026	4	0	0	892853	683	0	correct_rejection	NA	0
1	Single	55	541	1027	5	0	0	893569	684	0	correct_rejection	NA	0
1	Single	56	542	1028	7	0	0	894286	683	0	correct_rejection	NA	0
1	Single	57	543	1029	7	0	0	895003	683	0	correct_rejection	NA	0
1	Single	58	544	1030	4	0	0	895719	684	0	correct_rejection	NA	0
1	Single	59	545	1031	9	0	0	896436	683	0	correct_rejection	NA	0
1	Single	60	546	1032	6	0	0	897153	683	0	correct_rejection	NA	0
1	Single	61	547	1033	7	0	0	897869	684	0	correct_rejection	NA	0
1	Single	62	548	1034	8	0	0	898586	683	0	correct_rejection	NA	0
1	Single	63	549	1035	4	0	0	899302	684	0	correct_rejection	NA	0
1	Single	64	550	1036	6	0	0	900019	684	0	correct_rejection	NA	0
1	Single	65	551	1037	5	0	0	900736	683	0	correct_rejection	NA	0
1	Single	66	552	1038	6	0	0	901452	684	0	correct_rejection	NA	0
1	Single	67	553	1039	6	0	0	902169	683	0	correct_rejection	NA	0
1	Single	68	554	1040	9	0	0	902886	683	0	correct_rejection	NA	0
1	Single	69	555	1041	8	0	0	903602	684	0	correct_rejection	NA	0
1	Single	70	556	1042	9	0	0	904319	683	0	correct_rejection	NA	0
1	Single	71	557	1043	4	0	0	905036	683	0	correct_rejection	NA	0
1	Single	72	558	1044	4	0	0	905752	684	0	correct_rejection	NA	0
1	Single	73	559	1045	8	0	0	906469	683	0	correct_rejection	NA	0
1	Single	74	560	1046	6	0	0	907186	683	0	correct_rejection	NA	0
1	Single	75	561	1047	4	0	0	907902	684	0	correct_rejection	NA	0
1	Single	76	562	1048	7	0	0	908619	683	0	correct_rejection	NA	0
1	Single	77	563	1049	6	0	0	909336	683	0	correct_rejection	NA	0
1	Single	78	564	1050	8	0	0	910052	684	0	correct_rejection	NA	0
1	Single	79	565	1051	8	0	0	910769	683	0	correct_rejection	NA	0
1	Single	80	566	1052	4	0	0	911486	683	0	correct_rejection	NA	0
1	Single	81	567	1053	7	0	0	912202	684	0	correct_rejection	NA	0
1	Single	82	568	1054	5	0	0	912919	683	0	correct_rejection	NA	0
1	Single	83	569	1055	5	0	0	913636	683	0	correct_rejection	NA	0
1	Single	84	570	1056	4	0	0	914352	684	0	correct_rejection	NA	0
1	Single	85	571	1057	0	1	1	915069	683	1	hit	437	0
1	Single	86	572	1058	8	0	0	915786	683	0	correct_rejection	NA	0
1	Single	87	573	1059	9	0	0	916502	684	0	correct_rejection	NA	0
1	Single	88	574	1060	0	1	1	917219	683	1	hit	425	0
1	Single	89	575	1061	6	0	0	917936	683	0	correct_rejection	NA	0
1	Single	90	576	1062	9	0	0	918652	684	0	correct_rejection	NA	0
1	Single	91	577	1063	9	0	0	919369	683	0	correct_rejection	NA	0
1	Single	92	578	1064	5	0	0	920085	684	0	correct_rejection	NA	0
1	Single	93	579	1065	8	0	0	920802	684	0	correct_rejection	NA	0
1	Single	94	580	1066	5	0	0	921519	683	0	correct_rejection	NA	0
1	Single	95	581	1067	6	0	0	922235	684	0	correct_rejection	NA	0
1	Single	96	582	1068	7	0	0	922952	683	0	correct_rejection	NA	0
1	Single	97	583	1069	9	0	0	923669	683	0	correct_rejection	NA	0
1	Single	98	584	1070	4	0	0	924385	684	0	correct_rejection	NA	0
1	Single	99	585	1071	6	0	0	925102	683	0	correct_rejection	NA	0
1	Single	100	586	1072	8	0	0	925819	683	0	correct_rejection	NA	0
1	Single	101	587	1073	0	1	1	926535	684	1	hit	540	0
1	Single	102	588	1074	4	0	0	927252	683	0	correct_rejection	NA	0
1	Single	103	589	1075	5	0	0	927969	683	0	correct_rejection	NA	0
1	Single	104	590	1076	9	0	0	928685	684	0	correct_rejection	NA	0
1	Single	105	591	1077	8	0	0	929402	683	0	correct_rejection	NA	0
1	Single	106	592	1078	7	0	0	930119	683	0	correct_rejection	NA	0
1	Single	107	593	1079	0	1	1	930835	684	1	hit	404	0
1	Single	108	594	1080	6	0	0	931552	683	0	correct_rejection	NA	0
1	Single	109	595	1081	6	0	0	932269	683	0	correct_rejection	NA	0
1	Single	110	596	1082	4	0	0	932985	684	0	correct_rejection	NA	0
1	Single	111	597	1083	0	1	1	933702	683	1	hit	310	0
1	Single	112	598	1084	4	0	0	934419	683	0	correct_rejection	NA	0
1	Single	113	599	1085	9	0	0	935135	684	0	correct_rejection	NA	0
1	Single	114	600	1086	7	0	0	935852	683	0	correct_rejection	NA	0
1	Single	115	601	1087	7	0	0	936569	683	0	correct_rejection	NA	0
1	Single	116	602	1088	0	1	1	937285	684	1	hit	323	0
1	Single	117	603	1089	8	0	0	938002	683	0	correct_rejection	NA	0
1	Single	118	604	1090	8	0	0	938719	683	0	correct_rejection	NA	0
1	Single	119	605	1091	6	0	0	939435	684	0	correct_rejection	NA	0
1	Single	120	606	1092	5	0	0	940152	683	0	correct_rejection	NA	0
1	Single	121	607	1093	7	0	0	940869	683	0	correct_rejection	NA	0
1	Single	122	608	1094	0	1	1	941585	684	1	hit	302	0
1	Single	123	609	1095	7	0	0	942302	683	0	correct_rejection	NA	0
1	Single	124	610	1096	8	0	0	943018	684	0	correct_rejection	NA	0
1	Single	125	611	1097	5	0	0	943735	684	0	correct_rejection	NA	0
1	Single	126	612	1098	0	1	1	944452	683	1	hit	340	0
1	Single	127	613	1099	7	0	0	945168	684	0	correct_rejection	NA	0
1	Single	128	614	1100	6	0	0	945885	683	0	correct_rejection	NA	0
1	Single	129	615	1101	4	0	0	946602	683	0	correct_rejection	NA	0
1	Single	130	616	1102	5	0	0	947318	684	0	correct_rejection	NA	0
1	Single	131	617	1103	5	0	0	948035	683	0	correct_rejection	NA	0
1	Single	132	618	1104	6	0	0	948752	683	0	correct_rejection	NA	0
1	Single	133	619	1105	8	0	0	949468	684	0	correct_rejection	NA	0
1	Single	134	620	1106	0	1	1	950185	683	1	hit	281	0
1	Single	135	621	1107	6	0	0	950902	683	0	correct_rejection	NA	0
1	Single	136	622	1108	9	0	0	951618	684	0	correct_rejection	NA	0
1	Single	137	623	1109	4	0	0	952335	683	0	correct_rejection	NA	0
1	Single	138	624	1110	8	0	0	953052	683	0	correct_rejection	NA	0
1	Single	139	625	1111	7	0	0	953768	684	0	correct_rejection	NA	0
1	Single	140	626	1112	0	1	1	954485	683	1	hit	389	0
1	Single	141	627	1113	4	0	0	955202	683	0	correct_rejection	NA	0
1	Single	142	628	1114	6	0	0	955918	684	0	correct_rejection	NA	0
1	Single	143	629	1115	6	0	0	956635	683	0	correct_rejection	NA	0
1	Single	144	630	1116	7	0	0	957352	683	0	correct_rejection	NA	0
1	Single	145	631	1117	5	0	0	958068	684	0	correct_rejection	NA	0
1	Single	146	632	1118	8	0	0	958785	683	0	correct_rejection	NA	0
1	Single	147	633	1119	9	0	0	959502	683	0	correct_rejection	NA	0
1	Single	148	634	1120	8	0	0	960218	684	0	correct_rejection	NA	0
1	Single	149	635	1121	8	0	0	960935	683	0	correct_rejection	NA	0
1	Single	150	636	1122	4	0	0	961652	683	0	correct_rejection	NA	0
1	Single	151	637	1123	9	0	0	962368	684	0	correct_rejection	NA	0
1	Single	152	638	1124	5	0	0	963085	683	0	correct_rejection	NA	0
1	Single	153	639	1125	4	0	0	963801	684	0	correct_rejection	NA	0
1	Single	154	640	1126	4	0	0	964518	684	0	correct_rejection	NA	0
1	Single	155	641	1127	7	0	0	965235	683	0	correct_rejection	NA	0
1	Single	156	642	1128	9	0	0	965951	684	0	correct_rejection	NA	0
1	Single	157	643	1129	9	0	0	966668	683	0	correct_rejection	NA	0
1	Single	158	644	1130	6	0	0	967385	683	0	correct_rejection	NA	0
1	Single	159	645	1131	5	0	0	968101	684	0	correct_rejection	NA	0
1	Single	160	646	1132	0	1	1	968818	683	1	hit	354	0
1	Single	161	647	1133	9	0	0	969535	683	0	correct_rejection	NA	0
1	Single	162	648	1134	7	0	0	970251	684	0	correct_rejection	NA	0
1	Correct	1	1	1135	4	0	0	979051	684	0	correct_rejection	NA	8042
1	Correct	2	2	1136	5	0	0	979768	683	0	correct_rejection	NA	0
1	Correct	3	3	1137	6	0	0	980485	683	0	correct_rejection	NA	0
1	Correct	4	4	1138	0	1	2	981201	684	1	hit	480	0
1	Correct	5	5	1139	4	0	0	981918	683	0	correct_rejection	NA	0
1	Correct	6	6	1140	5	0	0	982635	683	0	correct_rejection	NA	0
1	Correct	7	7	1141	6	0	0	983351	684	0	correct_rejection	NA	0
1	Correct	8	8	1142	4	0	0	984068	683	0	correct_rejection	NA	0
1	Correct	9	9	1143	5	0	0	984785	683	0	correct_rejection	NA	0
1	Correct	10	10	1144	6	0	0	985501	684	0	correct_rejection	NA	0
1	Correct	11	11	1145	0	1	3	986218	683	1	hit	298	0
1	Correct	12	12	1146	6	0	0	986934	684	0	correct_rejection	NA	0
1	Correct	13	13	1147	5	0	0	987651	683	0	correct_rejection	NA	0
1	Correct	14	14	1148	4	0	0	988368	683	0	correct_rejection	NA	0
1	Correct	15	15	1149	6	0	0	989084	684	0	correct_rejection	NA	0
1	Correct	16	16	1150	0	1	1	989801	683	1	hit	534	0
1	Correct	17	17	1151	5	0	0	990518	683	0	correct_rejection	NA	0
1	Correct	18	18	1152	4	0	0	991234	684	0	correct_rejection	NA	0
1	Correct	19	19	1153	6	0	0	991951	683	0	correct_rejection	NA	0
1	Correct	20	20	1154	5	0	0	992668	683	0	correct_rejection	NA	0
1	Correct	21	21	1155	4	0	0	993384	684	0	correct_rejection	NA	0
1	Correct	22	22	1156	9	0	0	994101	683	0	correct_rejection	NA	0
1	Correct	23	23	1157	8	0	0	994818	683	0	correct_rejection	NA	0
1	Correct	24	24	1158	7	0	0	995534	684	0	correct_rejection	NA	0
1	Correct	25	25	1159	9	0	0	996251	683	0	correct_rejection	NA	0
1	Correct	26	26	1160	8	0	0	996968	683	0	correct_rejection	NA	0
1	Correct	27	27	1161	7	0	0	997684	684	0	correct_rejection	NA	0
1	Correct	28	28	1162	0	1	2	998401	683	1	hit	350	0
1	Correct	29	29	1163	9	0	0	999118	683	0	correct_rejection	NA	0
1	Correct	30	30	1164	8	0	0	999834	684	0	correct_rejection	NA	0
1	Correct	31	31	1165	7	0	0	1000551	683	0	correct_rejection	NA	0
1	Correct	32	32	1166	7	0	0	1001268	683	0	correct_rejection	NA	0
1	Correct	33	33	1167	8	0	0	1001984	684	0	correct_rejection	NA	0
1	Correct	34	34	1168	9	0	0	1002701	683	0	correct_rejection	NA	0
1	Correct	35	35	1169	7	0	0	1003418	683	0	correct_rejection	NA	0
1	Correct	36	36	1170	8	0	0	1004134	684	0	correct_rejection	NA	0
1	Correct	37	37	1171	9	0	0	1004851	683	0	correct_rejection	NA	0
1	Correct	38	38	1172	7	0	0	1005568	683	0	correct_rejection	NA	0
1	Correct	39	39	1173	8	0	0	1006284	684	0	correct_rejection	NA	0
1	Correct	40	40	1174	9	0	0	1007001	683	0	correct_rejection	NA	0
1	Correct	41	41	1175	0	1	4	1007717	684	1	hit	560	0
1	Correct	42	42	1176	4	0	0	1008434	684	0	correct_rejection	NA	0
1	Correct	43	43	1177	5	0	0	1009151	683	0	correct_rejection	NA	0
1	Correct	44	44	1178	0	1	1	1009867	684	1	hit	606	0
1	Correct	45	45	1179	6	0	0	1010584	683	0	correct_rejection	NA	0
1	Correct	46	46	1180	4	0	0	1011301	683	0	correct_rejection	NA	0
1	Correct	47	47	1181	5	0	0	1012017	684	0	correct_rejection	NA	0
1	Correct	48	48	1182	6	0	0	1012734	683	0	correct_rejection	NA	0
1	Correct	49	49	1183	4	0	0	1013451	683	0	correct_rejection	NA	0
1	Correct	50	50	1184	5	0	0	1014167	684	0	correct_rejection	NA	0
1	Correct	51	51	1185	6	0	0	1014884	683	0	correct_rejection	NA	0
1	Correct	52	52	1186	6	0	0	1015601	683	0	correct_rejection	NA	0
1	Correct	53	53	1187	5	0	0	1016317	684	0	correct_rejection	NA	0
1	Correct	54	54	1188	4	0	0	1017034	683	0	correct_rejection	NA	0
1	Correct	55	55	1189	6	0	0	1017751	683	0	correct_rejection	NA	0
1	Correct	56	56	1190	5	0	0	1018467	684	0	correct_rejection	NA	0
1	Correct	57	57	1191	4	0	0	1019184	683	0	correct_rejection	NA	0
1	Correct	58	58	1192	6	0	0	1019901	683	0	correct_rejection	NA	0
1	Correct	59	59	1193	5	0	0	1020617	684	0	correct_rejection	NA	0
1	Correct	60	60	1194	4	0	0	1021334	683	0	correct_rejection	NA	0
1	Correct	61	61	1195	9	0	0	1022051	683	0	correct_rejection	NA	0
1	Correct	62	62	1196	8	0	0	1022767	684	0	correct_rejection	NA	0
1	Correct	63	63	1197	7	0	0	1023484	683	0	correct_rejection	NA	0
1	Correct	64	64	1198	9	0	0	1024201	683	0	correct_rejection	NA	0
1	Correct	65	65	1199	8	0	0	1024917	684	0	correct_rejection	NA	0
1	Correct	66	66	1200	7	0	0	1025634	683	0	correct_rejection	NA	0
1	Correct	67	67	1201	9	0	0	1026351	683	0	correct_rejection	NA	0
1	Correct	68	68	1202	8	0	0	1027067	684	0	correct_rejection	NA	0
1	Correct	69	69	1203	7	0	0	1027784	683	0	correct_rejection	NA	0
1	Correct	70	70	1204	7	0	0	1028501	683	0	correct_rejection	NA	0
1	Correct	71	71	1205	8	0	0	1029217	684	0	correct_rejection	NA	0
1	Correct	72	72	1206	9	0	0	1029934	683	0	correct_rejection	NA	0
1	Correct	73	73	1207	7	0	0	1030650	684	0	correct_rejection	NA	0
1	Correct	74	74	1208	8	0	0	1031367	684	0	correct_rejection	NA	0
1	Correct	75	75	1209	9	0	0	1032084	683	0	correct_rejection	NA	0
1	Correct	76	76	1210	7	0	0	1032800	684	0	correct_rejection	NA	0
1	Correct	77	77	1211	8	0	0	1033517	683	0	correct_rejection	NA	0
1	Correct	78	78	1212	9	0	0	1034234	683	0	correct_rejection	NA	0
1	Correct	79	79	1213	4	0	0	1034950	684	0	correct_rejection	NA	0
1	Correct	80	80	1214	0	1	1	1035667	683	1	hit	387	0
1	Correct	81	81	1215	5	0	0	1036384	683	0	correct_rejection	NA	0
1	Correct	82	82	1216	6	0	0	1037100	684	0	correct_rejection	NA	0
1	Correct	83	83	1217	4	0	0	1037817	683	0	correct_rejection	NA	0
1	Correct	84	84	1218	5	0	0	1038534	683	0	correct_rejection	NA	0
1	Correct	85	85	1219	6	0	0	1039250	684	0	correct_rejection	NA	0
1	Correct	86	86	1220	4	0	0	1039967	683	0	correct_rejection	NA	0
1	Correct	87	87	1221	0	1	1	1040684	683	1	hit	428	0
1	Correct	88	88	1222	5	0	0	1041400	684	0	correct_rejection	NA	0
1	Correct	89	89	1223	6	0	0	1042117	683	0	correct_rejection	NA	0
1	Correct	90	90	1224	6	0	0	1042834	683	0	correct_rejection	NA	0
1	Correct	91	91	1225	5	0	0	1043550	684	0	correct_rejection	NA	0
1	Correct	92	92	1226	0	1	1	1044267	683	1	hit	453	0
1	Correct	93	93	1227	4	0	0	1044984	683	0	correct_rejection	NA	0
1	Correct	94	94	1228	6	0	0	1045700	684	0	correct_rejection	NA	0
1	Correct	95	95	1229	5	0	0	1046417	683	0	correct_rejection	NA	0
1	Correct	96	96	1230	0	1	1	1047134	683	1	hit	392	0
1	Correct	97	97	1231	4	0	0	1047850	684	0	correct_rejection	NA	0
1	Correct	98	98	1232	6	0	0	1048567	683	0	correct_rejection	NA	0
1	Correct	99	99	1233	5	0	0	1049284	683	0	correct_rejection	NA	0
1	Correct	100	100	1234	4	0	0	1050000	684	0	correct_rejection	NA	0
1	Correct	101	101	1235	9	0	0	1050717	683	0	correct_rejection	NA	0
1	Correct	102	102	1236	0	1	1	1051433	684	1	hit	436	0
1	Correct	103	103	1237	8	0	0	1052150	684	0	correct_rejection	NA	0
1	Correct	104	104	1238	7	0	0	1052867	683	0	correct_rejection	NA	0
1	Correct	105	105	1239	9	0	0	1053583	684	0	correct_rejection	NA	0
1	Correct	106	106	1240	8	0	0	1054300	683	0	correct_rejection	NA	0
1	Correct	107	107	1241	7	0	0	1055017	683	0	correct_rejection	NA	0
1	Correct	108	108	1242	9	0	0	1055733	684	0	correct_rejection	NA	0
1	Correct	109	109	1243	8	0	0	1056450	683	0	correct_rejection	NA	0
1	Correct	110	110	1244	0	1	1	1057167	683	1	hit	359	0
1	Correct	111	111	1245	7	0	0	1057883	684	0	correct_rejection	NA	0
1	Correct	112	112	1246	7	0	0	1058600	683	0	correct_rejection	NA	0
1	Correct	113	113	1247	8	0	0	1059317	683	0	correct_rejection	NA	0
1	Correct	114	114	1248	9	0	0	1060033	684	0	correct_rejection	NA	0
1	Correct	115	115	1249	7	0	0	1060750	683	0	correct_rejection	NA	0
1	Correct	116	116	1250	8	0	0	1061467	683	0	correct_rejection	NA	0
1	Correct	117	117	1251	9	0	0	1062183	684	0	correct_rejection	NA	0
1	Correct	118	118	1252	7	0	0	1062900	683	0	correct_rejection	NA	0
1	Correct	119	119	1253	8	0	0	1063617	683	0	correct_rejection	NA	0
1	Correct	120	120	1254	0	1	1	1064333	684	1	hit	347	0
1	Correct	121	121	1255	9	0	0	1065050	683	0	correct_rejection	NA	0
1	Correct	122	122	1256	4	0	0	1065767	683	0	correct_rejection	NA	0
1	Correct	123	123	1257	5	0	0	1066483	684	0	correct_rejection	NA	0
1	Correct	124	124	1258	6	0	0	1067200	683	0	correct_rejection	NA	0
1	Correct	125	125	1259	4	0	0	1067917	683	0	correct_rejection	NA	0
1	Correct	126	126	1260	5	0	0	1068633	684	0	correct_rejection	NA	0
1	Correct	127	127	1261	6	0	0	1069350	683	0	correct_rejection	NA	0
1	Correct	128	128	1262	4	0	0	1070067	683	0	correct_rejection	NA	0
1	Correct	129	129	1263	5	0	0	1070783	684	0	correct_rejection	NA	0
1	Correct	130	130	1264	0	1	1	1071500	683	1	hit	319	0
1	Correct	131	131	1265	6	0	0	1072217	683	0	correct_rejection	NA	0
1	Correct	132	132	1266	6	0	0	1072933	684	0	correct_rejection	NA	0
1	Correct	133	133	1267	0	1	1	1073650	683	1	hit	374	0
1	Correct	134	134	1268	5	0	0	1074366	684	0	correct_rejection	NA	0
1	Correct	135	135	1269	4	0	0	1075083	684	0	correct_rejection	NA	0
1	Correct	136	136	1270	6	0	0	1075800	683	0	correct_rejection	NA	0
1	Correct	137	137	1271	5	0	0	1076516	684	0	correct_rejection	NA	0
1	Correct	138	138	1272	4	0	0	1077233	683	0	correct_rejection	NA	0
1	Correct	139	139	1273	0	1	2	1077950	683	1	hit	300	0
1	Correct	140	140	1274	6	0	0	1078666	684	0	correct_rejection	NA	0
1	Correct	141	141	1275	5	0	0	1079383	683	0	correct_rejection	NA	0
1	Correct	142	142	1276	4	0	0	1080100	683	0	correct_rejection	NA	0
1	Correct	143	143	1277	9	0	0	1080816	684	0	correct_rejection	NA	0
1	Correct	144	144	1278	8	0	0	1081533	683	0	correct_rejection	NA	0
1	Correct	145	145	1279	7	0	0	1082250	683	0	correct_rejection	NA	0
1	Correct	146	146	1280	9	0	0	1082966	684	0	correct_rejection	NA	0
1	Correct	147	147	1281	8	0	0	1083683	683	0	correct_rejection	NA	0
1	Correct	148	148	1282	7	0	0	1084400	683	0	correct_rejection	NA	0
1	Correct	149	149	1283	9	0	0	1085116	684	0	correct_rejection	NA	0
1	Correct	150	150	1284	0	1	1	1085833	683	1	hit	330	0
1	Correct	151	151	1285	8	0	0	1086550	683	0	correct_rejection	NA	0
1	Correct	152	152	1286	7	0	0	1087266	684	0	correct_rejection	NA	0
1	Correct	153	153	1287	7	0	0	1087983	683	0	correct_rejection	NA	0
1	Correct	154	154	1288	8	0	0	1088700	683	0	correct_rejection	NA	0
1	Correct	155	155	1289	9	0	0	1089416	684	0	correct_rejection	NA	0
1	Correct	156	156	1290	0	1	2	1090133	683	1	hit	386	0
1	Correct	157	157	1291	7	0	0	1090850	683	0	correct_rejection	NA	0
1	Correct	158	158	1292	8	0	0	1091566	684	0	correct_rejection	NA	0
1	Correct	159	159	1293	9	0	0	1092283	683	0	correct_rejection	NA	0
1	Correct	160	160	1294	7	0	0	1093000	683	0	correct_rejection	NA	0
1	Correct	161	161	1295	8	0	0	1093716	684	0	correct_rejection	NA	0
1	Correct	162	162	1296	9	0	0	1094433	683	0	correct_rejection	NA	0
1	Single	1	325	1297	9	0	0	1102766	683	0	correct_rejection	NA	7570
1	Single	2	326	1298	5	0	0	1103483	683	0	correct_rejection	NA	0
1	Single	3	327	1299	7	0	0	1104199	684	0	correct_rejection	NA	0
1	Single	4	328	1300	6	0	0	1104916	683	0	correct_rejection	NA	0
1	Single	5	329	1301	0	1	1	1105633	683	1	hit	332	0
1	Single	6	330	1302	9	0	0	1106349	684	0	correct_rejection	NA	0
1	Single	7	331	1303	4	0	0	1107066	683	0	correct_rejection	NA	0
1	Single	8	332	1304	4	0	0	1107783	683	0	correct_rejection	NA	0
1	Single	9	333	1305	7	0	0	1108499	684	0	correct_rejection	NA	0
1	Single	10	334	1306	8	0	0	1109216	683	0	correct_rejection	NA	0
1	Single	11	335	1307	5	0	0	1109933	683	0	correct_rejection	NA	0
1	Single	12	336	1308	9	0	0	1110649	684	0	correct_rejection	NA	0
1	Single	13	337	1309	0	1	1	1111366	683	1	hit	413	0
1	Single	14	338	1310	8	0	0	1112083	683	0	correct_rejection	NA	0
1	Single	15	339	1311	6	0	0	1112799	684	0	correct_rejection	NA	0
1	Single	16	340	1312	7	0	0	1113516	683	0	correct_rejection	NA	0
1	Single	17	341	1313	4	0	0	1114233	683	0	correct_rejection	NA	0
1	Single	18	342	1314	0	1	1	1114949	684	1	hit	430	0
1	Single	19	343	1315	5	0	0	1115666	683	0	correct_rejection	NA	0
1	Single	20	344	1316	8	0	0	1116383	683	0	correct_rejection	NA	0
1	Single	21	345	1317	8	0	0	1117099	684	0	correct_rejection	NA	0
1	Single	22	346	1318	9	0	0	1117816	683	0	correct_rejection	NA	0
1	Single	23	347	1319	7	0	0	1118532	684	0	correct_rejection	NA	0
1	Single	24	348	1320	5	0	0	1119249	683	0	correct_rejection	NA	0
1	Single	25	349	1321	5	0	0	1119966	683	0	correct_rejection	NA	0
1	Single	26	350	1322	4	0	0	1120682	684	0	correct_rejection	NA	0
1	Single	27	351	1323	9	0	0	1121399	683	0	correct_rejection	NA	0
1	Single	28	352	1324	9	0	0	1122116	683	0	correct_rejection	NA	0
1	Single	29	353	1325	6	0	0	1122832	684	0	correct_rejection	NA	0
1	Single	30	354	1326	8	0	0	1123549	683	0	correct_rejection	NA	0
1	Single	31	355	1327	4	0	0	1124266	683	0	correct_rejection	NA	0
1	Single	32	356	1328	6	0	0	1124982	684	0	correct_rejection	NA	0
1	Single	33	357	1329	0	1	1	1125699	683	1	hit	388	0
1	Single	34	358	1330	6	0	0	1126416	683	0	correct_rejection	NA	0
1	Single	35	359	1331	5	0	0	1127132	684	0	correct_rejection	NA	0
1	Single	36	360	1332	6	0	0	1127849	683	0	correct_rejection	NA	0
1	Single	37	361	1333	4	0	0	1128566	683	0	correct_rejection	NA	0
1	Single	38	362	1334	8	0	0	1129282	684	0	correct_rejection	NA	0
1	Single	39	363	1335	7	0	0	1129999	683	0	correct_rejection	NA	0
1	Single	40	364	1336	7	0	0	1130716	683	0	correct_rejection	NA	0
1	Single	41	365	1337	5	0	0	1131432	684	0	correct_rejection	NA	0
1	Single	42	366	1338	8	0	0	1132149	683	0	correct_rejection	NA	0
1	Single	43	367	1339	4	0	0	1132866	683	0	correct_rejection	NA	0
1	Single	44	368	1340	5	0	0	1133582	684	0	correct_rejection	NA	0
1	Single	45	369	1341	6	0	0	1134299	683	0	correct_rejection	NA	0
1	Single	46	370	1342	8	0	0	1135016	683	0	correct_rejection	NA	0
1	Single	47	371	1343	6	0	0	1135732	684	0	correct_rejection	NA	0
1	Single	48	372	1344	6	0	0	1136449	683	0	correct_rejection	NA	0
1	Single	49	373	1345	0	1	1	1137166	683	1	hit	350	0
1	Single	50	374	1346	4	0	0	1137882	684	0	correct_rejection	NA	0
1	Single	51	375	1347	7	0	0	1138599	683	0	correct_rejection	NA	0
1	Single	52	376	1348	9	0	0	1139315	684	0	correct_rejection	NA	0
1	Single	53	377	1349	0	1	1	1140032	684	0	miss	NA	0
1	Single	54	378	1350	7	0	0	1140749	683	0	correct_rejection	NA	0
1	Single	55	379	1351	7	0	0	1141465	684	0	correct_rejection	NA	0
1	Single	56	380	1352	8	0	0	1142182	683	0	correct_rejection	NA	0
1	Single	57	381	1353	0	1	1	1142899	683	0	miss	NA	0
1	Single	58	382	1354	7	0	0	1143615	684	0	correct_rejection	NA	0
1	Single	59	383	1355	4	0	0	1144332	683	0	correct_rejection	NA	0
1	Single	60	384	1356	0	1	1	1145049	683	1	hit	385	0
1	Single	61	385	1357	9	0	0	1145765	684	0	correct_rejection	NA	0
1	Single	62	386	1358	8	0	0	1146482	683	0	correct_rejection	NA	0
1	Single	63	387	1359	9	0	0	1147199	683	0	correct_rejection	NA	0
1	Single	64	388	1360	5	0	0	1147915	684	0	correct_rejection	NA	0
1	Single	65	389	1361	5	0	0	1148632	683	0	correct_rejection	NA	0
1	Single	66	390	1362	7	0	0	1149349	683	0	correct_rejection	NA	0
1	Single	67	391	1363	5	0	0	1150065	684	0	correct_rejection	NA	0
1	Single	68	392	1364	9	0	0	1150782	683	0	correct_rejection	NA	0
1	Single	69	393	1365	6	0	0	1151499	683	0	correct_rejection	NA	0
1	Single	70	394	1366	9	0	0	1152215	684	0	correct_rejection	NA	0
1	Single	71	395	1367	9	0	0	1152932	683	1	false_alarm	344	0
1	Single	72	396	1368	4	0	0	1153649	683	0	correct_rejection	NA	0
1	Single	73	397	1369	6	0	0	1154365	684	0	correct_rejection	NA	0
1	Single	74	398	1370	7	0	0	1155082	683	0	correct_rejection	NA	0
1	Single	75	399	1371	6	0	0	1155799	683	0	correct_rejection	NA	0
1	Single	76	400	1372	5	0	0	1156515	684	0	correct_rejection	NA	0
1	Single	77	401	1373	0	1	1	1157232	683	1	hit	421	0
1	Single	78	402	1374	4	0	0	1157949	683	0	correct_rejection	NA	0
1	Single	79	403	1375	4	0	0	1158665	684	0	correct_rejection	NA	0
1	Single	80	404	1376	8	0	0	1159382	683	0	correct_rejection	NA	0
1	Single	81	405	1377	8	0	0	1160099	683	0	correct_rejection	NA	0
1	Single	82	406	1378	0	1	1	1160815	684	1	hit	431	0
1	Single	83	407	1379	8	0	0	1161532	683	0	correct_rejection	NA	0
1	Single	84	408	1380	4	0	0	1162248	684	0	correct_rejection	NA	0
1	Single	85	409	1381	9	0	0	1162965	684	0	correct_rejection	NA	0
1	Single	86	410	1382	7	0	0	1163682	683	0	correct_rejection	NA	0
1	Single	87	411	1383	4	0	0	1164398	684	0	correct_rejection	NA	0
1	Single	88	412	1384	8	0	0	1165115	683	0	correct_rejection	NA	0
1	Single	89	413	1385	9	0	0	1165832	683	0	correct_rejection	NA	0
1	Single	90	414	1386	4	0	0	1166548	684	0	correct_rejection	NA	0
1	Single	91	415	1387	7	0	0	1167265	683	0	correct_rejection	NA	0
1	Single	92	416	1388	6	0	0	1167982	683	0	correct_rejection	NA	0
1	Single	93	417	1389	6	0	0	1168698	684	0	correct_rejection	NA	0
1	Single	94	418	1390	0	1	1	1169415	683	1	hit	357	0
1	Single	95	419	1391	8	0	0	1170132	683	0	correct_rejection	NA	0
1	Single	96	420	1392	8	0	0	1170848	684	0	correct_rejection	NA	0
1	Single	97	421	1393	5	0	0	1171565	683	0	correct_rejection	NA	0
1	Single	98	422	1394	5	0	0	1172282	683	0	correct_rejection	NA	0
1	Single	99	423	1395	6	0	0	1172998	684	0	correct_rejection	NA	0
1	Single	100	424	1396	0	1	1	1173715	683	1	hit	513	0
1	Single	101	425	1397	7	0	0	1174432	683	0	correct_rejection	NA	0
1	Single	102	426	1398	9	0	0	1175148	684	0	correct_rejection	NA	0
1	Single	103	427	1399	6	0	0	1175865	683	0	correct_rejection	NA	0
1	Single	104	428	1400	4	0	0	1176582	683	0	correct_rejection	NA	0
1	Single	105	429	1401	4	0	0	1177298	684	0	correct_rejection	NA	0
1	Single	106	430	1402	6	0	0	1178015	683	0	correct_rejection	NA	0
1	Single	107	431	1403	9	0	0	1178732	683	0	correct_rejection	NA	0
1	Single	108	432	1404	5	0	0	1179448	684	0	correct_rejection	NA	0
1	Single	109	433	1405	4	0	0	1180165	683	0	correct_rejection	NA	0
1	Single	110	434	1406	5	0	0	1180882	683	0	correct_rejection	NA	0
1	Single	111	435	1407	9	0	0	1181598	684	0	correct_rejection	NA	0
1	Single	112	436	1408	9	0	0	1182315	683	0	correct_rejection	NA	0
1	Single	113	437	1409	8	0	0	1183031	684	0	correct_rejection	NA	0
1	Single	114	438	1410	7	0	0	1183748	684	0	correct_rejection	NA	0
1	Single	115	439	1411	8	0	0	1184465	683	0	correct_rejection	NA	0
1	Single	116	440	1412	6	0	0	1185181	684	0	correct_rejection	NA	0
1	Single	117	441	1413	5	0	0	1185898	683	0	correct_rejection	NA	0
1	Single	118	442	1414	7	0	0	1186615	683	0	correct_rejection	NA	0
1	Single	119	443	1415	7	0	0	1187331	684	0	correct_rejection	NA	0
1	Single	120	444	1416	5	0	0	1188048	683	0	correct_rejection	NA	0
1	Single	121	445	1417	8	0	0	1188765	683	0	correct_rejection	NA	0
1	Single	122	446	1418	7	0	0	1189481	684	0	correct_rejection	NA	0
1	Single	123	447	1419	9	0	0	1190198	683	0	correct_rejection	NA	0
1	Single	124	448	1420	0	1	1	1190915	683	1	hit	431	0
1	Single	125	449	1421	9	0	0	1191631	684	0	correct_rejection	NA	0
1	Single	126	450	1422	6	0	0	1192348	683	0	correct_rejection	NA	0
1	Single	127	451	1423	0	1	1	1193065	683	0	miss	NA	0
1	Single	128	452	1424	5	0	0	1193781	684	1	false_alarm	303	0
1	Single	129	453	1425	5	0	0	1194498	683	0	correct_rejection	NA	0
1	Single	130	454	1426	9	0	0	1195215	683	0	correct_rejection	NA	0
1	Single	131	455	1427	4	0	0	1195931	684	0	correct_rejection	NA	0
1	Single	132	456	1428	9	0	0	1196648	683	0	correct_rejection	NA	0
1	Single	133	457	1429	5	0	0	1197365	683	0	correct_rejection	NA	0
1	Single	134	458	1430	7	0	0	1198081	684	0	correct_rejection	NA	0
1	Single	135	459	1431	4	0	0	1198798	683	0	correct_rejection	NA	0
1	Single	136	460	1432	4	0	0	1199515	683	0	correct_rejection	NA	0
1	Single	137	461	1433	5	0	0	1200231	684	0	correct_rejection	NA	0
1	Single	138	462	1434	8	0	0	1200948	683	0	correct_rejection	NA	0
1	Single	139	463	1435	8	0	0	1201665	683	0	correct_rejection	NA	0
1	Single	140	464	1436	0	1	1	1202381	684	1	hit	350	0
1	Single	141	465	1437	9	0	0	1203098	683	0	correct_rejection	NA	0
1	Single	142	466	1438	7	0	0	1203815	683	0	correct_rejection	NA	0
1	Single	143	467	1439	8	0	0	1204531	684	0	correct_rejection	NA	0
1	Single	144	468	1440	4	0	0	1205248	683	0	correct_rejection	NA	0
1	Single	145	469	1441	8	0	0	1205964	684	0	correct_rejection	NA	0
1	Single	146	470	1442	6	0	0	1206681	683	0	correct_rejection	NA	0
1	Single	147	471	1443	9	0	0	1207398	683	0	correct_rejection	NA	0
1	Single	148	472	1444	8	0	0	1208114	684	0	correct_rejection	NA	0
1	Single	149	473	1445	0	1	1	1208831	683	1	hit	416	0
1	Single	150	474	1446	5	0	0	1209548	683	0	correct_rejection	NA	0
1	Single	151	475	1447	4	0	0	1210264	684	0	correct_rejection	NA	0
1	Single	152	476	1448	0	1	1	1210981	683	0	miss	NA	0
1	Single	153	477	1449	7	0	0	1211698	683	0	correct_rejection	NA	0
1	Single	154	478	1450	5	0	0	1212414	684	0	correct_rejection	NA	0
1	Single	155	479	1451	0	1	1	1213131	683	1	hit	376	0
1	Single	156	480	1452	6	0	0	1213848	683	0	correct_rejection	NA	0
1	Single	157	481	1453	6	0	0	1214564	684	0	correct_rejection	NA	0
1	Single	158	482	1454	7	0	0	1215281	683	0	correct_rejection	NA	0
1	Single	159	483	1455	7	0	0	1215998	683	0	correct_rejection	NA	0
1	Single	160	484	1456	6	0	0	1216714	684	0	correct_rejection	NA	0
1	Single	161	485	1457	4	0	0	1217431	683	0	correct_rejection	NA	0
1	Single	162	486	1458	6	0	0	1218148	683	0	correct_rejection	NA	0
1	Triplet	1	649	1459	4	0	0	1228147	684	0	correct_rejection	NA	9233
1	Triplet	2	650	1460	5	0	0	1228864	683	0	correct_rejection	NA	0
1	Triplet	3	651	1461	6	0	0	1229581	683	0	correct_rejection	NA	0
1	Triplet	4	652	1462	6	0	0	1230297	684	0	correct_rejection	NA	0
1	Triplet	5	653	1463	5	0	0	1231014	683	0	correct_rejection	NA	0
1	Triplet	6	654	1464	4	0	0	1231731	683	0	correct_rejection	NA	0
1	Triplet	7	655	1465	4	0	0	1232447	684	0	correct_rejection	NA	0
1	Triplet	8	656	1466	5	0	0	1233164	683	0	correct_rejection	NA	0
1	Triplet	9	657	1467	6	0	0	1233881	683	0	correct_rejection	NA	0
1	Triplet	10	658	1468	9	0	0	1234597	684	0	correct_rejection	NA	0
1	Triplet	11	659	1469	0	1	1	1235314	683	1	hit	417	0
1	Triplet	12	660	1470	8	0	0	1236031	683	0	correct_rejection	NA	0
1	Triplet	13	661	1471	7	0	0	1236747	684	0	correct_rejection	NA	0
1	Triplet	14	662	1472	6	0	0	1237464	683	0	correct_rejection	NA	0
1	Triplet	15	663	1473	0	1	1	1238181	683	1	hit	334	0
1	Triplet	16	664	1474	5	0	0	1238897	684	0	correct_rejection	NA	0
1	Triplet	17	665	1475	4	0	0	1239614	683	0	correct_rejection	NA	0
1	Triplet	18	666	1476	6	0	0	1240331	683	0	correct_rejection	NA	0
1	Triplet	19	667	1477	5	0	0	1241047	684	0	correct_rejection	NA	0
1	Triplet	20	668	1478	4	0	0	1241764	683	0	correct_rejection	NA	0
1	Triplet	21	669	1479	7	0	0	1242481	683	0	correct_rejection	NA	0
1	Triplet	22	670	1480	8	0	0	1243197	684	0	correct_rejection	NA	0
1	Triplet	23	671	1481	9	0	0	1243914	683	0	correct_rejection	NA	0
1	Triplet	24	672	1482	6	0	0	1244631	683	0	correct_rejection	NA	0
1	Triplet	25	673	1483	0	1	1	1245347	684	0	miss	NA	0
1	Triplet	26	674	1484	5	0	0	1246064	683	1	false_alarm	210	0
1	Triplet	27	675	1485	4	0	0	1246781	683	0	correct_rejection	NA	0
1	Triplet	28	676	1486	9	0	0	1247497	684	0	correct_rejection	NA	0
1	Triplet	29	677	1487	8	0	0	1248214	683	0	correct_rejection	NA	0
1	Triplet	30	678	1488	7	0	0	1248930	684	0	correct_rejection	NA	0
1	Triplet	31	679	1489	7	0	0	1249647	684	0	correct_rejection	NA	0
1	Triplet	32	680	1490	8	0	0	1250364	683	0	correct_rejection	NA	0
1	Triplet	33	681	1491	9	0	0	1251080	684	0	correct_rejection	NA	0
1	Triplet	34	682	1492	4	0	0	1251797	683	0	correct_rejection	NA	0
1	Triplet	35	683	1493	5	0	0	1252514	683	0	correct_rejection	NA	0
1	Triplet	36	684	1494	6	0	0	1253230	684	0	correct_rejection	NA	0
1	Triplet	37	685	1495	4	0	0	1253947	683	0	correct_rejection	NA	0
1	Triplet	38	686	1496	5	0	0	1254664	683	0	correct_rejection	NA	0
1	Triplet	39	687	1497	0	1	1	1255380	684	1	hit	453	0
1	Triplet	40	688	1498	6	0	0	1256097	683	0	correct_rejection	NA	0
1	Triplet	41	689	1499	7	0	0	1256814	683	0	correct_rejection	NA	0
1	Triplet	42	690	1500	8	0	0	1257530	684	0	correct_rejection	NA	0
1	Triplet	43	691	1501	9	0	0	1258247	683	0	correct_rejection	NA	0
1	Triplet	44	692	1502	7	0	0	1258964	683	0	correct_rejection	NA	0
1	Triplet	45	693	1503	8	0	0	1259680	684	0	correct_rejection	NA	0
1	Triplet	46	694	1504	9	0	0	1260397	683	0	correct_rejection	NA	0
1	Triplet	47	695	1505	9	0	0	1261114	683	0	correct_rejection	NA	0
1	Triplet	48	696	1506	8	0	0	1261830	684	0	correct_rejection	NA	0
1	Triplet	49	697	1507	0	1	1	1262547	683	1	hit	439	0
1	Triplet	50	698	1508	7	0	0	1263264	683	0	correct_rejection	NA	0
1	Triplet	51	699	1509	9	0	0	1263980	684	0	correct_rejection	NA	0
1	Triplet	52	700	1510	8	0	0	1264697	683	0	correct_rejection	NA	0
1	Triplet	53	701	1511	7	0	0	1265414	683	0	correct_rejection	NA	0
1	Triplet	54	702	1512	7	0	0	1266130	684	0	correct_rejection	NA	0
1	Triplet	55	703	1513	0	1	1	1266847	683	1	hit	343	0
1	Triplet	56	704	1514	8	0	0	1267564	683	0	correct_rejection	NA	0
1	Triplet	57	705	1515	9	0	0	1268280	684	0	correct_rejection	NA	0
1	Triplet	58	706	1516	7	0	0	1268997	683	0	correct_rejection	NA	0
1	Triplet	59	707	1517	8	0	0	1269714	683	0	correct_rejection	NA	0
1	Triplet	60	708	1518	0	1	1	1270430	684	1	hit	385	0
1	Triplet	61	709	1519	9	0	0	1271147	683	0	correct_rejection	NA	0
1	Triplet	62	710	1520	6	0	0	1271863	684	0	correct_rejection	NA	0
1	Triplet	63	711	1521	5	0	0	1272580	683	0	correct_rejection	NA	0
1	Triplet	64	712	1522	4	0	0	1273297	683	0	correct_rejection	NA	0
1	Triplet	65	713	1523	6	0	0	1274013	684	0	correct_rejection	NA	0
1	Triplet	66	714	1524	5	0	0	1274730	683	0	correct_rejection	NA	0
1	Triplet	67	715	1525	4	0	0	1275447	683	0	correct_rejection	NA	0
1	Triplet	68	716	1526	0	1	2	1276163	684	1	hit	425	0
1	Triplet	69	717	1527	4	0	0	1276880	683	0	correct_rejection	NA	0
1	Triplet	70	718	1528	5	0	0	1277597	683	0	correct_rejection	NA	0
1	Triplet	71	719	1529	6	0	0	1278313	684	0	correct_rejection	NA	0
1	Triplet	72	720	1530	4	0	0	1279030	683	0	correct_rejection	NA	0
1	Triplet	73	721	1531	5	0	0	1279747	683	0	correct_rejection	NA	0
1	Triplet	74	722	1532	6	0	0	1280463	684	0	correct_rejection	NA	0
1	Triplet	75	723	1533	6	0	0	1281180	683	0	correct_rejection	NA	0
1	Triplet	76	724	1534	5	0	0	1281897	683	0	correct_rejection	NA	0
1	Triplet	77	725	1535	0	1	1	1282613	684	0	miss	NA	0
1	Triplet	78	726	1536	4	0	0	1283330	683	1	false_alarm	53	0
1	Triplet	79	727	1537	7	0	0	1284047	683	0	correct_rejection	NA	0
1	Triplet	80	728	1538	8	0	0	1284763	684	0	correct_rejection	NA	0
1	Triplet	81	729	1539	9	0	0	1285480	683	0	correct_rejection	NA	0
1	Triplet	82	730	1540	4	0	0	1286197	683	0	correct_rejection	NA	0
1	Triplet	83	731	1541	5	0	0	1286913	684	0	correct_rejection	NA	0
1	Triplet	84	732	1542	6	0	0	1287630	683	0	correct_rejection	NA	0
1	Triplet	85	733	1543	9	0	0	1288347	683	0	correct_rejection	NA	0
1	Triplet	86	734	1544	8	0	0	1289063	684	0	correct_rejection	NA	0
1	Triplet	87	735	1545	7	0	0	1289780	683	0	correct_rejection	NA	0
1	Triplet	88	736	1546	9	0	0	1290497	683	0	correct_rejection	NA	0
1	Triplet	89	737	1547	8	0	0	1291213	684	0	correct_rejection	NA	0
1	Triplet	90	738	1548	7	0	0	1291930	683	0	correct_rejection	NA	0
1	Triplet	91	739	1549	7	0	0	1292646	684	0	correct_rejection	NA	0
1	Triplet	92	740	1550	8	0	0	1293363	684	0	correct_rejection	NA	0
1	Triplet	93	741	1551	9	0	0	1294080	683	0	correct_rejection	NA	0
1	Triplet	94	742	1552	9	0	0	1294796	684	0	correct_rejection	NA	0
1	Triplet	95	743	1553	8	0	0	1295513	683	0	correct_rejection	NA	0
1	Triplet	96	744	1554	7	0	0	1296230	683	0	correct_rejection	NA	0
1	Triplet	97	745	1555	6	0	0	1296946	684	0	correct_rejection	NA	0
1	Triplet	98	746	1556	5	0	0	1297663	683	0	correct_rejection	NA	0
1	Triplet	99	747	1557	4	0	0	1298380	683	0	correct_rejection	NA	0
1	Triplet	100	748	1558	9	0	0	1299096	684	0	correct_rejection	NA	0
1	Triplet	101	749	1559	8	0	0	1299813	683	0	correct_rejection	NA	0
1	Triplet	102	750	1560	0	1	1	1300530	683	1	hit	322	0
1	Triplet	103	751	1561	7	0	0	1301246	684	0	correct_rejection	NA	0
1	Triplet	104	752	1562	4	0	0	1301963	683	0	correct_rejection	NA	0
1	Triplet	105	753	1563	5	0	0	1302680	683	0	correct_rejection	NA	0
1	Triplet	106	754	1564	6	0	0	1303396	684	0	correct_rejection	NA	0
1	Triplet	107	755	1565	7	0	0	1304113	683	0	correct_rejection	NA	0
1	Triplet	108	756	1566	8	0	0	1304830	683	0	correct_rejection	NA	0
1	Triplet	109	757	1567	9	0	0	1305546	684	0	correct_rejection	NA	0
1	Triplet	110	758	1568	0	1	2	1306263	683	1	hit	617	0
1	Triplet	111	759	1569	9	0	0	1306980	683	0	correct_rejection	NA	0
1	Triplet	112	760	1570	8	0	0	1307696	684	0	correct_rejection	NA	0
1	Triplet	113	761	1571	7	0	0	1308413	683	0	correct_rejection	NA	0
1	Triplet	114	762	1572	4	0	0	1309130	683	0	correct_rejection	NA	0
1	Triplet	115	763	1573	5	0	0	1309846	684	0	correct_rejection	NA	0
1	Triplet	116	764	1574	6	0	0	1310563	683	0	correct_rejection	NA	0
1	Triplet	117	765	1575	0	1	2	1311280	683	1	hit	350	0
1	Triplet	118	766	1576	4	0	0	1311996	684	0	correct_rejection	NA	0
1	Triplet	119	767	1577	5	0	0	1312713	683	0	correct_rejection	NA	0
1	Triplet	120	768	1578	6	0	0	1313430	683	0	correct_rejection	NA	0
1	Triplet	121	769	1579	9	0	0	1314146	684	0	correct_rejection	NA	0
1	Triplet	122	770	1580	8	0	0	1314863	683	0	correct_rejection	NA	0
1	Triplet	123	771	1581	0	1	1	1315579	684	1	hit	442	0
1	Triplet	124	772	1582	7	0	0	1316296	683	0	correct_rejection	NA	0
1	Triplet	125	773	1583	7	0	0	1317013	683	0	correct_rejection	NA	0
1	Triplet	126	774	1584	8	0	0	1317729	684	0	correct_rejection	NA	0
1	Triplet	127	775	1585	9	0	0	1318446	683	0	correct_rejection	NA	0
1	Triplet	128	776	1586	0	1	2	1319163	683	1	hit	440	0
1	Triplet	129	777	1587	6	0	0	1319879	684	0	correct_rejection	NA	0
1	Triplet	130	778	1588	5	0	0	1320596	683	0	correct_rejection	NA	0
1	Triplet	131	779	1589	4	0	0	1321313	683	0	correct_rejection	NA	0
1	Triplet	132	780	1590	7	0	0	1322029	684	0	correct_rejection	NA	0
1	Triplet	133	781	1591	8	0	0	1322746	683	0	correct_rejection	NA	0
1	Triplet	134	782	1592	9	0	0	1323463	683	0	correct_rejection	NA	0
1	Triplet	135	783	1593	7	0	0	1324179	684	0	correct_rejection	NA	0
1	Triplet	136	784	1594	8	0	0	1324896	683	0	correct_rejection	NA	0
1	Triplet	137	785	1595	9	0	0	1325613	683	0	correct_rejection	NA	0
1	Triplet	138	786	1596	4	0	0	1326329	684	0	correct_rejection	NA	0
1	Triplet	139	787	1597	0	1	1	1327046	683	1	hit	579	0
1	Triplet	140	788	1598	5	0	0	1327763	683	0	correct_rejection	NA	0
1	Triplet	141	789	1599	6	0	0	1328479	684	0	correct_rejection	NA	0
1	Triplet	142	790	1600	0	1	2	1329196	683	1	hit	344	0
1	Triplet	143	791	1601	6	0	0	1329913	683	0	correct_rejection	NA	0
1	Triplet	144	792	1602	5	0	0	1330629	684	0	correct_rejection	NA	0
1	Triplet	145	793	1603	4	0	0	1331346	683	0	correct_rejection	NA	0
1	Triplet	146	794	1604	6	0	0	1332063	683	0	correct_rejection	NA	0
1	Triplet	147	795	1605	5	0	0	1332779	684	0	correct_rejection	NA	0
1	Triplet	148	796	1606	4	0	0	1333496	683	0	correct_rejection	NA	0
1	Triplet	149	797	1607	0	1	2	1334213	683	1	hit	366	0
1	Triplet	150	798	1608	9	0	0	1334929	684	0	correct_rejection	NA	0
1	Triplet	151	799	1609	8	0	0	1335646	683	0	correct_rejection	NA	0
1	Triplet	152	800	1610	7	0	0	1336362	684	0	correct_rejection	NA	0
1	Triplet	153	801	1611	0	1	2	1337079	684	1	hit	429	0
1	Triplet	154	802	1612	9	0	0	1337796	683	0	correct_rejection	NA	0
1	Triplet	155	803	1613	8	0	0	1338512	684	0	correct_rejection	NA	0
1	Triplet	156	804	1614	7	0	0	1339229	683	0	correct_rejection	NA	0
1	Triplet	157	805	1615	6	0	0	1339946	683	0	correct_rejection	NA	0
1	Triplet	158	806	1616	5	0	0	1340662	684	0	correct_rejection	NA	0
1	Triplet	159	807	1617	4	0	0	1341379	683	0	correct_rejection	NA	0
1	Triplet	160	808	1618	4	0	0	1342096	683	0	correct_rejection	NA	0
1	Triplet	161	809	1619	5	0	0	1342812	684	0	correct_rejection	NA	0
1	Triplet	162	810	1620	6	0	0	1343529	683	0	correct_rejection	NA	0
