ID	block	trial_block	trial_cat	trial_total	number	violation	level_violation	onset	duration	Response	Hit_Miss	RT	pre_trial_fixcross_ISI
first_trigger_at: 11151
trigger nr 5 at 15151
1	Single	1	163	1	8	0	0	21499	684	0	correct_rejection	NA	6011
1	Single	2	164	2	6	0	0	22216	683	0	correct_rejection	NA	0
1	Single	3	165	3	7	0	0	22932	684	0	correct_rejection	NA	0
1	Single	4	166	4	5	0	0	23649	683	0	correct_rejection	NA	0
1	Single	5	167	5	0	1	1	24366	683	1	hit	345	0
1	Single	6	168	6	5	0	0	25082	684	0	correct_rejection	NA	0
1	Single	7	169	7	7	0	0	25799	683	0	correct_rejection	NA	0
1	Single	8	170	8	6	0	0	26516	683	0	correct_rejection	NA	0
1	Single	9	171	9	0	1	1	27232	684	1	hit	284	0
1	Single	10	172	10	8	0	0	27949	683	0	correct_rejection	NA	0
1	Single	11	173	11	7	0	0	28666	683	0	correct_rejection	NA	0
1	Single	12	174	12	7	0	0	29382	684	0	correct_rejection	NA	0
1	Single	13	175	13	8	0	0	30099	683	0	correct_rejection	NA	0
1	Single	14	176	14	8	0	0	30816	683	0	correct_rejection	NA	0
1	Single	15	177	15	4	0	0	31532	684	0	correct_rejection	NA	0
1	Single	16	178	16	7	0	0	32249	683	0	correct_rejection	NA	0
1	Single	17	179	17	0	1	1	32966	683	1	hit	312	0
1	Single	18	180	18	9	0	0	33682	684	0	correct_rejection	NA	0
1	Single	19	181	19	6	0	0	34399	683	0	correct_rejection	NA	0
1	Single	20	182	20	5	0	0	35116	683	0	correct_rejection	NA	0
1	Single	21	183	21	9	0	0	35832	684	0	correct_rejection	NA	0
1	Single	22	184	22	7	0	0	36549	683	0	correct_rejection	NA	0
1	Single	23	185	23	4	0	0	37266	683	0	correct_rejection	NA	0
1	Single	24	186	24	4	0	0	37982	684	0	correct_rejection	NA	0
1	Single	25	187	25	0	1	1	38699	683	1	hit	315	0
1	Single	26	188	26	6	0	0	39416	683	0	correct_rejection	NA	0
1	Single	27	189	27	9	0	0	40132	684	0	correct_rejection	NA	0
1	Single	28	190	28	9	0	0	40849	683	0	correct_rejection	NA	0
1	Single	29	191	29	5	0	0	41566	683	0	correct_rejection	NA	0
1	Single	30	192	30	6	0	0	42282	684	0	correct_rejection	NA	0
1	Single	31	193	31	6	0	0	42999	683	0	correct_rejection	NA	0
1	Single	32	194	32	0	1	1	43716	683	1	hit	316	0
1	Single	33	195	33	4	0	0	44432	684	0	correct_rejection	NA	0
1	Single	34	196	34	8	0	0	45149	683	0	correct_rejection	NA	0
1	Single	35	197	35	5	0	0	45865	684	0	correct_rejection	NA	0
1	Single	36	198	36	4	0	0	46582	683	0	correct_rejection	NA	0
1	Single	37	199	37	9	0	0	47299	683	0	correct_rejection	NA	0
1	Single	38	200	38	4	0	0	48015	684	0	correct_rejection	NA	0
1	Single	39	201	39	5	0	0	48732	683	0	correct_rejection	NA	0
1	Single	40	202	40	8	0	0	49449	683	0	correct_rejection	NA	0
1	Single	41	203	41	9	0	0	50165	684	0	correct_rejection	NA	0
1	Single	42	204	42	9	0	0	50882	683	0	correct_rejection	NA	0
1	Single	43	205	43	7	0	0	51599	683	0	correct_rejection	NA	0
1	Single	44	206	44	6	0	0	52315	684	0	correct_rejection	NA	0
1	Single	45	207	45	9	0	0	53032	683	0	correct_rejection	NA	0
1	Single	46	208	46	6	0	0	53749	683	0	correct_rejection	NA	0
1	Single	47	209	47	8	0	0	54465	684	0	correct_rejection	NA	0
1	Single	48	210	48	0	1	1	55182	683	1	hit	276	0
1	Single	49	211	49	4	0	0	55899	683	0	correct_rejection	NA	0
1	Single	50	212	50	8	0	0	56615	684	0	correct_rejection	NA	0
1	Single	51	213	51	8	0	0	57332	683	0	correct_rejection	NA	0
1	Single	52	214	52	0	1	1	58049	683	1	hit	356	0
1	Single	53	215	53	5	0	0	58765	684	0	correct_rejection	NA	0
1	Single	54	216	54	7	0	0	59482	683	0	correct_rejection	NA	0
1	Single	55	217	55	7	0	0	60199	683	0	correct_rejection	NA	0
1	Single	56	218	56	5	0	0	60915	684	0	correct_rejection	NA	0
1	Single	57	219	57	6	0	0	61632	683	0	correct_rejection	NA	0
1	Single	58	220	58	4	0	0	62349	683	0	correct_rejection	NA	0
1	Single	59	221	59	7	0	0	63065	684	0	correct_rejection	NA	0
1	Single	60	222	60	0	1	1	63782	683	1	hit	261	0
1	Single	61	223	61	4	0	0	64499	683	0	correct_rejection	NA	0
1	Single	62	224	62	6	0	0	65215	684	0	correct_rejection	NA	0
1	Single	63	225	63	5	0	0	65932	683	0	correct_rejection	NA	0
1	Single	64	226	64	5	0	0	66649	683	0	correct_rejection	NA	0
1	Single	65	227	65	8	0	0	67365	684	0	correct_rejection	NA	0
1	Single	66	228	66	0	1	1	68082	683	1	hit	284	0
1	Single	67	229	67	7	0	0	68798	684	0	correct_rejection	NA	0
1	Single	68	230	68	8	0	0	69515	684	0	correct_rejection	NA	0
1	Single	69	231	69	9	0	0	70232	683	0	correct_rejection	NA	0
1	Single	70	232	70	0	1	1	70948	684	1	hit	285	0
1	Single	71	233	71	4	0	0	71665	683	0	correct_rejection	NA	0
1	Single	72	234	72	9	0	0	72382	683	0	correct_rejection	NA	0
1	Single	73	235	73	5	0	0	73098	684	0	correct_rejection	NA	0
1	Single	74	236	74	4	0	0	73815	683	0	correct_rejection	NA	0
1	Single	75	237	75	4	0	0	74532	683	0	correct_rejection	NA	0
1	Single	76	238	76	5	0	0	75248	684	0	correct_rejection	NA	0
1	Single	77	239	77	0	1	1	75965	683	1	hit	291	0
1	Single	78	240	78	9	0	0	76682	683	0	correct_rejection	NA	0
1	Single	79	241	79	9	0	0	77398	684	0	correct_rejection	NA	0
1	Single	80	242	80	8	0	0	78115	683	0	correct_rejection	NA	0
1	Single	81	243	81	6	0	0	78832	683	0	correct_rejection	NA	0
1	Single	82	244	82	6	0	0	79548	684	0	correct_rejection	NA	0
1	Single	83	245	83	7	0	0	80265	683	0	correct_rejection	NA	0
1	Single	84	246	84	7	0	0	80982	683	0	correct_rejection	NA	0
1	Single	85	247	85	5	0	0	81698	684	0	correct_rejection	NA	0
1	Single	86	248	86	7	0	0	82415	683	0	correct_rejection	NA	0
1	Single	87	249	87	9	0	0	83132	683	0	correct_rejection	NA	0
1	Single	88	250	88	9	0	0	83848	684	0	correct_rejection	NA	0
1	Single	89	251	89	7	0	0	84565	683	0	correct_rejection	NA	0
1	Single	90	252	90	7	0	0	85282	683	0	correct_rejection	NA	0
1	Single	91	253	91	4	0	0	85998	684	0	correct_rejection	NA	0
1	Single	92	254	92	8	0	0	86715	683	0	correct_rejection	NA	0
1	Single	93	255	93	7	0	0	87432	683	0	correct_rejection	NA	0
1	Single	94	256	94	6	0	0	88148	684	0	correct_rejection	NA	0
1	Single	95	257	95	5	0	0	88865	683	0	correct_rejection	NA	0
1	Single	96	258	96	6	0	0	89582	683	0	correct_rejection	NA	0
1	Single	97	259	97	7	0	0	90298	684	0	correct_rejection	NA	0
1	Single	98	260	98	8	0	0	91015	683	0	correct_rejection	NA	0
1	Single	99	261	99	5	0	0	91731	684	0	correct_rejection	NA	0
1	Single	100	262	100	9	0	0	92448	684	0	correct_rejection	NA	0
1	Single	101	263	101	4	0	0	93165	683	0	correct_rejection	NA	0
1	Single	102	264	102	4	0	0	93881	684	0	correct_rejection	NA	0
1	Single	103	265	103	9	0	0	94598	683	0	correct_rejection	NA	0
1	Single	104	266	104	0	1	1	95315	683	1	hit	345	0
1	Single	105	267	105	8	0	0	96031	684	0	correct_rejection	NA	0
1	Single	106	268	106	9	0	0	96748	683	0	correct_rejection	NA	0
1	Single	107	269	107	6	0	0	97465	683	0	correct_rejection	NA	0
1	Single	108	270	108	9	0	0	98181	684	0	correct_rejection	NA	0
1	Single	109	271	109	0	1	1	98898	683	1	hit	394	0
1	Single	110	272	110	5	0	0	99615	683	0	correct_rejection	NA	0
1	Single	111	273	111	8	0	0	100331	684	0	correct_rejection	NA	0
1	Single	112	274	112	4	0	0	101048	683	0	correct_rejection	NA	0
1	Single	113	275	113	5	0	0	101765	683	0	correct_rejection	NA	0
1	Single	114	276	114	5	0	0	102481	684	0	correct_rejection	NA	0
1	Single	115	277	115	4	0	0	103198	683	0	correct_rejection	NA	0
1	Single	116	278	116	6	0	0	103915	683	0	correct_rejection	NA	0
1	Single	117	279	117	6	0	0	104631	684	0	correct_rejection	NA	0
1	Single	118	280	118	8	0	0	105348	683	0	correct_rejection	NA	0
1	Single	119	281	119	8	0	0	106065	683	0	correct_rejection	NA	0
1	Single	120	282	120	6	0	0	106781	684	0	correct_rejection	NA	0
1	Single	121	283	121	4	0	0	107498	683	0	correct_rejection	NA	0
1	Single	122	284	122	8	0	0	108215	683	0	correct_rejection	NA	0
1	Single	123	285	123	4	0	0	108931	684	0	correct_rejection	NA	0
1	Single	124	286	124	6	0	0	109648	683	0	correct_rejection	NA	0
1	Single	125	287	125	0	1	1	110365	683	1	hit	417	0
1	Single	126	288	126	9	0	0	111081	684	0	correct_rejection	NA	0
1	Single	127	289	127	8	0	0	111798	683	0	correct_rejection	NA	0
1	Single	128	290	128	8	0	0	112515	683	0	correct_rejection	NA	0
1	Single	129	291	129	0	1	1	113231	684	1	hit	373	0
1	Single	130	292	130	9	0	0	113948	683	0	correct_rejection	NA	0
1	Single	131	293	131	5	0	0	114664	684	0	correct_rejection	NA	0
1	Single	132	294	132	9	0	0	115381	684	0	correct_rejection	NA	0
1	Single	133	295	133	7	0	0	116098	683	0	correct_rejection	NA	0
1	Single	134	296	134	5	0	0	116814	684	0	correct_rejection	NA	0
1	Single	135	297	135	8	0	0	117531	683	0	correct_rejection	NA	0
1	Single	136	298	136	5	0	0	118248	683	0	correct_rejection	NA	0
1	Single	137	299	137	5	0	0	118964	684	0	correct_rejection	NA	0
1	Single	138	300	138	6	0	0	119681	683	0	correct_rejection	NA	0
1	Single	139	301	139	8	0	0	120398	683	0	correct_rejection	NA	0
1	Single	140	302	140	0	1	1	121114	684	1	hit	322	0
1	Single	141	303	141	6	0	0	121831	683	0	correct_rejection	NA	0
1	Single	142	304	142	7	0	0	122548	683	0	correct_rejection	NA	0
1	Single	143	305	143	9	0	0	123264	684	0	correct_rejection	NA	0
1	Single	144	306	144	6	0	0	123981	683	0	correct_rejection	NA	0
1	Single	145	307	145	0	1	1	124698	683	1	hit	371	0
1	Single	146	308	146	5	0	0	125414	684	0	correct_rejection	NA	0
1	Single	147	309	147	4	0	0	126131	683	0	correct_rejection	NA	0
1	Single	148	310	148	0	1	1	126848	683	1	hit	365	0
1	Single	149	311	149	5	0	0	127564	684	0	correct_rejection	NA	0
1	Single	150	312	150	7	0	0	128281	683	0	correct_rejection	NA	0
1	Single	151	313	151	8	0	0	128998	683	0	correct_rejection	NA	0
1	Single	152	314	152	7	0	0	129714	684	0	correct_rejection	NA	0
1	Single	153	315	153	4	0	0	130431	683	0	correct_rejection	NA	0
1	Single	154	316	154	4	0	0	131148	683	0	correct_rejection	NA	0
1	Single	155	317	155	7	0	0	131864	684	0	correct_rejection	NA	0
1	Single	156	318	156	7	0	0	132581	683	0	correct_rejection	NA	0
1	Single	157	319	157	6	0	0	133298	683	0	correct_rejection	NA	0
1	Single	158	320	158	6	0	0	134014	684	0	correct_rejection	NA	0
1	Single	159	321	159	4	0	0	134731	683	0	correct_rejection	NA	0
1	Single	160	322	160	9	0	0	135448	683	0	correct_rejection	NA	0
1	Single	161	323	161	9	0	0	136164	684	0	correct_rejection	NA	0
1	Single	162	324	162	4	0	0	136881	683	0	correct_rejection	NA	0
1	Nonet	1	487	163	7	0	0	146864	683	0	correct_rejection	NA	9228
1	Nonet	2	488	164	8	0	0	147581	683	0	correct_rejection	NA	0
1	Nonet	3	489	165	9	0	0	148297	684	0	correct_rejection	NA	0
1	Nonet	4	490	166	0	1	2	149014	683	1	hit	438	0
1	Nonet	5	491	167	7	0	0	149731	683	0	correct_rejection	NA	0
1	Nonet	6	492	168	8	0	0	150447	684	0	correct_rejection	NA	0
1	Nonet	7	493	169	9	0	0	151164	683	0	correct_rejection	NA	0
1	Nonet	8	494	170	7	0	0	151881	683	0	correct_rejection	NA	0
1	Nonet	9	495	171	8	0	0	152597	684	0	correct_rejection	NA	0
1	Nonet	10	496	172	9	0	0	153314	683	0	correct_rejection	NA	0
1	Nonet	11	497	173	7	0	0	154031	683	0	correct_rejection	NA	0
1	Nonet	12	498	174	8	0	0	154747	684	0	correct_rejection	NA	0
1	Nonet	13	499	175	0	1	1	155464	683	1	hit	288	0
1	Nonet	14	500	176	9	0	0	156181	683	0	correct_rejection	NA	0
1	Nonet	15	501	177	7	0	0	156897	684	0	correct_rejection	NA	0
1	Nonet	16	502	178	0	1	1	157614	683	1	hit	301	0
1	Nonet	17	503	179	8	0	0	158331	683	0	correct_rejection	NA	0
1	Nonet	18	504	180	9	0	0	159047	684	0	correct_rejection	NA	0
1	Nonet	19	505	181	7	0	0	159764	683	0	correct_rejection	NA	0
1	Nonet	20	506	182	8	0	0	160481	683	0	correct_rejection	NA	0
1	Nonet	21	507	183	9	0	0	161197	684	0	correct_rejection	NA	0
1	Nonet	22	508	184	9	0	0	161914	683	0	correct_rejection	NA	0
1	Nonet	23	509	185	8	0	0	162630	684	0	correct_rejection	NA	0
1	Nonet	24	510	186	7	0	0	163347	683	0	correct_rejection	NA	0
1	Nonet	25	511	187	9	0	0	164064	683	0	correct_rejection	NA	0
1	Nonet	26	512	188	8	0	0	164780	684	0	correct_rejection	NA	0
1	Nonet	27	513	189	7	0	0	165497	683	0	correct_rejection	NA	0
1	Nonet	28	514	190	9	0	0	166214	683	0	correct_rejection	NA	0
1	Nonet	29	515	191	0	1	1	166930	684	1	hit	371	0
1	Nonet	30	516	192	8	0	0	167647	683	0	correct_rejection	NA	0
1	Nonet	31	517	193	7	0	0	168364	683	0	correct_rejection	NA	0
1	Nonet	32	518	194	9	0	0	169080	684	0	correct_rejection	NA	0
1	Nonet	33	519	195	8	0	0	169797	683	0	correct_rejection	NA	0
1	Nonet	34	520	196	7	0	0	170514	683	0	correct_rejection	NA	0
1	Nonet	35	521	197	9	0	0	171230	684	0	correct_rejection	NA	0
1	Nonet	36	522	198	0	1	1	171947	683	1	hit	319	0
1	Nonet	37	523	199	8	0	0	172664	683	0	correct_rejection	NA	0
1	Nonet	38	524	200	7	0	0	173380	684	0	correct_rejection	NA	0
1	Nonet	39	525	201	9	0	0	174097	683	0	correct_rejection	NA	0
1	Nonet	40	526	202	8	0	0	174814	683	0	correct_rejection	NA	0
1	Nonet	41	527	203	7	0	0	175530	684	0	correct_rejection	NA	0
1	Nonet	42	528	204	4	0	0	176247	683	0	correct_rejection	NA	0
1	Nonet	43	529	205	5	0	0	176964	683	0	correct_rejection	NA	0
1	Nonet	44	530	206	6	0	0	177680	684	0	correct_rejection	NA	0
1	Nonet	45	531	207	4	0	0	178397	683	0	correct_rejection	NA	0
1	Nonet	46	532	208	5	0	0	179114	683	0	correct_rejection	NA	0
1	Nonet	47	533	209	0	1	1	179830	684	1	hit	288	0
1	Nonet	48	534	210	6	0	0	180547	683	0	correct_rejection	NA	0
1	Nonet	49	535	211	4	0	0	181264	683	0	correct_rejection	NA	0
1	Nonet	50	536	212	5	0	0	181980	684	0	correct_rejection	NA	0
1	Nonet	51	537	213	6	0	0	182697	683	0	correct_rejection	NA	0
1	Nonet	52	538	214	6	0	0	183414	683	0	correct_rejection	NA	0
1	Nonet	53	539	215	5	0	0	184130	684	0	correct_rejection	NA	0
1	Nonet	54	540	216	4	0	0	184847	683	0	correct_rejection	NA	0
1	Nonet	55	541	217	6	0	0	185563	684	0	correct_rejection	NA	0
1	Nonet	56	542	218	5	0	0	186280	684	0	correct_rejection	NA	0
1	Nonet	57	543	219	4	0	0	186997	683	0	correct_rejection	NA	0
1	Nonet	58	544	220	6	0	0	187713	684	0	correct_rejection	NA	0
1	Nonet	59	545	221	5	0	0	188430	683	0	correct_rejection	NA	0
1	Nonet	60	546	222	4	0	0	189147	683	0	correct_rejection	NA	0
1	Nonet	61	547	223	4	0	0	189863	684	0	correct_rejection	NA	0
1	Nonet	62	548	224	5	0	0	190580	683	0	correct_rejection	NA	0
1	Nonet	63	549	225	6	0	0	191297	683	0	correct_rejection	NA	0
1	Nonet	64	550	226	4	0	0	192013	684	0	correct_rejection	NA	0
1	Nonet	65	551	227	5	0	0	192730	683	0	correct_rejection	NA	0
1	Nonet	66	552	228	6	0	0	193447	683	0	correct_rejection	NA	0
1	Nonet	67	553	229	0	1	2	194163	684	1	hit	323	0
1	Nonet	68	554	230	4	0	0	194880	683	0	correct_rejection	NA	0
1	Nonet	69	555	231	5	0	0	195597	683	0	correct_rejection	NA	0
1	Nonet	70	556	232	6	0	0	196313	684	0	correct_rejection	NA	0
1	Nonet	71	557	233	7	0	0	197030	683	0	correct_rejection	NA	0
1	Nonet	72	558	234	8	0	0	197747	683	0	correct_rejection	NA	0
1	Nonet	73	559	235	9	0	0	198463	684	0	correct_rejection	NA	0
1	Nonet	74	560	236	7	0	0	199180	683	0	correct_rejection	NA	0
1	Nonet	75	561	237	8	0	0	199897	683	0	correct_rejection	NA	0
1	Nonet	76	562	238	9	0	0	200613	684	0	correct_rejection	NA	0
1	Nonet	77	563	239	7	0	0	201330	683	0	correct_rejection	NA	0
1	Nonet	78	564	240	8	0	0	202047	683	0	correct_rejection	NA	0
1	Nonet	79	565	241	9	0	0	202763	684	0	correct_rejection	NA	0
1	Nonet	80	566	242	6	0	0	203480	683	0	correct_rejection	NA	0
1	Nonet	81	567	243	5	0	0	204197	683	0	correct_rejection	NA	0
1	Nonet	82	568	244	0	1	1	204913	684	1	hit	287	0
1	Nonet	83	569	245	4	0	0	205630	683	0	correct_rejection	NA	0
1	Nonet	84	570	246	6	0	0	206347	683	0	correct_rejection	NA	0
1	Nonet	85	571	247	5	0	0	207063	684	0	correct_rejection	NA	0
1	Nonet	86	572	248	4	0	0	207780	683	0	correct_rejection	NA	0
1	Nonet	87	573	249	0	1	2	208496	684	1	hit	267	0
1	Nonet	88	574	250	6	0	0	209213	684	0	correct_rejection	NA	0
1	Nonet	89	575	251	5	0	0	209930	683	0	correct_rejection	NA	0
1	Nonet	90	576	252	4	0	0	210646	684	0	correct_rejection	NA	0
1	Nonet	91	577	253	9	0	0	211363	683	0	correct_rejection	NA	0
1	Nonet	92	578	254	8	0	0	212080	683	0	correct_rejection	NA	0
1	Nonet	93	579	255	7	0	0	212796	684	0	correct_rejection	NA	0
1	Nonet	94	580	256	9	0	0	213513	683	0	correct_rejection	NA	0
1	Nonet	95	581	257	8	0	0	214230	683	0	correct_rejection	NA	0
1	Nonet	96	582	258	7	0	0	214946	684	0	correct_rejection	NA	0
1	Nonet	97	583	259	0	1	2	215663	683	1	hit	262	0
1	Nonet	98	584	260	9	0	0	216380	683	0	correct_rejection	NA	0
1	Nonet	99	585	261	8	0	0	217096	684	0	correct_rejection	NA	0
1	Nonet	100	586	262	7	0	0	217813	683	0	correct_rejection	NA	0
1	Nonet	101	587	263	6	0	0	218530	683	0	correct_rejection	NA	0
1	Nonet	102	588	264	5	0	0	219246	684	0	correct_rejection	NA	0
1	Nonet	103	589	265	0	1	1	219963	683	1	hit	293	0
1	Nonet	104	590	266	4	0	0	220680	683	0	correct_rejection	NA	0
1	Nonet	105	591	267	6	0	0	221396	684	0	correct_rejection	NA	0
1	Nonet	106	592	268	5	0	0	222113	683	0	correct_rejection	NA	0
1	Nonet	107	593	269	4	0	0	222830	683	0	correct_rejection	NA	0
1	Nonet	108	594	270	6	0	0	223546	684	0	correct_rejection	NA	0
1	Nonet	109	595	271	5	0	0	224263	683	0	correct_rejection	NA	0
1	Nonet	110	596	272	4	0	0	224980	683	0	correct_rejection	NA	0
1	Nonet	111	597	273	6	0	0	225696	684	0	correct_rejection	NA	0
1	Nonet	112	598	274	5	0	0	226413	683	0	correct_rejection	NA	0
1	Nonet	113	599	275	4	0	0	227130	683	0	correct_rejection	NA	0
1	Nonet	114	600	276	6	0	0	227846	684	0	correct_rejection	NA	0
1	Nonet	115	601	277	5	0	0	228563	683	0	correct_rejection	NA	0
1	Nonet	116	602	278	4	0	0	229280	683	0	correct_rejection	NA	0
1	Nonet	117	603	279	6	0	0	229996	684	0	correct_rejection	NA	0
1	Nonet	118	604	280	0	1	1	230713	683	1	hit	308	0
1	Nonet	119	605	281	5	0	0	231429	684	0	correct_rejection	NA	0
1	Nonet	120	606	282	4	0	0	232146	684	0	correct_rejection	NA	0
1	Nonet	121	607	283	7	0	0	232863	683	0	correct_rejection	NA	0
1	Nonet	122	608	284	8	0	0	233579	684	0	correct_rejection	NA	0
1	Nonet	123	609	285	0	1	1	234296	683	1	hit	299	0
1	Nonet	124	610	286	9	0	0	235013	683	0	correct_rejection	NA	0
1	Nonet	125	611	287	7	0	0	235729	684	0	correct_rejection	NA	0
1	Nonet	126	612	288	0	1	1	236446	683	1	hit	296	0
1	Nonet	127	613	289	8	0	0	237163	683	0	correct_rejection	NA	0
1	Nonet	128	614	290	9	0	0	237879	684	0	correct_rejection	NA	0
1	Nonet	129	615	291	0	1	2	238596	683	1	hit	292	0
1	Nonet	130	616	292	7	0	0	239313	683	0	correct_rejection	NA	0
1	Nonet	131	617	293	8	0	0	240029	684	0	correct_rejection	NA	0
1	Nonet	132	618	294	9	0	0	240746	683	0	correct_rejection	NA	0
1	Nonet	133	619	295	4	0	0	241463	683	0	correct_rejection	NA	0
1	Nonet	134	620	296	5	0	0	242179	684	0	correct_rejection	NA	0
1	Nonet	135	621	297	6	0	0	242896	683	0	correct_rejection	NA	0
1	Nonet	136	622	298	4	0	0	243613	683	0	correct_rejection	NA	0
1	Nonet	137	623	299	5	0	0	244329	684	0	correct_rejection	NA	0
1	Nonet	138	624	300	6	0	0	245046	683	0	correct_rejection	NA	0
1	Nonet	139	625	301	4	0	0	245763	683	0	correct_rejection	NA	0
1	Nonet	140	626	302	5	0	0	246479	684	0	correct_rejection	NA	0
1	Nonet	141	627	303	6	0	0	247196	683	0	correct_rejection	NA	0
1	Nonet	142	628	304	4	0	0	247913	683	0	correct_rejection	NA	0
1	Nonet	143	629	305	5	0	0	248629	684	0	correct_rejection	NA	0
1	Nonet	144	630	306	6	0	0	249346	683	0	correct_rejection	NA	0
1	Nonet	145	631	307	4	0	0	250063	683	0	correct_rejection	NA	0
1	Nonet	146	632	308	0	1	1	250779	684	1	hit	382	0
1	Nonet	147	633	309	5	0	0	251496	683	0	correct_rejection	NA	0
1	Nonet	148	634	310	6	0	0	252213	683	0	correct_rejection	NA	0
1	Nonet	149	635	311	0	1	2	252929	684	1	hit	468	0
1	Nonet	150	636	312	4	0	0	253646	683	0	correct_rejection	NA	0
1	Nonet	151	637	313	5	0	0	254362	684	0	correct_rejection	NA	0
1	Nonet	152	638	314	6	0	0	255079	684	0	correct_rejection	NA	0
1	Nonet	153	639	315	9	0	0	255796	683	0	correct_rejection	NA	0
1	Nonet	154	640	316	8	0	0	256512	684	0	correct_rejection	NA	0
1	Nonet	155	641	317	7	0	0	257229	683	0	correct_rejection	NA	0
1	Nonet	156	642	318	9	0	0	257946	683	0	correct_rejection	NA	0
1	Nonet	157	643	319	8	0	0	258662	684	0	correct_rejection	NA	0
1	Nonet	158	644	320	7	0	0	259379	683	0	correct_rejection	NA	0
1	Nonet	159	645	321	9	0	0	260096	683	0	correct_rejection	NA	0
1	Nonet	160	646	322	8	0	0	260812	684	0	correct_rejection	NA	0
1	Nonet	161	647	323	0	1	1	261529	683	1	hit	300	0
1	Nonet	162	648	324	7	0	0	262246	683	0	correct_rejection	NA	0
1	Correct	1	163	325	4	0	0	270979	683	0	correct_rejection	NA	7970
1	Correct	2	164	326	5	0	0	271696	683	0	correct_rejection	NA	0
1	Correct	3	165	327	6	0	0	272412	684	0	correct_rejection	NA	0
1	Correct	4	166	328	4	0	0	273129	683	0	correct_rejection	NA	0
1	Correct	5	167	329	5	0	0	273846	683	0	correct_rejection	NA	0
1	Correct	6	168	330	6	0	0	274562	684	0	correct_rejection	NA	0
1	Correct	7	169	331	4	0	0	275279	683	0	correct_rejection	NA	0
1	Correct	8	170	332	0	1	1	275996	683	1	hit	373	0
1	Correct	9	171	333	5	0	0	276712	684	0	correct_rejection	NA	0
1	Correct	10	172	334	6	0	0	277429	683	0	correct_rejection	NA	0
1	Correct	11	173	335	6	0	0	278145	684	0	correct_rejection	NA	0
1	Correct	12	174	336	5	0	0	278862	683	0	correct_rejection	NA	0
1	Correct	13	175	337	4	0	0	279579	683	0	correct_rejection	NA	0
1	Correct	14	176	338	0	1	2	280295	684	1	hit	281	0
1	Correct	15	177	339	6	0	0	281012	683	0	correct_rejection	NA	0
1	Correct	16	178	340	5	0	0	281729	683	0	correct_rejection	NA	0
1	Correct	17	179	341	4	0	0	282445	684	0	correct_rejection	NA	0
1	Correct	18	180	342	6	0	0	283162	683	0	correct_rejection	NA	0
1	Correct	19	181	343	5	0	0	283879	683	0	correct_rejection	NA	0
1	Correct	20	182	344	4	0	0	284595	684	0	correct_rejection	NA	0
1	Correct	21	183	345	0	1	3	285312	683	1	hit	326	0
1	Correct	22	184	346	9	0	0	286029	683	0	correct_rejection	NA	0
1	Correct	23	185	347	8	0	0	286745	684	0	correct_rejection	NA	0
1	Correct	24	186	348	7	0	0	287462	683	0	correct_rejection	NA	0
1	Correct	25	187	349	0	1	2	288179	683	1	hit	358	0
1	Correct	26	188	350	9	0	0	288895	684	0	correct_rejection	NA	0
1	Correct	27	189	351	8	0	0	289612	683	0	correct_rejection	NA	0
1	Correct	28	190	352	0	1	1	290329	683	1	hit	336	0
1	Correct	29	191	353	7	0	0	291045	684	0	correct_rejection	NA	0
1	Correct	30	192	354	9	0	0	291762	683	0	correct_rejection	NA	0
1	Correct	31	193	355	8	0	0	292479	683	0	correct_rejection	NA	0
1	Correct	32	194	356	7	0	0	293195	684	0	correct_rejection	NA	0
1	Correct	33	195	357	0	1	3	293912	683	1	hit	287	0
1	Correct	34	196	358	7	0	0	294629	683	0	correct_rejection	NA	0
1	Correct	35	197	359	8	0	0	295345	684	0	correct_rejection	NA	0
1	Correct	36	198	360	9	0	0	296062	683	0	correct_rejection	NA	0
1	Correct	37	199	361	7	0	0	296779	683	0	correct_rejection	NA	0
1	Correct	38	200	362	8	0	0	297495	684	0	correct_rejection	NA	0
1	Correct	39	201	363	9	0	0	298212	683	0	correct_rejection	NA	0
1	Correct	40	202	364	7	0	0	298929	683	0	correct_rejection	NA	0
1	Correct	41	203	365	8	0	0	299645	684	0	correct_rejection	NA	0
1	Correct	42	204	366	9	0	0	300362	683	0	correct_rejection	NA	0
1	Correct	43	205	367	4	0	0	301078	684	0	correct_rejection	NA	0
1	Correct	44	206	368	5	0	0	301795	684	0	correct_rejection	NA	0
1	Correct	45	207	369	6	0	0	302512	683	0	correct_rejection	NA	0
1	Correct	46	208	370	4	0	0	303228	684	0	correct_rejection	NA	0
1	Correct	47	209	371	5	0	0	303945	683	0	correct_rejection	NA	0
1	Correct	48	210	372	6	0	0	304662	683	0	correct_rejection	NA	0
1	Correct	49	211	373	4	0	0	305378	684	0	correct_rejection	NA	0
1	Correct	50	212	374	5	0	0	306095	683	0	correct_rejection	NA	0
1	Correct	51	213	375	6	0	0	306812	683	0	correct_rejection	NA	0
1	Correct	52	214	376	6	0	0	307528	684	0	correct_rejection	NA	0
1	Correct	53	215	377	5	0	0	308245	683	0	correct_rejection	NA	0
1	Correct	54	216	378	4	0	0	308962	683	0	correct_rejection	NA	0
1	Correct	55	217	379	6	0	0	309678	684	0	correct_rejection	NA	0
1	Correct	56	218	380	5	0	0	310395	683	0	correct_rejection	NA	0
1	Correct	57	219	381	4	0	0	311112	683	0	correct_rejection	NA	0
1	Correct	58	220	382	6	0	0	311828	684	0	correct_rejection	NA	0
1	Correct	59	221	383	5	0	0	312545	683	0	correct_rejection	NA	0
1	Correct	60	222	384	0	1	1	313262	683	1	hit	309	0
1	Correct	61	223	385	4	0	0	313978	684	0	correct_rejection	NA	0
1	Correct	62	224	386	9	0	0	314695	683	0	correct_rejection	NA	0
1	Correct	63	225	387	0	1	1	315412	683	1	hit	329	0
1	Correct	64	226	388	8	0	0	316128	684	0	correct_rejection	NA	0
1	Correct	65	227	389	7	0	0	316845	683	0	correct_rejection	NA	0
1	Correct	66	228	390	9	0	0	317562	683	0	correct_rejection	NA	0
1	Correct	67	229	391	8	0	0	318278	684	0	correct_rejection	NA	0
1	Correct	68	230	392	7	0	0	318995	683	0	correct_rejection	NA	0
1	Correct	69	231	393	9	0	0	319712	683	0	correct_rejection	NA	0
1	Correct	70	232	394	8	0	0	320428	684	0	correct_rejection	NA	0
1	Correct	71	233	395	7	0	0	321145	683	0	correct_rejection	NA	0
1	Correct	72	234	396	7	0	0	321862	683	0	correct_rejection	NA	0
1	Correct	73	235	397	8	0	0	322578	684	0	correct_rejection	NA	0
1	Correct	74	236	398	0	1	1	323295	683	1	hit	330	0
1	Correct	75	237	399	9	0	0	324011	684	0	correct_rejection	NA	0
1	Correct	76	238	400	7	0	0	324728	684	0	correct_rejection	NA	0
1	Correct	77	239	401	0	1	1	325445	683	1	hit	334	0
1	Correct	78	240	402	8	0	0	326161	684	0	correct_rejection	NA	0
1	Correct	79	241	403	9	0	0	326878	683	0	correct_rejection	NA	0
1	Correct	80	242	404	7	0	0	327595	683	0	correct_rejection	NA	0
1	Correct	81	243	405	0	1	1	328311	684	1	hit	370	0
1	Correct	82	244	406	8	0	0	329028	683	0	correct_rejection	NA	0
1	Correct	83	245	407	9	0	0	329745	683	0	correct_rejection	NA	0
1	Correct	84	246	408	4	0	0	330461	684	0	correct_rejection	NA	0
1	Correct	85	247	409	5	0	0	331178	683	0	correct_rejection	NA	0
1	Correct	86	248	410	6	0	0	331895	683	0	correct_rejection	NA	0
1	Correct	87	249	411	0	1	2	332611	684	1	hit	311	0
1	Correct	88	250	412	4	0	0	333328	683	0	correct_rejection	NA	0
1	Correct	89	251	413	5	0	0	334045	683	0	correct_rejection	NA	0
1	Correct	90	252	414	6	0	0	334761	684	0	correct_rejection	NA	0
1	Correct	91	253	415	4	0	0	335478	683	0	correct_rejection	NA	0
1	Correct	92	254	416	5	0	0	336195	683	0	correct_rejection	NA	0
1	Correct	93	255	417	6	0	0	336911	684	0	correct_rejection	NA	0
1	Correct	94	256	418	6	0	0	337628	683	0	correct_rejection	NA	0
1	Correct	95	257	419	0	1	1	338345	683	1	hit	337	0
1	Correct	96	258	420	5	0	0	339061	684	0	correct_rejection	NA	0
1	Correct	97	259	421	4	0	0	339778	683	0	correct_rejection	NA	0
1	Correct	98	260	422	6	0	0	340495	683	0	correct_rejection	NA	0
1	Correct	99	261	423	5	0	0	341211	684	0	correct_rejection	NA	0
1	Correct	100	262	424	4	0	0	341928	683	0	correct_rejection	NA	0
1	Correct	101	263	425	6	0	0	342645	683	0	correct_rejection	NA	0
1	Correct	102	264	426	5	0	0	343361	684	0	correct_rejection	NA	0
1	Correct	103	265	427	4	0	0	344078	683	0	correct_rejection	NA	0
1	Correct	104	266	428	9	0	0	344795	683	0	correct_rejection	NA	0
1	Correct	105	267	429	8	0	0	345511	684	0	correct_rejection	NA	0
1	Correct	106	268	430	7	0	0	346228	683	0	correct_rejection	NA	0
1	Correct	107	269	431	9	0	0	346945	683	0	correct_rejection	NA	0
1	Correct	108	270	432	8	0	0	347661	684	0	correct_rejection	NA	0
1	Correct	109	271	433	7	0	0	348378	683	0	correct_rejection	NA	0
1	Correct	110	272	434	9	0	0	349094	684	0	correct_rejection	NA	0
1	Correct	111	273	435	8	0	0	349811	683	0	correct_rejection	NA	0
1	Correct	112	274	436	7	0	0	350528	683	0	correct_rejection	NA	0
1	Correct	113	275	437	7	0	0	351244	684	0	correct_rejection	NA	0
1	Correct	114	276	438	8	0	0	351961	683	0	correct_rejection	NA	0
1	Correct	115	277	439	0	1	1	352678	683	1	hit	424	0
1	Correct	116	278	440	9	0	0	353394	684	0	correct_rejection	NA	0
1	Correct	117	279	441	7	0	0	354111	683	0	correct_rejection	NA	0
1	Correct	118	280	442	8	0	0	354828	683	0	correct_rejection	NA	0
1	Correct	119	281	443	9	0	0	355544	684	0	correct_rejection	NA	0
1	Correct	120	282	444	0	1	2	356261	683	1	hit	380	0
1	Correct	121	283	445	7	0	0	356978	683	0	correct_rejection	NA	0
1	Correct	122	284	446	8	0	0	357694	684	0	correct_rejection	NA	0
1	Correct	123	285	447	9	0	0	358411	683	0	correct_rejection	NA	0
1	Correct	124	286	448	4	0	0	359128	683	0	correct_rejection	NA	0
1	Correct	125	287	449	5	0	0	359844	684	0	correct_rejection	NA	0
1	Correct	126	288	450	0	1	1	360561	683	1	hit	346	0
1	Correct	127	289	451	6	0	0	361278	683	0	correct_rejection	NA	0
1	Correct	128	290	452	4	0	0	361994	684	0	correct_rejection	NA	0
1	Correct	129	291	453	5	0	0	362711	683	0	correct_rejection	NA	0
1	Correct	130	292	454	6	0	0	363428	683	0	correct_rejection	NA	0
1	Correct	131	293	455	4	0	0	364144	684	0	correct_rejection	NA	0
1	Correct	132	294	456	5	0	0	364861	683	0	correct_rejection	NA	0
1	Correct	133	295	457	6	0	0	365578	683	0	correct_rejection	NA	0
1	Correct	134	296	458	6	0	0	366294	684	0	correct_rejection	NA	0
1	Correct	135	297	459	5	0	0	367011	683	0	correct_rejection	NA	0
1	Correct	136	298	460	4	0	0	367728	683	0	correct_rejection	NA	0
1	Correct	137	299	461	6	0	0	368444	684	0	correct_rejection	NA	0
1	Correct	138	300	462	5	0	0	369161	683	0	correct_rejection	NA	0
1	Correct	139	301	463	4	0	0	369878	683	0	correct_rejection	NA	0
1	Correct	140	302	464	6	0	0	370594	684	0	correct_rejection	NA	0
1	Correct	141	303	465	5	0	0	371311	683	0	correct_rejection	NA	0
1	Correct	142	304	466	4	0	0	372027	684	0	correct_rejection	NA	0
1	Correct	143	305	467	9	0	0	372744	683	0	correct_rejection	NA	0
1	Correct	144	306	468	8	0	0	373461	683	0	correct_rejection	NA	0
1	Correct	145	307	469	7	0	0	374177	684	0	correct_rejection	NA	0
1	Correct	146	308	470	9	0	0	374894	683	0	correct_rejection	NA	0
1	Correct	147	309	471	8	0	0	375611	683	0	correct_rejection	NA	0
1	Correct	148	310	472	0	1	1	376327	684	1	hit	455	0
1	Correct	149	311	473	7	0	0	377044	683	0	correct_rejection	NA	0
1	Correct	150	312	474	9	0	0	377761	683	0	correct_rejection	NA	0
1	Correct	151	313	475	8	0	0	378477	684	0	correct_rejection	NA	0
1	Correct	152	314	476	7	0	0	379194	683	0	correct_rejection	NA	0
1	Correct	153	315	477	7	0	0	379911	683	0	correct_rejection	NA	0
1	Correct	154	316	478	0	1	1	380627	684	1	hit	331	0
1	Correct	155	317	479	8	0	0	381344	683	0	correct_rejection	NA	0
1	Correct	156	318	480	9	0	0	382061	683	0	correct_rejection	NA	0
1	Correct	157	319	481	7	0	0	382777	684	0	correct_rejection	NA	0
1	Correct	158	320	482	8	0	0	383494	683	0	correct_rejection	NA	0
1	Correct	159	321	483	9	0	0	384211	683	0	correct_rejection	NA	0
1	Correct	160	322	484	7	0	0	384927	684	0	correct_rejection	NA	0
1	Correct	161	323	485	8	0	0	385644	683	0	correct_rejection	NA	0
1	Correct	162	324	486	9	0	0	386361	683	0	correct_rejection	NA	0
1	Triplet	1	1	487	9	0	0	394760	684	0	correct_rejection	NA	7641
1	Triplet	2	2	488	8	0	0	395477	684	0	correct_rejection	NA	0
1	Triplet	3	3	489	7	0	0	396194	683	0	correct_rejection	NA	0
1	Triplet	4	4	490	6	0	0	396910	684	0	correct_rejection	NA	0
1	Triplet	5	5	491	5	0	0	397627	683	0	correct_rejection	NA	0
1	Triplet	6	6	492	4	0	0	398344	683	0	correct_rejection	NA	0
1	Triplet	7	7	493	7	0	0	399060	684	0	correct_rejection	NA	0
1	Triplet	8	8	494	8	0	0	399777	683	0	correct_rejection	NA	0
1	Triplet	9	9	495	9	0	0	400494	683	0	correct_rejection	NA	0
1	Triplet	10	10	496	7	0	0	401210	684	0	correct_rejection	NA	0
1	Triplet	11	11	497	8	0	0	401927	683	0	correct_rejection	NA	0
1	Triplet	12	12	498	9	0	0	402644	683	0	correct_rejection	NA	0
1	Triplet	13	13	499	0	1	2	403360	684	1	hit	331	0
1	Triplet	14	14	500	4	0	0	404077	683	0	correct_rejection	NA	0
1	Triplet	15	15	501	5	0	0	404794	683	0	correct_rejection	NA	0
1	Triplet	16	16	502	0	1	1	405510	684	1	hit	458	0
1	Triplet	17	17	503	6	0	0	406227	683	0	correct_rejection	NA	0
1	Triplet	18	18	504	6	0	0	406944	683	0	correct_rejection	NA	0
1	Triplet	19	19	505	0	1	1	407660	684	1	hit	445	0
1	Triplet	20	20	506	5	0	0	408377	683	0	correct_rejection	NA	0
1	Triplet	21	21	507	4	0	0	409094	683	0	correct_rejection	NA	0
1	Triplet	22	22	508	4	0	0	409810	684	0	correct_rejection	NA	0
1	Triplet	23	23	509	5	0	0	410527	683	0	correct_rejection	NA	0
1	Triplet	24	24	510	6	0	0	411244	683	0	correct_rejection	NA	0
1	Triplet	25	25	511	0	1	2	411960	684	1	hit	260	0
1	Triplet	26	26	512	7	0	0	412677	683	0	correct_rejection	NA	0
1	Triplet	27	27	513	8	0	0	413394	683	0	correct_rejection	NA	0
1	Triplet	28	28	514	9	0	0	414110	684	0	correct_rejection	NA	0
1	Triplet	29	29	515	9	0	0	414827	683	0	correct_rejection	NA	0
1	Triplet	30	30	516	8	0	0	415544	683	0	correct_rejection	NA	0
1	Triplet	31	31	517	7	0	0	416260	684	0	correct_rejection	NA	0
1	Triplet	32	32	518	7	0	0	416977	683	0	correct_rejection	NA	0
1	Triplet	33	33	519	8	0	0	417693	684	0	correct_rejection	NA	0
1	Triplet	34	34	520	9	0	0	418410	684	0	correct_rejection	NA	0
1	Triplet	35	35	521	6	0	0	419127	683	0	correct_rejection	NA	0
1	Triplet	36	36	522	5	0	0	419843	684	0	correct_rejection	NA	0
1	Triplet	37	37	523	4	0	0	420560	683	0	correct_rejection	NA	0
1	Triplet	38	38	524	6	0	0	421277	683	0	correct_rejection	NA	0
1	Triplet	39	39	525	5	0	0	421993	684	0	correct_rejection	NA	0
1	Triplet	40	40	526	4	0	0	422710	683	0	correct_rejection	NA	0
1	Triplet	41	41	527	9	0	0	423427	683	0	correct_rejection	NA	0
1	Triplet	42	42	528	8	0	0	424143	684	0	correct_rejection	NA	0
1	Triplet	43	43	529	7	0	0	424860	683	0	correct_rejection	NA	0
1	Triplet	44	44	530	9	0	0	425577	683	0	correct_rejection	NA	0
1	Triplet	45	45	531	8	0	0	426293	684	0	correct_rejection	NA	0
1	Triplet	46	46	532	7	0	0	427010	683	0	correct_rejection	NA	0
1	Triplet	47	47	533	0	1	2	427727	683	1	hit	365	0
1	Triplet	48	48	534	4	0	0	428443	684	0	correct_rejection	NA	0
1	Triplet	49	49	535	5	0	0	429160	683	0	correct_rejection	NA	0
1	Triplet	50	50	536	0	1	1	429877	683	1	hit	377	0
1	Triplet	51	51	537	6	0	0	430593	684	0	correct_rejection	NA	0
1	Triplet	52	52	538	4	0	0	431310	683	0	correct_rejection	NA	0
1	Triplet	53	53	539	5	0	0	432027	683	0	correct_rejection	NA	0
1	Triplet	54	54	540	6	0	0	432743	684	0	correct_rejection	NA	0
1	Triplet	55	55	541	9	0	0	433460	683	0	correct_rejection	NA	0
1	Triplet	56	56	542	8	0	0	434177	683	0	correct_rejection	NA	0
1	Triplet	57	57	543	7	0	0	434893	684	0	correct_rejection	NA	0
1	Triplet	58	58	544	4	0	0	435610	683	0	correct_rejection	NA	0
1	Triplet	59	59	545	5	0	0	436327	683	0	correct_rejection	NA	0
1	Triplet	60	60	546	6	0	0	437043	684	0	correct_rejection	NA	0
1	Triplet	61	61	547	0	1	2	437760	683	1	hit	358	0
1	Triplet	62	62	548	6	0	0	438477	683	0	correct_rejection	NA	0
1	Triplet	63	63	549	5	0	0	439193	684	0	correct_rejection	NA	0
1	Triplet	64	64	550	0	1	1	439910	683	1	hit	399	0
1	Triplet	65	65	551	4	0	0	440626	684	0	correct_rejection	NA	0
1	Triplet	66	66	552	6	0	0	441343	684	0	correct_rejection	NA	0
1	Triplet	67	67	553	5	0	0	442060	683	0	correct_rejection	NA	0
1	Triplet	68	68	554	4	0	0	442776	684	0	correct_rejection	NA	0
1	Triplet	69	69	555	0	1	2	443493	683	1	hit	297	0
1	Triplet	70	70	556	7	0	0	444210	683	0	correct_rejection	NA	0
1	Triplet	71	71	557	8	0	0	444926	684	0	correct_rejection	NA	0
1	Triplet	72	72	558	0	1	1	445643	683	1	hit	350	0
1	Triplet	73	73	559	9	0	0	446360	683	0	correct_rejection	NA	0
1	Triplet	74	74	560	4	0	0	447076	684	0	correct_rejection	NA	0
1	Triplet	75	75	561	0	1	1	447793	683	1	hit	267	0
1	Triplet	76	76	562	5	0	0	448510	683	0	correct_rejection	NA	0
1	Triplet	77	77	563	6	0	0	449226	684	0	correct_rejection	NA	0
1	Triplet	78	78	564	9	0	0	449943	683	0	correct_rejection	NA	0
1	Triplet	79	79	565	8	0	0	450660	683	0	correct_rejection	NA	0
1	Triplet	80	80	566	7	0	0	451376	684	0	correct_rejection	NA	0
1	Triplet	81	81	567	7	0	0	452093	683	0	correct_rejection	NA	0
1	Triplet	82	82	568	8	0	0	452810	683	0	correct_rejection	NA	0
1	Triplet	83	83	569	9	0	0	453526	684	0	correct_rejection	NA	0
1	Triplet	84	84	570	0	1	2	454243	683	1	hit	267	0
1	Triplet	85	85	571	9	0	0	454960	683	0	correct_rejection	NA	0
1	Triplet	86	86	572	8	0	0	455676	684	0	correct_rejection	NA	0
1	Triplet	87	87	573	7	0	0	456393	683	0	correct_rejection	NA	0
1	Triplet	88	88	574	6	0	0	457110	683	0	correct_rejection	NA	0
1	Triplet	89	89	575	5	0	0	457826	684	0	correct_rejection	NA	0
1	Triplet	90	90	576	4	0	0	458543	683	0	correct_rejection	NA	0
1	Triplet	91	91	577	4	0	0	459260	683	0	correct_rejection	NA	0
1	Triplet	92	92	578	5	0	0	459976	684	0	correct_rejection	NA	0
1	Triplet	93	93	579	6	0	0	460693	683	0	correct_rejection	NA	0
1	Triplet	94	94	580	4	0	0	461410	683	0	correct_rejection	NA	0
1	Triplet	95	95	581	0	1	1	462126	684	1	hit	330	0
1	Triplet	96	96	582	5	0	0	462843	683	0	correct_rejection	NA	0
1	Triplet	97	97	583	6	0	0	463559	684	0	correct_rejection	NA	0
1	Triplet	98	98	584	7	0	0	464276	684	0	correct_rejection	NA	0
1	Triplet	99	99	585	8	0	0	464993	683	0	correct_rejection	NA	0
1	Triplet	100	100	586	9	0	0	465709	684	0	correct_rejection	NA	0
1	Triplet	101	101	587	7	0	0	466426	683	0	correct_rejection	NA	0
1	Triplet	102	102	588	8	0	0	467143	683	0	correct_rejection	NA	0
1	Triplet	103	103	589	9	0	0	467859	684	0	correct_rejection	NA	0
1	Triplet	104	104	590	6	0	0	468576	683	0	correct_rejection	NA	0
1	Triplet	105	105	591	5	0	0	469293	683	0	correct_rejection	NA	0
1	Triplet	106	106	592	4	0	0	470009	684	0	correct_rejection	NA	0
1	Triplet	107	107	593	9	0	0	470726	683	0	correct_rejection	NA	0
1	Triplet	108	108	594	8	0	0	471443	683	0	correct_rejection	NA	0
1	Triplet	109	109	595	0	1	1	472159	684	1	hit	357	0
1	Triplet	110	110	596	7	0	0	472876	683	0	correct_rejection	NA	0
1	Triplet	111	111	597	7	0	0	473593	683	0	correct_rejection	NA	0
1	Triplet	112	112	598	8	0	0	474309	684	0	correct_rejection	NA	0
1	Triplet	113	113	599	9	0	0	475026	683	0	correct_rejection	NA	0
1	Triplet	114	114	600	4	0	0	475743	683	0	correct_rejection	NA	0
1	Triplet	115	115	601	5	0	0	476459	684	0	correct_rejection	NA	0
1	Triplet	116	116	602	6	0	0	477176	683	0	correct_rejection	NA	0
1	Triplet	117	117	603	4	0	0	477893	683	0	correct_rejection	NA	0
1	Triplet	118	118	604	5	0	0	478609	684	0	correct_rejection	NA	0
1	Triplet	119	119	605	6	0	0	479326	683	0	correct_rejection	NA	0
1	Triplet	120	120	606	0	1	2	480043	683	1	hit	391	0
1	Triplet	121	121	607	9	0	0	480759	684	0	correct_rejection	NA	0
1	Triplet	122	122	608	8	0	0	481476	683	0	correct_rejection	NA	0
1	Triplet	123	123	609	7	0	0	482193	683	0	correct_rejection	NA	0
1	Triplet	124	124	610	4	0	0	482909	684	0	correct_rejection	NA	0
1	Triplet	125	125	611	5	0	0	483626	683	0	correct_rejection	NA	0
1	Triplet	126	126	612	6	0	0	484343	683	0	correct_rejection	NA	0
1	Triplet	127	127	613	7	0	0	485059	684	0	correct_rejection	NA	0
1	Triplet	128	128	614	8	0	0	485776	683	0	correct_rejection	NA	0
1	Triplet	129	129	615	0	1	1	486492	684	1	hit	353	0
1	Triplet	130	130	616	9	0	0	487209	684	0	correct_rejection	NA	0
1	Triplet	131	131	617	6	0	0	487926	683	0	correct_rejection	NA	0
1	Triplet	132	132	618	5	0	0	488642	684	0	correct_rejection	NA	0
1	Triplet	133	133	619	4	0	0	489359	683	0	correct_rejection	NA	0
1	Triplet	134	134	620	0	1	2	490076	683	1	hit	358	0
1	Triplet	135	135	621	4	0	0	490792	684	0	correct_rejection	NA	0
1	Triplet	136	136	622	5	0	0	491509	683	0	correct_rejection	NA	0
1	Triplet	137	137	623	6	0	0	492226	683	0	correct_rejection	NA	0
1	Triplet	138	138	624	6	0	0	492942	684	0	correct_rejection	NA	0
1	Triplet	139	139	625	5	0	0	493659	683	0	correct_rejection	NA	0
1	Triplet	140	140	626	4	0	0	494376	683	0	correct_rejection	NA	0
1	Triplet	141	141	627	9	0	0	495092	684	0	correct_rejection	NA	0
1	Triplet	142	142	628	8	0	0	495809	683	0	correct_rejection	NA	0
1	Triplet	143	143	629	7	0	0	496526	683	0	correct_rejection	NA	0
1	Triplet	144	144	630	7	0	0	497242	684	0	correct_rejection	NA	0
1	Triplet	145	145	631	8	0	0	497959	683	0	correct_rejection	NA	0
1	Triplet	146	146	632	9	0	0	498676	683	0	correct_rejection	NA	0
1	Triplet	147	147	633	7	0	0	499392	684	0	correct_rejection	NA	0
1	Triplet	148	148	634	8	0	0	500109	683	0	correct_rejection	NA	0
1	Triplet	149	149	635	9	0	0	500826	683	0	correct_rejection	NA	0
1	Triplet	150	150	636	9	0	0	501542	684	0	correct_rejection	NA	0
1	Triplet	151	151	637	0	1	1	502259	683	1	hit	413	0
1	Triplet	152	152	638	8	0	0	502976	683	0	correct_rejection	NA	0
1	Triplet	153	153	639	7	0	0	503692	684	0	correct_rejection	NA	0
1	Triplet	154	154	640	9	0	0	504409	683	0	correct_rejection	NA	0
1	Triplet	155	155	641	8	0	0	505126	683	0	correct_rejection	NA	0
1	Triplet	156	156	642	7	0	0	505842	684	0	correct_rejection	NA	0
1	Triplet	157	157	643	6	0	0	506559	683	0	correct_rejection	NA	0
1	Triplet	158	158	644	5	0	0	507276	683	0	correct_rejection	NA	0
1	Triplet	159	159	645	4	0	0	507992	684	0	correct_rejection	NA	0
1	Triplet	160	160	646	6	0	0	508709	683	0	correct_rejection	NA	0
1	Triplet	161	161	647	5	0	0	509426	683	0	correct_rejection	NA	0
1	Triplet	162	162	648	4	0	0	510142	684	0	correct_rejection	NA	0
1	Nonet	1	163	649	4	0	0	517142	683	0	correct_rejection	NA	6234
1	Nonet	2	164	650	5	0	0	517859	683	0	correct_rejection	NA	0
1	Nonet	3	165	651	6	0	0	518575	684	0	correct_rejection	NA	0
1	Nonet	4	166	652	4	0	0	519292	683	0	correct_rejection	NA	0
1	Nonet	5	167	653	5	0	0	520009	683	0	correct_rejection	NA	0
1	Nonet	6	168	654	6	0	0	520725	684	0	correct_rejection	NA	0
1	Nonet	7	169	655	4	0	0	521442	683	0	correct_rejection	NA	0
1	Nonet	8	170	656	5	0	0	522159	683	0	correct_rejection	NA	0
1	Nonet	9	171	657	0	1	1	522875	684	1	hit	380	0
1	Nonet	10	172	658	6	0	0	523592	683	0	correct_rejection	NA	0
1	Nonet	11	173	659	4	0	0	524309	683	0	correct_rejection	NA	0
1	Nonet	12	174	660	5	0	0	525025	684	0	correct_rejection	NA	0
1	Nonet	13	175	661	6	0	0	525742	683	0	correct_rejection	NA	0
1	Nonet	14	176	662	4	0	0	526459	683	0	correct_rejection	NA	0
1	Nonet	15	177	663	5	0	0	527175	684	0	correct_rejection	NA	0
1	Nonet	16	178	664	6	0	0	527892	683	0	correct_rejection	NA	0
1	Nonet	17	179	665	4	0	0	528609	683	0	correct_rejection	NA	0
1	Nonet	18	180	666	5	0	0	529325	684	0	correct_rejection	NA	0
1	Nonet	19	181	667	6	0	0	530042	683	0	correct_rejection	NA	0
1	Nonet	20	182	668	7	0	0	530759	683	0	correct_rejection	NA	0
1	Nonet	21	183	669	8	0	0	531475	684	0	correct_rejection	NA	0
1	Nonet	22	184	670	9	0	0	532192	683	0	correct_rejection	NA	0
1	Nonet	23	185	671	7	0	0	532908	684	0	correct_rejection	NA	0
1	Nonet	24	186	672	8	0	0	533625	684	0	correct_rejection	NA	0
1	Nonet	25	187	673	9	0	0	534342	683	0	correct_rejection	NA	0
1	Nonet	26	188	674	7	0	0	535058	684	0	correct_rejection	NA	0
1	Nonet	27	189	675	0	1	1	535775	683	1	hit	389	0
1	Nonet	28	190	676	8	0	0	536492	683	0	correct_rejection	NA	0
1	Nonet	29	191	677	9	0	0	537208	684	0	correct_rejection	NA	0
1	Nonet	30	192	678	0	1	3	537925	683	1	hit	336	0
1	Nonet	31	193	679	7	0	0	538642	683	0	correct_rejection	NA	0
1	Nonet	32	194	680	8	0	0	539358	684	0	correct_rejection	NA	0
1	Nonet	33	195	681	9	0	0	540075	683	0	correct_rejection	NA	0
1	Nonet	34	196	682	7	0	0	540792	683	0	correct_rejection	NA	0
1	Nonet	35	197	683	0	1	1	541508	684	1	hit	332	0
1	Nonet	36	198	684	8	0	0	542225	683	0	correct_rejection	NA	0
1	Nonet	37	199	685	9	0	0	542942	683	0	correct_rejection	NA	0
1	Nonet	38	200	686	7	0	0	543658	684	0	correct_rejection	NA	0
1	Nonet	39	201	687	8	0	0	544375	683	0	correct_rejection	NA	0
1	Nonet	40	202	688	9	0	0	545092	683	0	correct_rejection	NA	0
1	Nonet	41	203	689	6	0	0	545808	684	0	correct_rejection	NA	0
1	Nonet	42	204	690	5	0	0	546525	683	0	correct_rejection	NA	0
1	Nonet	43	205	691	4	0	0	547242	683	0	correct_rejection	NA	0
1	Nonet	44	206	692	6	0	0	547958	684	0	correct_rejection	NA	0
1	Nonet	45	207	693	5	0	0	548675	683	0	correct_rejection	NA	0
1	Nonet	46	208	694	4	0	0	549392	683	0	correct_rejection	NA	0
1	Nonet	47	209	695	6	0	0	550108	684	0	correct_rejection	NA	0
1	Nonet	48	210	696	5	0	0	550825	683	0	correct_rejection	NA	0
1	Nonet	49	211	697	0	1	1	551542	683	1	hit	443	0
1	Nonet	50	212	698	4	0	0	552258	684	0	correct_rejection	NA	0
1	Nonet	51	213	699	6	0	0	552975	683	0	correct_rejection	NA	0
1	Nonet	52	214	700	5	0	0	553692	683	0	correct_rejection	NA	0
1	Nonet	53	215	701	4	0	0	554408	684	0	correct_rejection	NA	0
1	Nonet	54	216	702	6	0	0	555125	683	0	correct_rejection	NA	0
1	Nonet	55	217	703	0	1	1	555842	683	1	hit	316	0
1	Nonet	56	218	704	5	0	0	556558	684	0	correct_rejection	NA	0
1	Nonet	57	219	705	4	0	0	557275	683	0	correct_rejection	NA	0
1	Nonet	58	220	706	6	0	0	557991	684	0	correct_rejection	NA	0
1	Nonet	59	221	707	5	0	0	558708	683	0	correct_rejection	NA	0
1	Nonet	60	222	708	4	0	0	559425	683	0	correct_rejection	NA	0
1	Nonet	61	223	709	4	0	0	560141	684	0	correct_rejection	NA	0
1	Nonet	62	224	710	0	1	1	560858	683	1	hit	282	0
1	Nonet	63	225	711	5	0	0	561575	683	0	correct_rejection	NA	0
1	Nonet	64	226	712	6	0	0	562291	684	0	correct_rejection	NA	0
1	Nonet	65	227	713	4	0	0	563008	683	0	correct_rejection	NA	0
1	Nonet	66	228	714	5	0	0	563725	683	0	correct_rejection	NA	0
1	Nonet	67	229	715	6	0	0	564441	684	0	correct_rejection	NA	0
1	Nonet	68	230	716	4	0	0	565158	683	0	correct_rejection	NA	0
1	Nonet	69	231	717	5	0	0	565875	683	0	correct_rejection	NA	0
1	Nonet	70	232	718	6	0	0	566591	684	0	correct_rejection	NA	0
1	Nonet	71	233	719	6	0	0	567308	683	0	correct_rejection	NA	0
1	Nonet	72	234	720	5	0	0	568025	683	0	correct_rejection	NA	0
1	Nonet	73	235	721	4	0	0	568741	684	0	correct_rejection	NA	0
1	Nonet	74	236	722	6	0	0	569458	683	0	correct_rejection	NA	0
1	Nonet	75	237	723	0	1	1	570175	683	1	hit	431	0
1	Nonet	76	238	724	5	0	0	570891	684	0	correct_rejection	NA	0
1	Nonet	77	239	725	4	0	0	571608	683	0	correct_rejection	NA	0
1	Nonet	78	240	726	0	1	2	572325	683	1	hit	308	0
1	Nonet	79	241	727	6	0	0	573041	684	0	correct_rejection	NA	0
1	Nonet	80	242	728	5	0	0	573758	683	0	correct_rejection	NA	0
1	Nonet	81	243	729	4	0	0	574475	683	0	correct_rejection	NA	0
1	Nonet	82	244	730	9	0	0	575191	684	0	correct_rejection	NA	0
1	Nonet	83	245	731	0	1	1	575908	683	1	hit	437	0
1	Nonet	84	246	732	8	0	0	576625	683	0	correct_rejection	NA	0
1	Nonet	85	247	733	7	0	0	577341	684	0	correct_rejection	NA	0
1	Nonet	86	248	734	9	0	0	578058	683	0	correct_rejection	NA	0
1	Nonet	87	249	735	8	0	0	578774	684	0	correct_rejection	NA	0
1	Nonet	88	250	736	7	0	0	579491	684	0	correct_rejection	NA	0
1	Nonet	89	251	737	9	0	0	580208	683	0	correct_rejection	NA	0
1	Nonet	90	252	738	8	0	0	580924	684	0	correct_rejection	NA	0
1	Nonet	91	253	739	7	0	0	581641	684	0	correct_rejection	NA	0
1	Nonet	92	254	740	4	0	0	582358	683	0	correct_rejection	NA	0
1	Nonet	93	255	741	5	0	0	583074	684	0	correct_rejection	NA	0
1	Nonet	94	256	742	6	0	0	583791	683	0	correct_rejection	NA	0
1	Nonet	95	257	743	0	1	2	584508	683	1	hit	501	0
1	Nonet	96	258	744	4	0	0	585224	684	0	correct_rejection	NA	0
1	Nonet	97	259	745	5	0	0	585941	683	0	correct_rejection	NA	0
1	Nonet	98	260	746	6	0	0	586658	683	0	correct_rejection	NA	0
1	Nonet	99	261	747	4	0	0	587374	684	0	correct_rejection	NA	0
1	Nonet	100	262	748	0	1	1	588091	683	0	miss	NA	0
1	Nonet	101	263	749	5	0	0	588808	683	0	correct_rejection	NA	0
1	Nonet	102	264	750	6	0	0	589524	684	0	correct_rejection	NA	0
1	Nonet	103	265	751	9	0	0	590241	683	0	correct_rejection	NA	0
1	Nonet	104	266	752	0	1	1	590958	683	0	miss	NA	0
1	Nonet	105	267	753	8	0	0	591674	684	0	correct_rejection	NA	0
1	Nonet	106	268	754	7	0	0	592391	683	0	correct_rejection	NA	0
1	Nonet	107	269	755	9	0	0	593108	683	0	correct_rejection	NA	0
1	Nonet	108	270	756	0	1	1	593824	684	1	hit	365	0
1	Nonet	109	271	757	8	0	0	594541	683	0	correct_rejection	NA	0
1	Nonet	110	272	758	7	0	0	595258	683	0	correct_rejection	NA	0
1	Nonet	111	273	759	9	0	0	595974	684	0	correct_rejection	NA	0
1	Nonet	112	274	760	8	0	0	596691	683	0	correct_rejection	NA	0
1	Nonet	113	275	761	7	0	0	597408	683	0	correct_rejection	NA	0
1	Nonet	114	276	762	0	1	3	598124	684	1	hit	309	0
1	Nonet	115	277	763	7	0	0	598841	683	0	correct_rejection	NA	0
1	Nonet	116	278	764	8	0	0	599558	683	0	correct_rejection	NA	0
1	Nonet	117	279	765	9	0	0	600274	684	0	correct_rejection	NA	0
1	Nonet	118	280	766	7	0	0	600991	683	0	correct_rejection	NA	0
1	Nonet	119	281	767	8	0	0	601708	683	0	correct_rejection	NA	0
1	Nonet	120	282	768	9	0	0	602424	684	0	correct_rejection	NA	0
1	Nonet	121	283	769	7	0	0	603141	683	0	correct_rejection	NA	0
1	Nonet	122	284	770	8	0	0	603857	684	0	correct_rejection	NA	0
1	Nonet	123	285	771	9	0	0	604574	683	0	correct_rejection	NA	0
1	Nonet	124	286	772	9	0	0	605291	683	0	correct_rejection	NA	0
1	Nonet	125	287	773	8	0	0	606007	684	0	correct_rejection	NA	0
1	Nonet	126	288	774	7	0	0	606724	683	0	correct_rejection	NA	0
1	Nonet	127	289	775	9	0	0	607441	683	0	correct_rejection	NA	0
1	Nonet	128	290	776	8	0	0	608157	684	0	correct_rejection	NA	0
1	Nonet	129	291	777	7	0	0	608874	683	0	correct_rejection	NA	0
1	Nonet	130	292	778	9	0	0	609591	683	0	correct_rejection	NA	0
1	Nonet	131	293	779	8	0	0	610307	684	0	correct_rejection	NA	0
1	Nonet	132	294	780	7	0	0	611024	683	0	correct_rejection	NA	0
1	Nonet	133	295	781	0	1	3	611741	683	1	hit	290	0
1	Nonet	134	296	782	9	0	0	612457	684	0	correct_rejection	NA	0
1	Nonet	135	297	783	8	0	0	613174	683	0	correct_rejection	NA	0
1	Nonet	136	298	784	7	0	0	613891	683	0	correct_rejection	NA	0
1	Nonet	137	299	785	9	0	0	614607	684	0	correct_rejection	NA	0
1	Nonet	138	300	786	8	0	0	615324	683	0	correct_rejection	NA	0
1	Nonet	139	301	787	7	0	0	616041	683	0	correct_rejection	NA	0
1	Nonet	140	302	788	9	0	0	616757	684	0	correct_rejection	NA	0
1	Nonet	141	303	789	8	0	0	617474	683	0	correct_rejection	NA	0
1	Nonet	142	304	790	7	0	0	618191	683	0	correct_rejection	NA	0
1	Nonet	143	305	791	6	0	0	618907	684	0	correct_rejection	NA	0
1	Nonet	144	306	792	5	0	0	619624	683	0	correct_rejection	NA	0
1	Nonet	145	307	793	4	0	0	620341	683	0	correct_rejection	NA	0
1	Nonet	146	308	794	0	1	2	621057	684	1	hit	425	0
1	Nonet	147	309	795	6	0	0	621774	683	0	correct_rejection	NA	0
1	Nonet	148	310	796	5	0	0	622491	683	0	correct_rejection	NA	0
1	Nonet	149	311	797	4	0	0	623207	684	0	correct_rejection	NA	0
1	Nonet	150	312	798	6	0	0	623924	683	0	correct_rejection	NA	0
1	Nonet	151	313	799	5	0	0	624641	683	0	correct_rejection	NA	0
1	Nonet	152	314	800	4	0	0	625357	684	0	correct_rejection	NA	0
1	Nonet	153	315	801	7	0	0	626074	683	0	correct_rejection	NA	0
1	Nonet	154	316	802	8	0	0	626790	684	0	correct_rejection	NA	0
1	Nonet	155	317	803	0	1	1	627507	683	1	hit	409	0
1	Nonet	156	318	804	9	0	0	628224	683	0	correct_rejection	NA	0
1	Nonet	157	319	805	7	0	0	628940	684	0	correct_rejection	NA	0
1	Nonet	158	320	806	8	0	0	629657	683	0	correct_rejection	NA	0
1	Nonet	159	321	807	9	0	0	630374	683	0	correct_rejection	NA	0
1	Nonet	160	322	808	7	0	0	631090	684	0	correct_rejection	NA	0
1	Nonet	161	323	809	8	0	0	631807	683	0	correct_rejection	NA	0
1	Nonet	162	324	810	9	0	0	632524	683	0	correct_rejection	NA	0
trigger nr 623 at 633136
trigger nr 632 at 716504
1	Triplet	1	487	811	6	0	0	722789	683	0	correct_rejection	NA	6211
1	Triplet	2	488	812	5	0	0	723506	683	0	correct_rejection	NA	0
1	Triplet	3	489	813	4	0	0	724222	684	0	correct_rejection	NA	0
1	Triplet	4	490	814	4	0	0	724939	683	0	correct_rejection	NA	0
1	Triplet	5	491	815	5	0	0	725656	683	0	correct_rejection	NA	0
1	Triplet	6	492	816	6	0	0	726372	684	0	correct_rejection	NA	0
1	Triplet	7	493	817	9	0	0	727089	683	0	correct_rejection	NA	0
1	Triplet	8	494	818	8	0	0	727806	683	0	correct_rejection	NA	0
1	Triplet	9	495	819	7	0	0	728522	684	0	correct_rejection	NA	0
1	Triplet	10	496	820	0	1	2	729239	683	1	hit	287	0
1	Triplet	11	497	821	4	0	0	729956	683	0	correct_rejection	NA	0
1	Triplet	12	498	822	5	0	0	730672	684	0	correct_rejection	NA	0
1	Triplet	13	499	823	0	1	1	731389	683	1	hit	267	0
1	Triplet	14	500	824	6	0	0	732106	683	0	correct_rejection	NA	0
1	Triplet	15	501	825	6	0	0	732822	684	0	correct_rejection	NA	0
1	Triplet	16	502	826	5	0	0	733539	683	0	correct_rejection	NA	0
1	Triplet	17	503	827	0	1	1	734256	683	1	hit	278	0
1	Triplet	18	504	828	4	0	0	734972	684	0	correct_rejection	NA	0
1	Triplet	19	505	829	6	0	0	735689	683	0	correct_rejection	NA	0
1	Triplet	20	506	830	5	0	0	736406	683	0	correct_rejection	NA	0
1	Triplet	21	507	831	4	0	0	737122	684	0	correct_rejection	NA	0
1	Triplet	22	508	832	7	0	0	737839	683	0	correct_rejection	NA	0
1	Triplet	23	509	833	0	1	1	738556	683	1	hit	251	0
1	Triplet	24	510	834	8	0	0	739272	684	0	correct_rejection	NA	0
1	Triplet	25	511	835	9	0	0	739989	683	0	correct_rejection	NA	0
1	Triplet	26	512	836	6	0	0	740706	683	0	correct_rejection	NA	0
1	Triplet	27	513	837	0	1	1	741422	684	1	hit	260	0
1	Triplet	28	514	838	5	0	0	742139	683	0	correct_rejection	NA	0
1	Triplet	29	515	839	4	0	0	742855	684	0	correct_rejection	NA	0
1	Triplet	30	516	840	9	0	0	743572	683	0	correct_rejection	NA	0
1	Triplet	31	517	841	0	1	1	744289	683	1	hit	294	0
1	Triplet	32	518	842	8	0	0	745005	684	0	correct_rejection	NA	0
1	Triplet	33	519	843	7	0	0	745722	683	0	correct_rejection	NA	0
1	Triplet	34	520	844	9	0	0	746439	683	0	correct_rejection	NA	0
1	Triplet	35	521	845	8	0	0	747155	684	0	correct_rejection	NA	0
1	Triplet	36	522	846	0	1	1	747872	683	1	hit	270	0
1	Triplet	37	523	847	7	0	0	748589	683	0	correct_rejection	NA	0
1	Triplet	38	524	848	7	0	0	749305	684	0	correct_rejection	NA	0
1	Triplet	39	525	849	8	0	0	750022	683	0	correct_rejection	NA	0
1	Triplet	40	526	850	9	0	0	750739	683	0	correct_rejection	NA	0
1	Triplet	41	527	851	0	1	2	751455	684	1	hit	260	0
1	Triplet	42	528	852	4	0	0	752172	683	0	correct_rejection	NA	0
1	Triplet	43	529	853	5	0	0	752889	683	0	correct_rejection	NA	0
1	Triplet	44	530	854	6	0	0	753605	684	0	correct_rejection	NA	0
1	Triplet	45	531	855	4	0	0	754322	683	0	correct_rejection	NA	0
1	Triplet	46	532	856	5	0	0	755039	683	0	correct_rejection	NA	0
1	Triplet	47	533	857	6	0	0	755755	684	0	correct_rejection	NA	0
1	Triplet	48	534	858	7	0	0	756472	683	0	correct_rejection	NA	0
1	Triplet	49	535	859	8	0	0	757189	683	0	correct_rejection	NA	0
1	Triplet	50	536	860	9	0	0	757905	684	0	correct_rejection	NA	0
1	Triplet	51	537	861	7	0	0	758622	683	0	correct_rejection	NA	0
1	Triplet	52	538	862	8	0	0	759339	683	0	correct_rejection	NA	0
1	Triplet	53	539	863	0	1	1	760055	684	1	hit	300	0
1	Triplet	54	540	864	9	0	0	760772	683	0	correct_rejection	NA	0
1	Triplet	55	541	865	9	0	0	761489	683	0	correct_rejection	NA	0
1	Triplet	56	542	866	8	0	0	762205	684	0	correct_rejection	NA	0
1	Triplet	57	543	867	7	0	0	762922	683	0	correct_rejection	NA	0
1	Triplet	58	544	868	4	0	0	763639	683	0	correct_rejection	NA	0
1	Triplet	59	545	869	5	0	0	764355	684	0	correct_rejection	NA	0
1	Triplet	60	546	870	0	1	1	765072	683	1	hit	304	0
1	Triplet	61	547	871	6	0	0	765788	684	0	correct_rejection	NA	0
1	Triplet	62	548	872	7	0	0	766505	683	0	correct_rejection	NA	0
1	Triplet	63	549	873	8	0	0	767222	683	0	correct_rejection	NA	0
1	Triplet	64	550	874	9	0	0	767938	684	0	correct_rejection	NA	0
1	Triplet	65	551	875	6	0	0	768655	683	0	correct_rejection	NA	0
1	Triplet	66	552	876	0	1	1	769372	683	1	hit	359	0
1	Triplet	67	553	877	5	0	0	770088	684	0	correct_rejection	NA	0
1	Triplet	68	554	878	4	0	0	770805	683	0	correct_rejection	NA	0
1	Triplet	69	555	879	6	0	0	771522	683	0	correct_rejection	NA	0
1	Triplet	70	556	880	5	0	0	772238	684	0	correct_rejection	NA	0
1	Triplet	71	557	881	4	0	0	772955	683	0	correct_rejection	NA	0
1	Triplet	72	558	882	4	0	0	773672	683	0	correct_rejection	NA	0
1	Triplet	73	559	883	5	0	0	774388	684	0	correct_rejection	NA	0
1	Triplet	74	560	884	6	0	0	775105	683	0	correct_rejection	NA	0
1	Triplet	75	561	885	4	0	0	775822	683	0	correct_rejection	NA	0
1	Triplet	76	562	886	5	0	0	776538	684	0	correct_rejection	NA	0
1	Triplet	77	563	887	6	0	0	777255	683	0	correct_rejection	NA	0
1	Triplet	78	564	888	0	1	2	777972	683	1	hit	346	0
1	Triplet	79	565	889	6	0	0	778688	684	0	correct_rejection	NA	0
1	Triplet	80	566	890	5	0	0	779405	683	0	correct_rejection	NA	0
1	Triplet	81	567	891	4	0	0	780122	683	0	correct_rejection	NA	0
1	Triplet	82	568	892	7	0	0	780838	684	0	correct_rejection	NA	0
1	Triplet	83	569	893	0	1	1	781555	683	1	hit	296	0
1	Triplet	84	570	894	8	0	0	782272	683	0	correct_rejection	NA	0
1	Triplet	85	571	895	9	0	0	782988	684	0	correct_rejection	NA	0
1	Triplet	86	572	896	0	1	2	783705	683	1	hit	350	0
1	Triplet	87	573	897	9	0	0	784422	683	0	correct_rejection	NA	0
1	Triplet	88	574	898	8	0	0	785138	684	0	correct_rejection	NA	0
1	Triplet	89	575	899	0	1	1	785855	683	1	hit	310	0
1	Triplet	90	576	900	7	0	0	786572	683	0	correct_rejection	NA	0
1	Triplet	91	577	901	4	0	0	787288	684	0	correct_rejection	NA	0
1	Triplet	92	578	902	5	0	0	788005	683	0	correct_rejection	NA	0
1	Triplet	93	579	903	6	0	0	788721	684	0	correct_rejection	NA	0
1	Triplet	94	580	904	9	0	0	789438	684	0	correct_rejection	NA	0
1	Triplet	95	581	905	8	0	0	790155	683	0	correct_rejection	NA	0
1	Triplet	96	582	906	7	0	0	790871	684	0	correct_rejection	NA	0
1	Triplet	97	583	907	9	0	0	791588	683	0	correct_rejection	NA	0
1	Triplet	98	584	908	8	0	0	792305	683	0	correct_rejection	NA	0
1	Triplet	99	585	909	0	1	1	793021	684	1	hit	339	0
1	Triplet	100	586	910	7	0	0	793738	683	0	correct_rejection	NA	0
1	Triplet	101	587	911	6	0	0	794455	683	0	correct_rejection	NA	0
1	Triplet	102	588	912	5	0	0	795171	684	0	correct_rejection	NA	0
1	Triplet	103	589	913	4	0	0	795888	683	0	correct_rejection	NA	0
1	Triplet	104	590	914	9	0	0	796605	683	0	correct_rejection	NA	0
1	Triplet	105	591	915	8	0	0	797321	684	0	correct_rejection	NA	0
1	Triplet	106	592	916	7	0	0	798038	683	0	correct_rejection	NA	0
1	Triplet	107	593	917	7	0	0	798755	683	0	correct_rejection	NA	0
1	Triplet	108	594	918	8	0	0	799471	684	0	correct_rejection	NA	0
1	Triplet	109	595	919	9	0	0	800188	683	0	correct_rejection	NA	0
1	Triplet	110	596	920	7	0	0	800905	683	0	correct_rejection	NA	0
1	Triplet	111	597	921	8	0	0	801621	684	0	correct_rejection	NA	0
1	Triplet	112	598	922	9	0	0	802338	683	0	correct_rejection	NA	0
1	Triplet	113	599	923	6	0	0	803055	683	0	correct_rejection	NA	0
1	Triplet	114	600	924	5	0	0	803771	684	0	correct_rejection	NA	0
1	Triplet	115	601	925	4	0	0	804488	683	0	correct_rejection	NA	0
1	Triplet	116	602	926	0	1	2	805205	683	1	hit	377	0
1	Triplet	117	603	927	9	0	0	805921	684	0	correct_rejection	NA	0
1	Triplet	118	604	928	8	0	0	806638	683	0	correct_rejection	NA	0
1	Triplet	119	605	929	7	0	0	807355	683	0	correct_rejection	NA	0
1	Triplet	120	606	930	6	0	0	808071	684	0	correct_rejection	NA	0
1	Triplet	121	607	931	5	0	0	808788	683	0	correct_rejection	NA	0
1	Triplet	122	608	932	4	0	0	809505	683	0	correct_rejection	NA	0
1	Triplet	123	609	933	7	0	0	810221	684	0	correct_rejection	NA	0
1	Triplet	124	610	934	8	0	0	810938	683	0	correct_rejection	NA	0
1	Triplet	125	611	935	9	0	0	811654	684	0	correct_rejection	NA	0
1	Triplet	126	612	936	7	0	0	812371	683	0	correct_rejection	NA	0
1	Triplet	127	613	937	8	0	0	813088	683	0	correct_rejection	NA	0
1	Triplet	128	614	938	9	0	0	813804	684	0	correct_rejection	NA	0
1	Triplet	129	615	939	4	0	0	814521	683	0	correct_rejection	NA	0
1	Triplet	130	616	940	5	0	0	815238	683	0	correct_rejection	NA	0
1	Triplet	131	617	941	6	0	0	815954	684	0	correct_rejection	NA	0
1	Triplet	132	618	942	6	0	0	816671	683	0	correct_rejection	NA	0
1	Triplet	133	619	943	5	0	0	817388	683	0	correct_rejection	NA	0
1	Triplet	134	620	944	4	0	0	818104	684	0	correct_rejection	NA	0
1	Triplet	135	621	945	4	0	0	818821	683	0	correct_rejection	NA	0
1	Triplet	136	622	946	5	0	0	819538	683	0	correct_rejection	NA	0
1	Triplet	137	623	947	6	0	0	820254	684	0	correct_rejection	NA	0
1	Triplet	138	624	948	7	0	0	820971	683	0	correct_rejection	NA	0
1	Triplet	139	625	949	8	0	0	821688	683	0	correct_rejection	NA	0
1	Triplet	140	626	950	9	0	0	822404	684	0	correct_rejection	NA	0
1	Triplet	141	627	951	9	0	0	823121	683	0	correct_rejection	NA	0
1	Triplet	142	628	952	8	0	0	823838	683	0	correct_rejection	NA	0
1	Triplet	143	629	953	7	0	0	824554	684	0	correct_rejection	NA	0
1	Triplet	144	630	954	0	1	2	825271	683	1	hit	374	0
1	Triplet	145	631	955	9	0	0	825988	683	0	correct_rejection	NA	0
1	Triplet	146	632	956	8	0	0	826704	684	0	correct_rejection	NA	0
1	Triplet	147	633	957	7	0	0	827421	683	0	correct_rejection	NA	0
1	Triplet	148	634	958	4	0	0	828138	683	0	correct_rejection	NA	0
1	Triplet	149	635	959	5	0	0	828854	684	0	correct_rejection	NA	0
1	Triplet	150	636	960	6	0	0	829571	683	0	correct_rejection	NA	0
1	Triplet	151	637	961	4	0	0	830288	683	0	correct_rejection	NA	0
1	Triplet	152	638	962	5	0	0	831004	684	0	correct_rejection	NA	0
1	Triplet	153	639	963	6	0	0	831721	683	0	correct_rejection	NA	0
1	Triplet	154	640	964	9	0	0	832438	683	0	correct_rejection	NA	0
1	Triplet	155	641	965	8	0	0	833154	684	0	correct_rejection	NA	0
1	Triplet	156	642	966	7	0	0	833871	683	0	correct_rejection	NA	0
1	Triplet	157	643	967	7	0	0	834587	684	0	correct_rejection	NA	0
1	Triplet	158	644	968	8	0	0	835304	684	0	correct_rejection	NA	0
1	Triplet	159	645	969	9	0	0	836021	683	0	correct_rejection	NA	0
1	Triplet	160	646	970	6	0	0	836737	684	0	correct_rejection	NA	0
1	Triplet	161	647	971	5	0	0	837454	683	0	correct_rejection	NA	0
1	Triplet	162	648	972	4	0	0	838171	683	0	correct_rejection	NA	0
1	Single	1	487	973	7	0	0	844954	683	0	correct_rejection	NA	6028
1	Single	2	488	974	4	0	0	845671	683	0	correct_rejection	NA	0
1	Single	3	489	975	5	0	0	846387	684	0	correct_rejection	NA	0
1	Single	4	490	976	0	1	1	847104	683	1	hit	418	0
1	Single	5	491	977	5	0	0	847821	683	0	correct_rejection	NA	0
1	Single	6	492	978	7	0	0	848537	684	0	correct_rejection	NA	0
1	Single	7	493	979	6	0	0	849254	683	0	correct_rejection	NA	0
1	Single	8	494	980	4	0	0	849971	683	0	correct_rejection	NA	0
1	Single	9	495	981	9	0	0	850687	684	0	correct_rejection	NA	0
1	Single	10	496	982	0	1	1	851404	683	1	hit	350	0
1	Single	11	497	983	5	0	0	852121	683	0	correct_rejection	NA	0
1	Single	12	498	984	9	0	0	852837	684	0	correct_rejection	NA	0
1	Single	13	499	985	0	1	1	853554	683	1	hit	353	0
1	Single	14	500	986	4	0	0	854271	683	0	correct_rejection	NA	0
1	Single	15	501	987	8	0	0	854987	684	0	correct_rejection	NA	0
1	Single	16	502	988	5	0	0	855704	683	0	correct_rejection	NA	0
1	Single	17	503	989	8	0	0	856421	683	0	correct_rejection	NA	0
1	Single	18	504	990	4	0	0	857137	684	0	correct_rejection	NA	0
1	Single	19	505	991	7	0	0	857854	683	0	correct_rejection	NA	0
1	Single	20	506	992	8	0	0	858570	684	0	correct_rejection	NA	0
1	Single	21	507	993	6	0	0	859287	683	0	correct_rejection	NA	0
1	Single	22	508	994	8	0	0	860004	683	0	correct_rejection	NA	0
1	Single	23	509	995	9	0	0	860720	684	0	correct_rejection	NA	0
1	Single	24	510	996	7	0	0	861437	683	0	correct_rejection	NA	0
1	Single	25	511	997	0	1	1	862154	683	1	hit	352	0
1	Single	26	512	998	5	0	0	862870	684	0	correct_rejection	NA	0
1	Single	27	513	999	6	0	0	863587	683	0	correct_rejection	NA	0
1	Single	28	514	1000	9	0	0	864304	683	0	correct_rejection	NA	0
1	Single	29	515	1001	6	0	0	865020	684	0	correct_rejection	NA	0
1	Single	30	516	1002	6	0	0	865737	683	0	correct_rejection	NA	0
1	Single	31	517	1003	5	0	0	866454	683	0	correct_rejection	NA	0
1	Single	32	518	1004	4	0	0	867170	684	0	correct_rejection	NA	0
1	Single	33	519	1005	4	0	0	867887	683	0	correct_rejection	NA	0
1	Single	34	520	1006	0	1	1	868604	683	1	hit	428	0
1	Single	35	521	1007	6	0	0	869320	684	0	correct_rejection	NA	0
1	Single	36	522	1008	7	0	0	870037	683	0	correct_rejection	NA	0
1	Single	37	523	1009	7	0	0	870754	683	0	correct_rejection	NA	0
1	Single	38	524	1010	9	0	0	871470	684	0	correct_rejection	NA	0
1	Single	39	525	1011	9	0	0	872187	683	0	correct_rejection	NA	0
1	Single	40	526	1012	8	0	0	872904	683	0	correct_rejection	NA	0
1	Single	41	527	1013	8	0	0	873620	684	0	correct_rejection	NA	0
1	Single	42	528	1014	5	0	0	874337	683	0	correct_rejection	NA	0
1	Single	43	529	1015	9	0	0	875054	683	0	correct_rejection	NA	0
1	Single	44	530	1016	9	0	0	875770	684	0	correct_rejection	NA	0
1	Single	45	531	1017	7	0	0	876487	683	0	correct_rejection	NA	0
1	Single	46	532	1018	0	1	1	877204	683	1	hit	342	0
1	Single	47	533	1019	9	0	0	877920	684	0	correct_rejection	NA	0
1	Single	48	534	1020	5	0	0	878637	683	0	correct_rejection	NA	0
1	Single	49	535	1021	5	0	0	879354	683	0	correct_rejection	NA	0
1	Single	50	536	1022	0	1	1	880070	684	1	hit	518	0
1	Single	51	537	1023	8	0	0	880787	683	0	correct_rejection	NA	0
1	Single	52	538	1024	7	0	0	881503	684	0	correct_rejection	NA	0
1	Single	53	539	1025	5	0	0	882220	683	0	correct_rejection	NA	0
1	Single	54	540	1026	4	0	0	882937	683	0	correct_rejection	NA	0
1	Single	55	541	1027	5	0	0	883653	684	0	correct_rejection	NA	0
1	Single	56	542	1028	7	0	0	884370	683	0	correct_rejection	NA	0
1	Single	57	543	1029	7	0	0	885087	683	0	correct_rejection	NA	0
1	Single	58	544	1030	4	0	0	885803	684	0	correct_rejection	NA	0
1	Single	59	545	1031	9	0	0	886520	683	0	correct_rejection	NA	0
1	Single	60	546	1032	6	0	0	887237	683	0	correct_rejection	NA	0
1	Single	61	547	1033	7	0	0	887953	684	0	correct_rejection	NA	0
1	Single	62	548	1034	8	0	0	888670	683	0	correct_rejection	NA	0
1	Single	63	549	1035	4	0	0	889387	683	0	correct_rejection	NA	0
1	Single	64	550	1036	6	0	0	890103	684	0	correct_rejection	NA	0
1	Single	65	551	1037	5	0	0	890820	683	0	correct_rejection	NA	0
1	Single	66	552	1038	6	0	0	891537	683	0	correct_rejection	NA	0
1	Single	67	553	1039	6	0	0	892253	684	0	correct_rejection	NA	0
1	Single	68	554	1040	9	0	0	892970	683	0	correct_rejection	NA	0
1	Single	69	555	1041	8	0	0	893687	683	0	correct_rejection	NA	0
1	Single	70	556	1042	9	0	0	894403	684	0	correct_rejection	NA	0
1	Single	71	557	1043	4	0	0	895120	683	0	correct_rejection	NA	0
1	Single	72	558	1044	4	0	0	895837	683	0	correct_rejection	NA	0
1	Single	73	559	1045	8	0	0	896553	684	0	correct_rejection	NA	0
1	Single	74	560	1046	6	0	0	897270	683	0	correct_rejection	NA	0
1	Single	75	561	1047	4	0	0	897987	683	0	correct_rejection	NA	0
1	Single	76	562	1048	7	0	0	898703	684	0	correct_rejection	NA	0
1	Single	77	563	1049	6	0	0	899420	683	0	correct_rejection	NA	0
1	Single	78	564	1050	8	0	0	900137	683	0	correct_rejection	NA	0
1	Single	79	565	1051	8	0	0	900853	684	0	correct_rejection	NA	0
1	Single	80	566	1052	4	0	0	901570	683	0	correct_rejection	NA	0
1	Single	81	567	1053	7	0	0	902287	683	0	correct_rejection	NA	0
1	Single	82	568	1054	5	0	0	903003	684	0	correct_rejection	NA	0
1	Single	83	569	1055	5	0	0	903720	683	0	correct_rejection	NA	0
1	Single	84	570	1056	4	0	0	904436	684	0	correct_rejection	NA	0
1	Single	85	571	1057	0	1	1	905153	684	1	hit	387	0
1	Single	86	572	1058	8	0	0	905870	683	0	correct_rejection	NA	0
1	Single	87	573	1059	9	0	0	906586	684	0	correct_rejection	NA	0
1	Single	88	574	1060	0	1	1	907303	683	1	hit	348	0
1	Single	89	575	1061	6	0	0	908020	683	0	correct_rejection	NA	0
1	Single	90	576	1062	9	0	0	908736	684	0	correct_rejection	NA	0
1	Single	91	577	1063	9	0	0	909453	683	0	correct_rejection	NA	0
1	Single	92	578	1064	5	0	0	910170	683	0	correct_rejection	NA	0
1	Single	93	579	1065	8	0	0	910886	684	0	correct_rejection	NA	0
1	Single	94	580	1066	5	0	0	911603	683	0	correct_rejection	NA	0
1	Single	95	581	1067	6	0	0	912320	683	0	correct_rejection	NA	0
1	Single	96	582	1068	7	0	0	913036	684	0	correct_rejection	NA	0
1	Single	97	583	1069	9	0	0	913753	683	0	correct_rejection	NA	0
1	Single	98	584	1070	4	0	0	914470	683	0	correct_rejection	NA	0
1	Single	99	585	1071	6	0	0	915186	684	0	correct_rejection	NA	0
1	Single	100	586	1072	8	0	0	915903	683	0	correct_rejection	NA	0
1	Single	101	587	1073	0	1	1	916620	683	1	hit	469	0
1	Single	102	588	1074	4	0	0	917336	684	0	correct_rejection	NA	0
1	Single	103	589	1075	5	0	0	918053	683	0	correct_rejection	NA	0
1	Single	104	590	1076	9	0	0	918770	683	0	correct_rejection	NA	0
1	Single	105	591	1077	8	0	0	919486	684	0	correct_rejection	NA	0
1	Single	106	592	1078	7	0	0	920203	683	0	correct_rejection	NA	0
1	Single	107	593	1079	0	1	1	920920	683	1	hit	327	0
1	Single	108	594	1080	6	0	0	921636	684	0	correct_rejection	NA	0
1	Single	109	595	1081	6	0	0	922353	683	0	correct_rejection	NA	0
1	Single	110	596	1082	4	0	0	923070	683	0	correct_rejection	NA	0
1	Single	111	597	1083	0	1	1	923786	684	1	hit	448	0
1	Single	112	598	1084	4	0	0	924503	683	0	correct_rejection	NA	0
1	Single	113	599	1085	9	0	0	925220	683	0	correct_rejection	NA	0
1	Single	114	600	1086	7	0	0	925936	684	0	correct_rejection	NA	0
1	Single	115	601	1087	7	0	0	926653	683	0	correct_rejection	NA	0
1	Single	116	602	1088	0	1	1	927369	684	1	hit	339	0
1	Single	117	603	1089	8	0	0	928086	684	0	correct_rejection	NA	0
1	Single	118	604	1090	8	0	0	928803	683	0	correct_rejection	NA	0
1	Single	119	605	1091	6	0	0	929519	684	0	correct_rejection	NA	0
1	Single	120	606	1092	5	0	0	930236	683	0	correct_rejection	NA	0
1	Single	121	607	1093	7	0	0	930953	683	0	correct_rejection	NA	0
1	Single	122	608	1094	0	1	1	931669	684	1	hit	285	0
1	Single	123	609	1095	7	0	0	932386	683	0	correct_rejection	NA	0
1	Single	124	610	1096	8	0	0	933103	683	0	correct_rejection	NA	0
1	Single	125	611	1097	5	0	0	933819	684	0	correct_rejection	NA	0
1	Single	126	612	1098	0	1	1	934536	683	1	hit	293	0
1	Single	127	613	1099	7	0	0	935253	683	0	correct_rejection	NA	0
1	Single	128	614	1100	6	0	0	935969	684	0	correct_rejection	NA	0
1	Single	129	615	1101	4	0	0	936686	683	0	correct_rejection	NA	0
1	Single	130	616	1102	5	0	0	937403	683	0	correct_rejection	NA	0
1	Single	131	617	1103	5	0	0	938119	684	0	correct_rejection	NA	0
1	Single	132	618	1104	6	0	0	938836	683	0	correct_rejection	NA	0
1	Single	133	619	1105	8	0	0	939553	683	0	correct_rejection	NA	0
1	Single	134	620	1106	0	1	1	940269	684	1	hit	329	0
1	Single	135	621	1107	6	0	0	940986	683	0	correct_rejection	NA	0
1	Single	136	622	1108	9	0	0	941703	683	0	correct_rejection	NA	0
1	Single	137	623	1109	4	0	0	942419	684	0	correct_rejection	NA	0
1	Single	138	624	1110	8	0	0	943136	683	0	correct_rejection	NA	0
1	Single	139	625	1111	7	0	0	943853	683	0	correct_rejection	NA	0
1	Single	140	626	1112	0	1	1	944569	684	1	hit	356	0
1	Single	141	627	1113	4	0	0	945286	683	0	correct_rejection	NA	0
1	Single	142	628	1114	6	0	0	946003	683	0	correct_rejection	NA	0
1	Single	143	629	1115	6	0	0	946719	684	0	correct_rejection	NA	0
1	Single	144	630	1116	7	0	0	947436	683	0	correct_rejection	NA	0
1	Single	145	631	1117	5	0	0	948153	683	0	correct_rejection	NA	0
1	Single	146	632	1118	8	0	0	948869	684	0	correct_rejection	NA	0
1	Single	147	633	1119	9	0	0	949586	683	0	correct_rejection	NA	0
1	Single	148	634	1120	8	0	0	950302	684	0	correct_rejection	NA	0
1	Single	149	635	1121	8	0	0	951019	684	0	correct_rejection	NA	0
1	Single	150	636	1122	4	0	0	951736	683	0	correct_rejection	NA	0
1	Single	151	637	1123	9	0	0	952452	684	0	correct_rejection	NA	0
1	Single	152	638	1124	5	0	0	953169	683	0	correct_rejection	NA	0
1	Single	153	639	1125	4	0	0	953886	683	0	correct_rejection	NA	0
1	Single	154	640	1126	4	0	0	954602	684	0	correct_rejection	NA	0
1	Single	155	641	1127	7	0	0	955319	683	0	correct_rejection	NA	0
1	Single	156	642	1128	9	0	0	956036	683	0	correct_rejection	NA	0
1	Single	157	643	1129	9	0	0	956752	684	0	correct_rejection	NA	0
1	Single	158	644	1130	6	0	0	957469	683	0	correct_rejection	NA	0
1	Single	159	645	1131	5	0	0	958186	683	0	correct_rejection	NA	0
1	Single	160	646	1132	0	1	1	958902	684	1	hit	411	0
1	Single	161	647	1133	9	0	0	959619	683	0	correct_rejection	NA	0
1	Single	162	648	1134	7	0	0	960336	683	0	correct_rejection	NA	0
1	Correct	1	1	1135	4	0	0	969136	683	0	correct_rejection	NA	8041
1	Correct	2	2	1136	5	0	0	969852	684	0	correct_rejection	NA	0
1	Correct	3	3	1137	6	0	0	970569	683	0	correct_rejection	NA	0
1	Correct	4	4	1138	0	1	2	971286	683	1	hit	331	0
1	Correct	5	5	1139	4	0	0	972002	684	0	correct_rejection	NA	0
1	Correct	6	6	1140	5	0	0	972719	683	0	correct_rejection	NA	0
1	Correct	7	7	1141	6	0	0	973435	684	0	correct_rejection	NA	0
1	Correct	8	8	1142	4	0	0	974152	684	0	correct_rejection	NA	0
1	Correct	9	9	1143	5	0	0	974869	683	0	correct_rejection	NA	0
1	Correct	10	10	1144	6	0	0	975585	684	0	correct_rejection	NA	0
1	Correct	11	11	1145	0	1	3	976302	683	1	hit	436	0
1	Correct	12	12	1146	6	0	0	977019	683	0	correct_rejection	NA	0
1	Correct	13	13	1147	5	0	0	977735	684	0	correct_rejection	NA	0
1	Correct	14	14	1148	4	0	0	978452	683	0	correct_rejection	NA	0
1	Correct	15	15	1149	6	0	0	979169	683	0	correct_rejection	NA	0
1	Correct	16	16	1150	0	1	1	979885	684	1	hit	449	0
1	Correct	17	17	1151	5	0	0	980602	683	0	correct_rejection	NA	0
1	Correct	18	18	1152	4	0	0	981319	683	0	correct_rejection	NA	0
1	Correct	19	19	1153	6	0	0	982035	684	0	correct_rejection	NA	0
1	Correct	20	20	1154	5	0	0	982752	683	0	correct_rejection	NA	0
1	Correct	21	21	1155	4	0	0	983469	683	0	correct_rejection	NA	0
1	Correct	22	22	1156	9	0	0	984185	684	0	correct_rejection	NA	0
1	Correct	23	23	1157	8	0	0	984902	683	0	correct_rejection	NA	0
1	Correct	24	24	1158	7	0	0	985619	683	0	correct_rejection	NA	0
1	Correct	25	25	1159	9	0	0	986335	684	0	correct_rejection	NA	0
1	Correct	26	26	1160	8	0	0	987052	683	0	correct_rejection	NA	0
1	Correct	27	27	1161	7	0	0	987769	683	0	correct_rejection	NA	0
1	Correct	28	28	1162	0	1	2	988485	684	1	hit	349	0
1	Correct	29	29	1163	9	0	0	989202	683	0	correct_rejection	NA	0
1	Correct	30	30	1164	8	0	0	989919	683	0	correct_rejection	NA	0
1	Correct	31	31	1165	7	0	0	990635	684	0	correct_rejection	NA	0
1	Correct	32	32	1166	7	0	0	991352	683	0	correct_rejection	NA	0
1	Correct	33	33	1167	8	0	0	992069	683	0	correct_rejection	NA	0
1	Correct	34	34	1168	9	0	0	992785	684	0	correct_rejection	NA	0
1	Correct	35	35	1169	7	0	0	993502	683	0	correct_rejection	NA	0
1	Correct	36	36	1170	8	0	0	994219	683	0	correct_rejection	NA	0
1	Correct	37	37	1171	9	0	0	994935	684	0	correct_rejection	NA	0
1	Correct	38	38	1172	7	0	0	995652	683	0	correct_rejection	NA	0
1	Correct	39	39	1173	8	0	0	996368	684	0	correct_rejection	NA	0
1	Correct	40	40	1174	9	0	0	997085	684	0	correct_rejection	NA	0
1	Correct	41	41	1175	0	1	4	997802	683	1	hit	370	0
1	Correct	42	42	1176	4	0	0	998518	684	0	correct_rejection	NA	0
1	Correct	43	43	1177	5	0	0	999235	683	0	correct_rejection	NA	0
1	Correct	44	44	1178	0	1	1	999952	683	1	hit	412	0
1	Correct	45	45	1179	6	0	0	1000668	684	0	correct_rejection	NA	0
1	Correct	46	46	1180	4	0	0	1001385	683	0	correct_rejection	NA	0
1	Correct	47	47	1181	5	0	0	1002102	683	0	correct_rejection	NA	0
1	Correct	48	48	1182	6	0	0	1002818	684	0	correct_rejection	NA	0
1	Correct	49	49	1183	4	0	0	1003535	683	0	correct_rejection	NA	0
1	Correct	50	50	1184	5	0	0	1004252	683	0	correct_rejection	NA	0
1	Correct	51	51	1185	6	0	0	1004968	684	0	correct_rejection	NA	0
1	Correct	52	52	1186	6	0	0	1005685	683	0	correct_rejection	NA	0
1	Correct	53	53	1187	5	0	0	1006402	683	0	correct_rejection	NA	0
1	Correct	54	54	1188	4	0	0	1007118	684	0	correct_rejection	NA	0
1	Correct	55	55	1189	6	0	0	1007835	683	0	correct_rejection	NA	0
1	Correct	56	56	1190	5	0	0	1008552	683	0	correct_rejection	NA	0
1	Correct	57	57	1191	4	0	0	1009268	684	0	correct_rejection	NA	0
1	Correct	58	58	1192	6	0	0	1009985	683	0	correct_rejection	NA	0
1	Correct	59	59	1193	5	0	0	1010702	683	0	correct_rejection	NA	0
1	Correct	60	60	1194	4	0	0	1011418	684	0	correct_rejection	NA	0
1	Correct	61	61	1195	9	0	0	1012135	683	0	correct_rejection	NA	0
1	Correct	62	62	1196	8	0	0	1012852	683	0	correct_rejection	NA	0
1	Correct	63	63	1197	7	0	0	1013568	684	0	correct_rejection	NA	0
1	Correct	64	64	1198	9	0	0	1014285	683	0	correct_rejection	NA	0
1	Correct	65	65	1199	8	0	0	1015002	683	0	correct_rejection	NA	0
1	Correct	66	66	1200	7	0	0	1015718	684	0	correct_rejection	NA	0
1	Correct	67	67	1201	9	0	0	1016435	683	0	correct_rejection	NA	0
1	Correct	68	68	1202	8	0	0	1017152	683	0	correct_rejection	NA	0
1	Correct	69	69	1203	7	0	0	1017868	684	0	correct_rejection	NA	0
1	Correct	70	70	1204	7	0	0	1018585	683	0	correct_rejection	NA	0
1	Correct	71	71	1205	8	0	0	1019301	684	0	correct_rejection	NA	0
1	Correct	72	72	1206	9	0	0	1020018	683	0	correct_rejection	NA	0
1	Correct	73	73	1207	7	0	0	1020735	683	0	correct_rejection	NA	0
1	Correct	74	74	1208	8	0	0	1021451	684	0	correct_rejection	NA	0
1	Correct	75	75	1209	9	0	0	1022168	683	0	correct_rejection	NA	0
1	Correct	76	76	1210	7	0	0	1022885	683	0	correct_rejection	NA	0
1	Correct	77	77	1211	8	0	0	1023601	684	0	correct_rejection	NA	0
1	Correct	78	78	1212	9	0	0	1024318	683	0	correct_rejection	NA	0
1	Correct	79	79	1213	4	0	0	1025035	683	0	correct_rejection	NA	0
1	Correct	80	80	1214	0	1	1	1025751	684	0	miss	NA	0
1	Correct	81	81	1215	5	0	0	1026468	683	0	correct_rejection	NA	0
1	Correct	82	82	1216	6	0	0	1027185	683	0	correct_rejection	NA	0
1	Correct	83	83	1217	4	0	0	1027901	684	0	correct_rejection	NA	0
1	Correct	84	84	1218	5	0	0	1028618	683	0	correct_rejection	NA	0
1	Correct	85	85	1219	6	0	0	1029335	683	0	correct_rejection	NA	0
1	Correct	86	86	1220	4	0	0	1030051	684	0	correct_rejection	NA	0
1	Correct	87	87	1221	0	1	1	1030768	683	1	hit	409	0
1	Correct	88	88	1222	5	0	0	1031485	683	0	correct_rejection	NA	0
1	Correct	89	89	1223	6	0	0	1032201	684	0	correct_rejection	NA	0
1	Correct	90	90	1224	6	0	0	1032918	683	0	correct_rejection	NA	0
1	Correct	91	91	1225	5	0	0	1033635	683	0	correct_rejection	NA	0
1	Correct	92	92	1226	0	1	1	1034351	684	1	hit	398	0
1	Correct	93	93	1227	4	0	0	1035068	683	0	correct_rejection	NA	0
1	Correct	94	94	1228	6	0	0	1035785	683	0	correct_rejection	NA	0
1	Correct	95	95	1229	5	0	0	1036501	684	0	correct_rejection	NA	0
1	Correct	96	96	1230	0	1	1	1037218	683	1	hit	425	0
1	Correct	97	97	1231	4	0	0	1037935	683	0	correct_rejection	NA	0
1	Correct	98	98	1232	6	0	0	1038651	684	0	correct_rejection	NA	0
1	Correct	99	99	1233	5	0	0	1039368	683	0	correct_rejection	NA	0
1	Correct	100	100	1234	4	0	0	1040085	683	0	correct_rejection	NA	0
1	Correct	101	101	1235	9	0	0	1040801	684	0	correct_rejection	NA	0
1	Correct	102	102	1236	0	1	1	1041518	683	1	hit	352	0
1	Correct	103	103	1237	8	0	0	1042234	684	0	correct_rejection	NA	0
1	Correct	104	104	1238	7	0	0	1042951	684	0	correct_rejection	NA	0
1	Correct	105	105	1239	9	0	0	1043668	683	0	correct_rejection	NA	0
1	Correct	106	106	1240	8	0	0	1044384	684	0	correct_rejection	NA	0
1	Correct	107	107	1241	7	0	0	1045101	683	0	correct_rejection	NA	0
1	Correct	108	108	1242	9	0	0	1045818	683	0	correct_rejection	NA	0
1	Correct	109	109	1243	8	0	0	1046534	684	0	correct_rejection	NA	0
1	Correct	110	110	1244	0	1	1	1047251	683	0	miss	NA	0
1	Correct	111	111	1245	7	0	0	1047968	683	1	false_alarm	57	0
1	Correct	112	112	1246	7	0	0	1048684	684	0	correct_rejection	NA	0
1	Correct	113	113	1247	8	0	0	1049401	683	0	correct_rejection	NA	0
1	Correct	114	114	1248	9	0	0	1050118	683	0	correct_rejection	NA	0
1	Correct	115	115	1249	7	0	0	1050834	684	0	correct_rejection	NA	0
1	Correct	116	116	1250	8	0	0	1051551	683	0	correct_rejection	NA	0
1	Correct	117	117	1251	9	0	0	1052268	683	0	correct_rejection	NA	0
1	Correct	118	118	1252	7	0	0	1052984	684	0	correct_rejection	NA	0
1	Correct	119	119	1253	8	0	0	1053701	683	0	correct_rejection	NA	0
1	Correct	120	120	1254	0	1	1	1054418	683	1	hit	355	0
1	Correct	121	121	1255	9	0	0	1055134	684	0	correct_rejection	NA	0
1	Correct	122	122	1256	4	0	0	1055851	683	0	correct_rejection	NA	0
1	Correct	123	123	1257	5	0	0	1056568	683	0	correct_rejection	NA	0
1	Correct	124	124	1258	6	0	0	1057284	684	0	correct_rejection	NA	0
1	Correct	125	125	1259	4	0	0	1058001	683	0	correct_rejection	NA	0
1	Correct	126	126	1260	5	0	0	1058718	683	0	correct_rejection	NA	0
1	Correct	127	127	1261	6	0	0	1059434	684	0	correct_rejection	NA	0
1	Correct	128	128	1262	4	0	0	1060151	683	0	correct_rejection	NA	0
1	Correct	129	129	1263	5	0	0	1060868	683	0	correct_rejection	NA	0
1	Correct	130	130	1264	0	1	1	1061584	684	1	hit	468	0
1	Correct	131	131	1265	6	0	0	1062301	683	0	correct_rejection	NA	0
1	Correct	132	132	1266	6	0	0	1063018	683	0	correct_rejection	NA	0
1	Correct	133	133	1267	0	1	1	1063734	684	1	hit	418	0
1	Correct	134	134	1268	5	0	0	1064451	683	0	correct_rejection	NA	0
1	Correct	135	135	1269	4	0	0	1065167	684	0	correct_rejection	NA	0
1	Correct	136	136	1270	6	0	0	1065884	684	0	correct_rejection	NA	0
1	Correct	137	137	1271	5	0	0	1066601	683	0	correct_rejection	NA	0
1	Correct	138	138	1272	4	0	0	1067317	684	0	correct_rejection	NA	0
1	Correct	139	139	1273	0	1	2	1068034	683	1	hit	273	0
1	Correct	140	140	1274	6	0	0	1068751	683	0	correct_rejection	NA	0
1	Correct	141	141	1275	5	0	0	1069467	684	0	correct_rejection	NA	0
1	Correct	142	142	1276	4	0	0	1070184	683	0	correct_rejection	NA	0
1	Correct	143	143	1277	9	0	0	1070901	683	0	correct_rejection	NA	0
1	Correct	144	144	1278	8	0	0	1071617	684	0	correct_rejection	NA	0
1	Correct	145	145	1279	7	0	0	1072334	683	0	correct_rejection	NA	0
1	Correct	146	146	1280	9	0	0	1073051	683	0	correct_rejection	NA	0
1	Correct	147	147	1281	8	0	0	1073767	684	0	correct_rejection	NA	0
1	Correct	148	148	1282	7	0	0	1074484	683	0	correct_rejection	NA	0
1	Correct	149	149	1283	9	0	0	1075201	683	0	correct_rejection	NA	0
1	Correct	150	150	1284	0	1	1	1075917	684	1	hit	368	0
1	Correct	151	151	1285	8	0	0	1076634	683	0	correct_rejection	NA	0
1	Correct	152	152	1286	7	0	0	1077351	683	0	correct_rejection	NA	0
1	Correct	153	153	1287	7	0	0	1078067	684	0	correct_rejection	NA	0
1	Correct	154	154	1288	8	0	0	1078784	683	0	correct_rejection	NA	0
1	Correct	155	155	1289	9	0	0	1079501	683	0	correct_rejection	NA	0
1	Correct	156	156	1290	0	1	2	1080217	684	1	hit	441	0
1	Correct	157	157	1291	7	0	0	1080934	683	0	correct_rejection	NA	0
1	Correct	158	158	1292	8	0	0	1081651	683	0	correct_rejection	NA	0
1	Correct	159	159	1293	9	0	0	1082367	684	0	correct_rejection	NA	0
1	Correct	160	160	1294	7	0	0	1083084	683	0	correct_rejection	NA	0
1	Correct	161	161	1295	8	0	0	1083801	683	0	correct_rejection	NA	0
1	Correct	162	162	1296	9	0	0	1084517	684	0	correct_rejection	NA	0
1	Single	1	325	1297	9	0	0	1092850	684	0	correct_rejection	NA	7570
1	Single	2	326	1298	5	0	0	1093567	683	0	correct_rejection	NA	0
1	Single	3	327	1299	7	0	0	1094284	683	0	correct_rejection	NA	0
1	Single	4	328	1300	6	0	0	1095000	684	0	correct_rejection	NA	0
1	Single	5	329	1301	0	1	1	1095717	683	1	hit	549	0
1	Single	6	330	1302	9	0	0	1096434	683	0	correct_rejection	NA	0
1	Single	7	331	1303	4	0	0	1097150	684	0	correct_rejection	NA	0
1	Single	8	332	1304	4	0	0	1097867	683	0	correct_rejection	NA	0
1	Single	9	333	1305	7	0	0	1098584	683	0	correct_rejection	NA	0
1	Single	10	334	1306	8	0	0	1099300	684	0	correct_rejection	NA	0
1	Single	11	335	1307	5	0	0	1100017	683	0	correct_rejection	NA	0
1	Single	12	336	1308	9	0	0	1100734	683	0	correct_rejection	NA	0
1	Single	13	337	1309	0	1	1	1101450	684	1	hit	450	0
1	Single	14	338	1310	8	0	0	1102167	683	0	correct_rejection	NA	0
1	Single	15	339	1311	6	0	0	1102884	683	0	correct_rejection	NA	0
1	Single	16	340	1312	7	0	0	1103600	684	0	correct_rejection	NA	0
1	Single	17	341	1313	4	0	0	1104317	683	0	correct_rejection	NA	0
1	Single	18	342	1314	0	1	1	1105034	683	1	hit	418	0
1	Single	19	343	1315	5	0	0	1105750	684	0	correct_rejection	NA	0
1	Single	20	344	1316	8	0	0	1106467	683	0	correct_rejection	NA	0
1	Single	21	345	1317	8	0	0	1107184	683	0	correct_rejection	NA	0
1	Single	22	346	1318	9	0	0	1107900	684	0	correct_rejection	NA	0
1	Single	23	347	1319	7	0	0	1108617	683	0	correct_rejection	NA	0
1	Single	24	348	1320	5	0	0	1109334	683	0	correct_rejection	NA	0
1	Single	25	349	1321	5	0	0	1110050	684	0	correct_rejection	NA	0
1	Single	26	350	1322	4	0	0	1110767	683	0	correct_rejection	NA	0
1	Single	27	351	1323	9	0	0	1111483	684	0	correct_rejection	NA	0
1	Single	28	352	1324	9	0	0	1112200	684	0	correct_rejection	NA	0
1	Single	29	353	1325	6	0	0	1112917	683	0	correct_rejection	NA	0
1	Single	30	354	1326	8	0	0	1113633	684	0	correct_rejection	NA	0
1	Single	31	355	1327	4	0	0	1114350	683	0	correct_rejection	NA	0
1	Single	32	356	1328	6	0	0	1115067	683	0	correct_rejection	NA	0
1	Single	33	357	1329	0	1	1	1115783	684	1	hit	289	0
1	Single	34	358	1330	6	0	0	1116500	683	0	correct_rejection	NA	0
1	Single	35	359	1331	5	0	0	1117217	683	0	correct_rejection	NA	0
1	Single	36	360	1332	6	0	0	1117933	684	0	correct_rejection	NA	0
1	Single	37	361	1333	4	0	0	1118650	683	0	correct_rejection	NA	0
1	Single	38	362	1334	8	0	0	1119367	683	0	correct_rejection	NA	0
1	Single	39	363	1335	7	0	0	1120083	684	0	correct_rejection	NA	0
1	Single	40	364	1336	7	0	0	1120800	683	0	correct_rejection	NA	0
1	Single	41	365	1337	5	0	0	1121517	683	0	correct_rejection	NA	0
1	Single	42	366	1338	8	0	0	1122233	684	0	correct_rejection	NA	0
1	Single	43	367	1339	4	0	0	1122950	683	0	correct_rejection	NA	0
1	Single	44	368	1340	5	0	0	1123667	683	0	correct_rejection	NA	0
1	Single	45	369	1341	6	0	0	1124383	684	0	correct_rejection	NA	0
1	Single	46	370	1342	8	0	0	1125100	683	0	correct_rejection	NA	0
1	Single	47	371	1343	6	0	0	1125817	683	0	correct_rejection	NA	0
1	Single	48	372	1344	6	0	0	1126533	684	0	correct_rejection	NA	0
1	Single	49	373	1345	0	1	1	1127250	683	1	hit	375	0
1	Single	50	374	1346	4	0	0	1127967	683	0	correct_rejection	NA	0
1	Single	51	375	1347	7	0	0	1128683	684	0	correct_rejection	NA	0
1	Single	52	376	1348	9	0	0	1129400	683	0	correct_rejection	NA	0
1	Single	53	377	1349	0	1	1	1130117	683	0	miss	NA	0
1	Single	54	378	1350	7	0	0	1130833	684	0	correct_rejection	NA	0
1	Single	55	379	1351	7	0	0	1131550	683	0	correct_rejection	NA	0
1	Single	56	380	1352	8	0	0	1132267	683	0	correct_rejection	NA	0
1	Single	57	381	1353	0	1	1	1132983	684	1	hit	529	0
1	Single	58	382	1354	7	0	0	1133700	683	0	correct_rejection	NA	0
1	Single	59	383	1355	4	0	0	1134417	683	0	correct_rejection	NA	0
1	Single	60	384	1356	0	1	1	1135133	684	0	miss	NA	0
1	Single	61	385	1357	9	0	0	1135850	683	0	correct_rejection	NA	0
1	Single	62	386	1358	8	0	0	1136566	684	0	correct_rejection	NA	0
1	Single	63	387	1359	9	0	0	1137283	683	0	correct_rejection	NA	0
1	Single	64	388	1360	5	0	0	1138000	683	0	correct_rejection	NA	0
1	Single	65	389	1361	5	0	0	1138716	684	0	correct_rejection	NA	0
1	Single	66	390	1362	7	0	0	1139433	683	0	correct_rejection	NA	0
1	Single	67	391	1363	5	0	0	1140150	683	0	correct_rejection	NA	0
1	Single	68	392	1364	9	0	0	1140866	684	0	correct_rejection	NA	0
1	Single	69	393	1365	6	0	0	1141583	683	0	correct_rejection	NA	0
1	Single	70	394	1366	9	0	0	1142300	683	0	correct_rejection	NA	0
1	Single	71	395	1367	9	0	0	1143016	684	0	correct_rejection	NA	0
1	Single	72	396	1368	4	0	0	1143733	683	0	correct_rejection	NA	0
1	Single	73	397	1369	6	0	0	1144450	683	0	correct_rejection	NA	0
1	Single	74	398	1370	7	0	0	1145166	684	0	correct_rejection	NA	0
1	Single	75	399	1371	6	0	0	1145883	683	0	correct_rejection	NA	0
1	Single	76	400	1372	5	0	0	1146600	683	0	correct_rejection	NA	0
1	Single	77	401	1373	0	1	1	1147316	684	0	miss	NA	0
1	Single	78	402	1374	4	0	0	1148033	683	1	false_alarm	219	0
1	Single	79	403	1375	4	0	0	1148750	683	0	correct_rejection	NA	0
1	Single	80	404	1376	8	0	0	1149466	684	0	correct_rejection	NA	0
1	Single	81	405	1377	8	0	0	1150183	683	0	correct_rejection	NA	0
1	Single	82	406	1378	0	1	1	1150900	683	1	hit	420	0
1	Single	83	407	1379	8	0	0	1151616	684	0	correct_rejection	NA	0
1	Single	84	408	1380	4	0	0	1152333	683	0	correct_rejection	NA	0
1	Single	85	409	1381	9	0	0	1153050	683	0	correct_rejection	NA	0
1	Single	86	410	1382	7	0	0	1153766	684	0	correct_rejection	NA	0
1	Single	87	411	1383	4	0	0	1154483	683	0	correct_rejection	NA	0
1	Single	88	412	1384	8	0	0	1155200	683	0	correct_rejection	NA	0
1	Single	89	413	1385	9	0	0	1155916	684	0	correct_rejection	NA	0
1	Single	90	414	1386	4	0	0	1156633	683	0	correct_rejection	NA	0
1	Single	91	415	1387	7	0	0	1157350	683	0	correct_rejection	NA	0
1	Single	92	416	1388	6	0	0	1158066	684	0	correct_rejection	NA	0
1	Single	93	417	1389	6	0	0	1158783	683	0	correct_rejection	NA	0
1	Single	94	418	1390	0	1	1	1159499	684	1	hit	412	0
1	Single	95	419	1391	8	0	0	1160216	683	0	correct_rejection	NA	0
1	Single	96	420	1392	8	0	0	1160933	683	0	correct_rejection	NA	0
1	Single	97	421	1393	5	0	0	1161649	684	0	correct_rejection	NA	0
1	Single	98	422	1394	5	0	0	1162366	683	0	correct_rejection	NA	0
1	Single	99	423	1395	6	0	0	1163083	683	0	correct_rejection	NA	0
1	Single	100	424	1396	0	1	1	1163799	684	1	hit	432	0
1	Single	101	425	1397	7	0	0	1164516	683	0	correct_rejection	NA	0
1	Single	102	426	1398	9	0	0	1165233	683	0	correct_rejection	NA	0
1	Single	103	427	1399	6	0	0	1165949	684	0	correct_rejection	NA	0
1	Single	104	428	1400	4	0	0	1166666	683	0	correct_rejection	NA	0
1	Single	105	429	1401	4	0	0	1167383	683	0	correct_rejection	NA	0
1	Single	106	430	1402	6	0	0	1168099	684	0	correct_rejection	NA	0
1	Single	107	431	1403	9	0	0	1168816	683	0	correct_rejection	NA	0
1	Single	108	432	1404	5	0	0	1169533	683	0	correct_rejection	NA	0
1	Single	109	433	1405	4	0	0	1170249	684	0	correct_rejection	NA	0
1	Single	110	434	1406	5	0	0	1170966	683	0	correct_rejection	NA	0
1	Single	111	435	1407	9	0	0	1171683	683	0	correct_rejection	NA	0
1	Single	112	436	1408	9	0	0	1172399	684	0	correct_rejection	NA	0
1	Single	113	437	1409	8	0	0	1173116	683	0	correct_rejection	NA	0
1	Single	114	438	1410	7	0	0	1173833	683	0	correct_rejection	NA	0
1	Single	115	439	1411	8	0	0	1174549	684	0	correct_rejection	NA	0
1	Single	116	440	1412	6	0	0	1175266	683	0	correct_rejection	NA	0
1	Single	117	441	1413	5	0	0	1175983	683	0	correct_rejection	NA	0
1	Single	118	442	1414	7	0	0	1176699	684	0	correct_rejection	NA	0
1	Single	119	443	1415	7	0	0	1177416	683	0	correct_rejection	NA	0
1	Single	120	444	1416	5	0	0	1178133	683	0	correct_rejection	NA	0
1	Single	121	445	1417	8	0	0	1178849	684	0	correct_rejection	NA	0
1	Single	122	446	1418	7	0	0	1179566	683	0	correct_rejection	NA	0
1	Single	123	447	1419	9	0	0	1180282	684	0	correct_rejection	NA	0
1	Single	124	448	1420	0	1	1	1180999	684	1	hit	303	0
1	Single	125	449	1421	9	0	0	1181716	683	0	correct_rejection	NA	0
1	Single	126	450	1422	6	0	0	1182432	684	0	correct_rejection	NA	0
1	Single	127	451	1423	0	1	1	1183149	683	1	hit	370	0
1	Single	128	452	1424	5	0	0	1183866	683	0	correct_rejection	NA	0
1	Single	129	453	1425	5	0	0	1184582	684	0	correct_rejection	NA	0
1	Single	130	454	1426	9	0	0	1185299	683	0	correct_rejection	NA	0
1	Single	131	455	1427	4	0	0	1186016	683	0	correct_rejection	NA	0
1	Single	132	456	1428	9	0	0	1186732	684	0	correct_rejection	NA	0
1	Single	133	457	1429	5	0	0	1187449	683	0	correct_rejection	NA	0
1	Single	134	458	1430	7	0	0	1188166	683	0	correct_rejection	NA	0
1	Single	135	459	1431	4	0	0	1188882	684	0	correct_rejection	NA	0
1	Single	136	460	1432	4	0	0	1189599	683	0	correct_rejection	NA	0
1	Single	137	461	1433	5	0	0	1190316	683	0	correct_rejection	NA	0
1	Single	138	462	1434	8	0	0	1191032	684	0	correct_rejection	NA	0
1	Single	139	463	1435	8	0	0	1191749	683	0	correct_rejection	NA	0
1	Single	140	464	1436	0	1	1	1192466	683	1	hit	506	0
1	Single	141	465	1437	9	0	0	1193182	684	0	correct_rejection	NA	0
1	Single	142	466	1438	7	0	0	1193899	683	0	correct_rejection	NA	0
1	Single	143	467	1439	8	0	0	1194616	683	0	correct_rejection	NA	0
1	Single	144	468	1440	4	0	0	1195332	684	0	correct_rejection	NA	0
1	Single	145	469	1441	8	0	0	1196049	683	0	correct_rejection	NA	0
1	Single	146	470	1442	6	0	0	1196766	683	0	correct_rejection	NA	0
1	Single	147	471	1443	9	0	0	1197482	684	0	correct_rejection	NA	0
1	Single	148	472	1444	8	0	0	1198199	683	0	correct_rejection	NA	0
1	Single	149	473	1445	0	1	1	1198916	683	1	hit	311	0
1	Single	150	474	1446	5	0	0	1199632	684	0	correct_rejection	NA	0
1	Single	151	475	1447	4	0	0	1200349	683	0	correct_rejection	NA	0
1	Single	152	476	1448	0	1	1	1201066	683	0	miss	NA	0
1	Single	153	477	1449	7	0	0	1201782	684	1	false_alarm	170	0
1	Single	154	478	1450	5	0	0	1202499	683	0	correct_rejection	NA	0
1	Single	155	479	1451	0	1	1	1203216	683	1	hit	271	0
1	Single	156	480	1452	6	0	0	1203932	684	0	correct_rejection	NA	0
1	Single	157	481	1453	6	0	0	1204649	683	0	correct_rejection	NA	0
1	Single	158	482	1454	7	0	0	1205365	684	0	correct_rejection	NA	0
1	Single	159	483	1455	7	0	0	1206082	683	0	correct_rejection	NA	0
1	Single	160	484	1456	6	0	0	1206799	683	0	correct_rejection	NA	0
1	Single	161	485	1457	4	0	0	1207515	684	0	correct_rejection	NA	0
1	Single	162	486	1458	6	0	0	1208232	683	0	correct_rejection	NA	0
1	Triplet	1	649	1459	4	0	0	1218232	683	0	correct_rejection	NA	9234
1	Triplet	2	650	1460	5	0	0	1218949	683	0	correct_rejection	NA	0
1	Triplet	3	651	1461	6	0	0	1219665	684	0	correct_rejection	NA	0
1	Triplet	4	652	1462	6	0	0	1220382	683	0	correct_rejection	NA	0
1	Triplet	5	653	1463	5	0	0	1221099	683	0	correct_rejection	NA	0
1	Triplet	6	654	1464	4	0	0	1221815	684	0	correct_rejection	NA	0
1	Triplet	7	655	1465	4	0	0	1222532	683	0	correct_rejection	NA	0
1	Triplet	8	656	1466	5	0	0	1223249	683	0	correct_rejection	NA	0
1	Triplet	9	657	1467	6	0	0	1223965	684	0	correct_rejection	NA	0
1	Triplet	10	658	1468	9	0	0	1224682	683	0	correct_rejection	NA	0
1	Triplet	11	659	1469	0	1	1	1225399	683	1	hit	490	0
1	Triplet	12	660	1470	8	0	0	1226115	684	0	correct_rejection	NA	0
1	Triplet	13	661	1471	7	0	0	1226832	683	0	correct_rejection	NA	0
1	Triplet	14	662	1472	6	0	0	1227548	684	0	correct_rejection	NA	0
1	Triplet	15	663	1473	0	1	1	1228265	684	1	hit	299	0
1	Triplet	16	664	1474	5	0	0	1228982	683	0	correct_rejection	NA	0
1	Triplet	17	665	1475	4	0	0	1229698	684	0	correct_rejection	NA	0
1	Triplet	18	666	1476	6	0	0	1230415	683	0	correct_rejection	NA	0
1	Triplet	19	667	1477	5	0	0	1231132	683	0	correct_rejection	NA	0
1	Triplet	20	668	1478	4	0	0	1231848	684	0	correct_rejection	NA	0
1	Triplet	21	669	1479	7	0	0	1232565	683	0	correct_rejection	NA	0
1	Triplet	22	670	1480	8	0	0	1233282	683	0	correct_rejection	NA	0
1	Triplet	23	671	1481	9	0	0	1233998	684	0	correct_rejection	NA	0
1	Triplet	24	672	1482	6	0	0	1234715	683	0	correct_rejection	NA	0
1	Triplet	25	673	1483	0	1	1	1235432	683	1	hit	325	0
1	Triplet	26	674	1484	5	0	0	1236148	684	0	correct_rejection	NA	0
1	Triplet	27	675	1485	4	0	0	1236865	683	0	correct_rejection	NA	0
1	Triplet	28	676	1486	9	0	0	1237582	683	0	correct_rejection	NA	0
1	Triplet	29	677	1487	8	0	0	1238298	684	0	correct_rejection	NA	0
1	Triplet	30	678	1488	7	0	0	1239015	683	0	correct_rejection	NA	0
1	Triplet	31	679	1489	7	0	0	1239732	683	0	correct_rejection	NA	0
1	Triplet	32	680	1490	8	0	0	1240448	684	0	correct_rejection	NA	0
1	Triplet	33	681	1491	9	0	0	1241165	683	0	correct_rejection	NA	0
1	Triplet	34	682	1492	4	0	0	1241882	683	0	correct_rejection	NA	0
1	Triplet	35	683	1493	5	0	0	1242598	684	0	correct_rejection	NA	0
1	Triplet	36	684	1494	6	0	0	1243315	683	0	correct_rejection	NA	0
1	Triplet	37	685	1495	4	0	0	1244032	683	0	correct_rejection	NA	0
1	Triplet	38	686	1496	5	0	0	1244748	684	0	correct_rejection	NA	0
1	Triplet	39	687	1497	0	1	1	1245465	683	1	hit	409	0
1	Triplet	40	688	1498	6	0	0	1246182	683	0	correct_rejection	NA	0
1	Triplet	41	689	1499	7	0	0	1246898	684	0	correct_rejection	NA	0
1	Triplet	42	690	1500	8	0	0	1247615	683	0	correct_rejection	NA	0
1	Triplet	43	691	1501	9	0	0	1248332	683	0	correct_rejection	NA	0
1	Triplet	44	692	1502	7	0	0	1249048	684	0	correct_rejection	NA	0
1	Triplet	45	693	1503	8	0	0	1249765	683	0	correct_rejection	NA	0
1	Triplet	46	694	1504	9	0	0	1250481	684	0	correct_rejection	NA	0
1	Triplet	47	695	1505	9	0	0	1251198	684	0	correct_rejection	NA	0
1	Triplet	48	696	1506	8	0	0	1251915	683	0	correct_rejection	NA	0
1	Triplet	49	697	1507	0	1	1	1252631	684	1	hit	411	0
1	Triplet	50	698	1508	7	0	0	1253348	683	0	correct_rejection	NA	0
1	Triplet	51	699	1509	9	0	0	1254065	683	0	correct_rejection	NA	0
1	Triplet	52	700	1510	8	0	0	1254781	684	0	correct_rejection	NA	0
1	Triplet	53	701	1511	7	0	0	1255498	683	0	correct_rejection	NA	0
1	Triplet	54	702	1512	7	0	0	1256215	683	0	correct_rejection	NA	0
1	Triplet	55	703	1513	0	1	1	1256931	684	1	hit	310	0
1	Triplet	56	704	1514	8	0	0	1257648	683	0	correct_rejection	NA	0
1	Triplet	57	705	1515	9	0	0	1258365	683	0	correct_rejection	NA	0
1	Triplet	58	706	1516	7	0	0	1259081	684	0	correct_rejection	NA	0
1	Triplet	59	707	1517	8	0	0	1259798	683	0	correct_rejection	NA	0
1	Triplet	60	708	1518	0	1	1	1260515	683	1	hit	433	0
1	Triplet	61	709	1519	9	0	0	1261231	684	0	correct_rejection	NA	0
1	Triplet	62	710	1520	6	0	0	1261948	683	0	correct_rejection	NA	0
1	Triplet	63	711	1521	5	0	0	1262665	683	0	correct_rejection	NA	0
1	Triplet	64	712	1522	4	0	0	1263381	684	0	correct_rejection	NA	0
1	Triplet	65	713	1523	6	0	0	1264098	683	0	correct_rejection	NA	0
1	Triplet	66	714	1524	5	0	0	1264815	683	0	correct_rejection	NA	0
1	Triplet	67	715	1525	4	0	0	1265531	684	0	correct_rejection	NA	0
1	Triplet	68	716	1526	0	1	2	1266248	683	1	hit	348	0
1	Triplet	69	717	1527	4	0	0	1266965	683	0	correct_rejection	NA	0
1	Triplet	70	718	1528	5	0	0	1267681	684	0	correct_rejection	NA	0
1	Triplet	71	719	1529	6	0	0	1268398	683	0	correct_rejection	NA	0
1	Triplet	72	720	1530	4	0	0	1269115	683	0	correct_rejection	NA	0
1	Triplet	73	721	1531	5	0	0	1269831	684	0	correct_rejection	NA	0
1	Triplet	74	722	1532	6	0	0	1270548	683	0	correct_rejection	NA	0
1	Triplet	75	723	1533	6	0	0	1271265	683	0	correct_rejection	NA	0
1	Triplet	76	724	1534	5	0	0	1271981	684	0	correct_rejection	NA	0
1	Triplet	77	725	1535	0	1	1	1272698	683	1	hit	318	0
1	Triplet	78	726	1536	4	0	0	1273414	684	0	correct_rejection	NA	0
1	Triplet	79	727	1537	7	0	0	1274131	684	0	correct_rejection	NA	0
1	Triplet	80	728	1538	8	0	0	1274848	683	0	correct_rejection	NA	0
1	Triplet	81	729	1539	9	0	0	1275564	684	0	correct_rejection	NA	0
1	Triplet	82	730	1540	4	0	0	1276281	683	0	correct_rejection	NA	0
1	Triplet	83	731	1541	5	0	0	1276998	683	0	correct_rejection	NA	0
1	Triplet	84	732	1542	6	0	0	1277714	684	0	correct_rejection	NA	0
1	Triplet	85	733	1543	9	0	0	1278431	683	0	correct_rejection	NA	0
1	Triplet	86	734	1544	8	0	0	1279148	683	0	correct_rejection	NA	0
1	Triplet	87	735	1545	7	0	0	1279864	684	0	correct_rejection	NA	0
1	Triplet	88	736	1546	9	0	0	1280581	683	0	correct_rejection	NA	0
1	Triplet	89	737	1547	8	0	0	1281298	683	0	correct_rejection	NA	0
1	Triplet	90	738	1548	7	0	0	1282014	684	0	correct_rejection	NA	0
1	Triplet	91	739	1549	7	0	0	1282731	683	0	correct_rejection	NA	0
1	Triplet	92	740	1550	8	0	0	1283448	683	0	correct_rejection	NA	0
1	Triplet	93	741	1551	9	0	0	1284164	684	0	correct_rejection	NA	0
1	Triplet	94	742	1552	9	0	0	1284881	683	0	correct_rejection	NA	0
1	Triplet	95	743	1553	8	0	0	1285598	683	0	correct_rejection	NA	0
1	Triplet	96	744	1554	7	0	0	1286314	684	0	correct_rejection	NA	0
1	Triplet	97	745	1555	6	0	0	1287031	683	0	correct_rejection	NA	0
1	Triplet	98	746	1556	5	0	0	1287748	683	0	correct_rejection	NA	0
1	Triplet	99	747	1557	4	0	0	1288464	684	0	correct_rejection	NA	0
1	Triplet	100	748	1558	9	0	0	1289181	683	0	correct_rejection	NA	0
1	Triplet	101	749	1559	8	0	0	1289898	683	0	correct_rejection	NA	0
1	Triplet	102	750	1560	0	1	1	1290614	684	1	hit	386	0
1	Triplet	103	751	1561	7	0	0	1291331	683	0	correct_rejection	NA	0
1	Triplet	104	752	1562	4	0	0	1292048	683	0	correct_rejection	NA	0
1	Triplet	105	753	1563	5	0	0	1292764	684	0	correct_rejection	NA	0
1	Triplet	106	754	1564	6	0	0	1293481	683	0	correct_rejection	NA	0
1	Triplet	107	755	1565	7	0	0	1294198	683	0	correct_rejection	NA	0
1	Triplet	108	756	1566	8	0	0	1294914	684	0	correct_rejection	NA	0
1	Triplet	109	757	1567	9	0	0	1295631	683	0	correct_rejection	NA	0
1	Triplet	110	758	1568	0	1	2	1296347	684	1	hit	556	0
1	Triplet	111	759	1569	9	0	0	1297064	684	0	correct_rejection	NA	0
1	Triplet	112	760	1570	8	0	0	1297781	683	0	correct_rejection	NA	0
1	Triplet	113	761	1571	7	0	0	1298497	684	0	correct_rejection	NA	0
1	Triplet	114	762	1572	4	0	0	1299214	683	0	correct_rejection	NA	0
1	Triplet	115	763	1573	5	0	0	1299931	683	0	correct_rejection	NA	0
1	Triplet	116	764	1574	6	0	0	1300647	684	0	correct_rejection	NA	0
1	Triplet	117	765	1575	0	1	2	1301364	683	1	hit	319	0
1	Triplet	118	766	1576	4	0	0	1302081	683	0	correct_rejection	NA	0
1	Triplet	119	767	1577	5	0	0	1302797	684	0	correct_rejection	NA	0
1	Triplet	120	768	1578	6	0	0	1303514	683	0	correct_rejection	NA	0
1	Triplet	121	769	1579	9	0	0	1304231	683	0	correct_rejection	NA	0
1	Triplet	122	770	1580	8	0	0	1304947	684	0	correct_rejection	NA	0
1	Triplet	123	771	1581	0	1	1	1305664	683	1	hit	352	0
1	Triplet	124	772	1582	7	0	0	1306381	683	0	correct_rejection	NA	0
1	Triplet	125	773	1583	7	0	0	1307097	684	0	correct_rejection	NA	0
1	Triplet	126	774	1584	8	0	0	1307814	683	0	correct_rejection	NA	0
1	Triplet	127	775	1585	9	0	0	1308531	683	0	correct_rejection	NA	0
1	Triplet	128	776	1586	0	1	2	1309247	684	1	hit	372	0
1	Triplet	129	777	1587	6	0	0	1309964	683	0	correct_rejection	NA	0
1	Triplet	130	778	1588	5	0	0	1310681	683	0	correct_rejection	NA	0
1	Triplet	131	779	1589	4	0	0	1311397	684	0	correct_rejection	NA	0
1	Triplet	132	780	1590	7	0	0	1312114	683	0	correct_rejection	NA	0
1	Triplet	133	781	1591	8	0	0	1312831	683	0	correct_rejection	NA	0
1	Triplet	134	782	1592	9	0	0	1313547	684	0	correct_rejection	NA	0
1	Triplet	135	783	1593	7	0	0	1314264	683	0	correct_rejection	NA	0
1	Triplet	136	784	1594	8	0	0	1314981	683	0	correct_rejection	NA	0
1	Triplet	137	785	1595	9	0	0	1315697	684	0	correct_rejection	NA	0
1	Triplet	138	786	1596	4	0	0	1316414	683	0	correct_rejection	NA	0
1	Triplet	139	787	1597	0	1	1	1317131	683	1	hit	304	0
1	Triplet	140	788	1598	5	0	0	1317847	684	0	correct_rejection	NA	0
1	Triplet	141	789	1599	6	0	0	1318564	683	0	correct_rejection	NA	0
1	Triplet	142	790	1600	0	1	2	1319280	684	1	hit	384	0
1	Triplet	143	791	1601	6	0	0	1319997	684	0	correct_rejection	NA	0
1	Triplet	144	792	1602	5	0	0	1320714	683	0	correct_rejection	NA	0
1	Triplet	145	793	1603	4	0	0	1321430	684	0	correct_rejection	NA	0
1	Triplet	146	794	1604	6	0	0	1322147	683	0	correct_rejection	NA	0
1	Triplet	147	795	1605	5	0	0	1322864	683	0	correct_rejection	NA	0
1	Triplet	148	796	1606	4	0	0	1323580	684	0	correct_rejection	NA	0
1	Triplet	149	797	1607	0	1	2	1324297	683	1	hit	304	0
1	Triplet	150	798	1608	9	0	0	1325014	683	0	correct_rejection	NA	0
1	Triplet	151	799	1609	8	0	0	1325730	684	0	correct_rejection	NA	0
1	Triplet	152	800	1610	7	0	0	1326447	683	0	correct_rejection	NA	0
1	Triplet	153	801	1611	0	1	2	1327164	683	1	hit	455	0
1	Triplet	154	802	1612	9	0	0	1327880	684	0	correct_rejection	NA	0
1	Triplet	155	803	1613	8	0	0	1328597	683	0	correct_rejection	NA	0
1	Triplet	156	804	1614	7	0	0	1329314	683	0	correct_rejection	NA	0
1	Triplet	157	805	1615	6	0	0	1330030	684	0	correct_rejection	NA	0
1	Triplet	158	806	1616	5	0	0	1330747	683	0	correct_rejection	NA	0
1	Triplet	159	807	1617	4	0	0	1331464	683	0	correct_rejection	NA	0
1	Triplet	160	808	1618	4	0	0	1332180	684	0	correct_rejection	NA	0
1	Triplet	161	809	1619	5	0	0	1332897	683	0	correct_rejection	NA	0
1	Triplet	162	810	1620	6	0	0	1333614	683	0	correct_rejection	NA	0
