ID	block	trial_block	trial_cat	trial_total	number	violation	level_violation	onset	duration	Response	Hit_Miss	RT	pre_trial_fixcross_ISIfirst_trigger_at: 0
trigger nr 4 at 6000

1	Single	1	487	1	7	0	0	13454	692	0	correct_rejection	NA	43337
1	Single	2	488	2	4	0	0	14162	692	0	correct_rejection	NA	0
1	Single	3	489	3	5	0	0	14871	692	0	correct_rejection	NA	0
1	Single	4	490	4	5	0	0	15580	691	0	correct_rejection	NA	0
1	Single	5	491	5	7	0	0	16288	692	0	correct_rejection	NA	0
1	Single	6	492	6	0	1	1	16997	691	1	hit	314	0
1	Single	7	493	7	6	0	0	17705	692	0	correct_rejection	NA	0
1	Single	8	494	8	4	0	0	18414	692	0	correct_rejection	NA	0
1	Single	9	495	9	9	0	0	19122	692	0	correct_rejection	NA	0
1	Single	10	496	10	5	0	0	19831	692	0	correct_rejection	NA	0
1	Single	11	497	11	9	0	0	20540	691	0	correct_rejection	NA	0
1	Single	12	498	12	0	1	1	21248	692	1	hit	335	0
1	Single	13	499	13	4	0	0	21957	691	0	correct_rejection	NA	0
1	Single	14	500	14	8	0	0	22665	692	0	correct_rejection	NA	0
1	Single	15	501	15	5	0	0	23374	692	0	correct_rejection	NA	0
1	Single	16	502	16	8	0	0	24082	692	0	correct_rejection	NA	0
1	Single	17	503	17	4	0	0	24791	692	0	correct_rejection	NA	0
1	Single	18	504	18	7	0	0	25500	691	0	correct_rejection	NA	0
1	Single	19	505	19	8	0	0	26208	692	0	correct_rejection	NA	0
1	Single	20	506	20	6	0	0	26917	691	0	correct_rejection	NA	0
1	Single	21	507	21	8	0	0	27625	692	0	correct_rejection	NA	0
1	Single	22	508	22	9	0	0	28334	691	0	correct_rejection	NA	0
1	Single	23	509	23	7	0	0	29042	692	0	correct_rejection	NA	0
1	Single	24	510	24	5	0	0	29751	692	0	correct_rejection	NA	0
1	Single	25	511	25	6	0	0	30459	692	0	correct_rejection	NA	0
1	Single	26	512	26	9	0	0	31168	692	0	correct_rejection	NA	0
1	Single	27	513	27	6	0	0	31877	691	0	correct_rejection	NA	0
1	Single	28	514	28	6	0	0	32585	692	0	correct_rejection	NA	0
1	Single	29	515	29	0	1	1	33294	691	1	hit	322	0
1	Single	30	516	30	5	0	0	34002	692	0	correct_rejection	NA	0
1	Single	31	517	31	4	0	0	34711	692	0	correct_rejection	NA	0
1	Single	32	518	32	0	1	1	35419	692	1	hit	406	0
1	Single	33	519	33	4	0	0	36128	692	0	correct_rejection	NA	0
1	Single	34	520	34	6	0	0	36837	691	0	correct_rejection	NA	0
1	Single	35	521	35	7	0	0	37545	692	0	correct_rejection	NA	0
1	Single	36	522	36	7	0	0	38254	691	0	correct_rejection	NA	0
1	Single	37	523	37	9	0	0	38962	692	0	correct_rejection	NA	0
1	Single	38	524	38	9	0	0	39671	692	0	correct_rejection	NA	0
1	Single	39	525	39	8	0	0	40379	692	0	correct_rejection	NA	0
1	Single	40	526	40	8	0	0	41088	692	0	correct_rejection	NA	0
1	Single	41	527	41	5	0	0	41797	691	0	correct_rejection	NA	0
1	Single	42	528	42	9	0	0	42505	692	0	correct_rejection	NA	0
1	Single	43	529	43	9	0	0	43214	691	0	correct_rejection	NA	0
1	Single	44	530	44	7	0	0	43922	692	0	correct_rejection	NA	0
1	Single	45	531	45	9	0	0	44631	692	0	correct_rejection	NA	0
1	Single	46	532	46	5	0	0	45339	692	0	correct_rejection	NA	0
1	Single	47	533	47	5	0	0	46048	692	0	correct_rejection	NA	0
1	Single	48	534	48	8	0	0	46757	691	0	correct_rejection	NA	0
1	Single	49	535	49	7	0	0	47465	692	0	correct_rejection	NA	0
1	Single	50	536	50	5	0	0	48174	691	0	correct_rejection	NA	0
1	Single	51	537	51	4	0	0	48882	692	0	correct_rejection	NA	0
1	Single	52	538	52	5	0	0	49591	691	0	correct_rejection	NA	0
1	Single	53	539	53	0	1	1	50299	692	1	hit	423	0
1	Single	54	540	54	7	0	0	51008	692	0	correct_rejection	NA	0
1	Single	55	541	55	7	0	0	51716	692	0	correct_rejection	NA	0
1	Single	56	542	56	0	1	1	52425	692	1	hit	463	0
1	Single	57	543	57	4	0	0	53134	691	0	correct_rejection	NA	0
1	Single	58	544	58	9	0	0	53842	692	0	correct_rejection	NA	0
1	Single	59	545	59	6	0	0	54551	691	0	correct_rejection	NA	0
1	Single	60	546	60	7	0	0	55259	692	0	correct_rejection	NA	0
1	Single	61	547	61	8	0	0	55968	692	0	correct_rejection	NA	0
1	Single	62	548	62	4	0	0	56676	692	0	correct_rejection	NA	0
1	Single	63	549	63	6	0	0	57385	692	0	correct_rejection	NA	0
1	Single	64	550	64	5	0	0	58094	691	0	correct_rejection	NA	0
1	Single	65	551	65	0	1	1	58802	692	1	hit	370	0
1	Single	66	552	66	6	0	0	59511	691	0	correct_rejection	NA	0
1	Single	67	553	67	6	0	0	60219	692	0	correct_rejection	NA	0
1	Single	68	554	68	9	0	0	60928	692	0	correct_rejection	NA	0
1	Single	69	555	69	8	0	0	61636	692	0	correct_rejection	NA	0
1	Single	70	556	70	9	0	0	62345	692	0	correct_rejection	NA	0
1	Single	71	557	71	4	0	0	63054	691	0	correct_rejection	NA	0
1	Single	72	558	72	4	0	0	63762	692	0	correct_rejection	NA	0
1	Single	73	559	73	8	0	0	64471	691	0	correct_rejection	NA	0
1	Single	74	560	74	6	0	0	65179	692	0	correct_rejection	NA	0
1	Single	75	561	75	0	1	1	65888	692	1	hit	414	0
1	Single	76	562	76	4	0	0	66596	692	0	correct_rejection	NA	0
1	Single	77	563	77	7	0	0	67305	692	0	correct_rejection	NA	0
1	Single	78	564	78	6	0	0	68014	691	0	correct_rejection	NA	0
1	Single	79	565	79	8	0	0	68722	692	0	correct_rejection	NA	0
1	Single	80	566	80	8	0	0	69431	691	0	correct_rejection	NA	0
1	Single	81	567	81	4	0	0	70139	692	0	correct_rejection	NA	0
1	Single	82	568	82	7	0	0	70848	691	0	correct_rejection	NA	0
1	Single	83	569	83	5	0	0	71556	692	0	correct_rejection	NA	0
1	Single	84	570	84	5	0	0	72265	692	0	correct_rejection	NA	0
1	Single	85	571	85	4	0	0	72973	692	0	correct_rejection	NA	0
1	Single	86	572	86	0	1	1	73682	692	1	hit	419	0
1	Single	87	573	87	8	0	0	74391	691	0	correct_rejection	NA	0
1	Single	88	574	88	9	0	0	75099	692	0	correct_rejection	NA	0
1	Single	89	575	89	6	0	0	75808	691	0	correct_rejection	NA	0
1	Single	90	576	90	0	1	1	76516	692	1	hit	389	0
1	Single	91	577	91	9	0	0	77225	692	0	correct_rejection	NA	0
1	Single	92	578	92	9	0	0	77933	692	0	correct_rejection	NA	0
1	Single	93	579	93	0	1	1	78642	692	1	hit	384	0
1	Single	94	580	94	5	0	0	79351	691	0	correct_rejection	NA	0
1	Single	95	581	95	8	0	0	80059	692	0	correct_rejection	NA	0
1	Single	96	582	96	5	0	0	80768	691	0	correct_rejection	NA	0
1	Single	97	583	97	6	0	0	81476	692	0	correct_rejection	NA	0
1	Single	98	584	98	7	0	0	82185	692	0	correct_rejection	NA	0
1	Single	99	585	99	9	0	0	82893	692	0	correct_rejection	NA	0
1	Single	100	586	100	4	0	0	83602	692	0	correct_rejection	NA	0
1	Single	101	587	101	6	0	0	84311	691	0	correct_rejection	NA	0
1	Single	102	588	102	8	0	0	85019	692	0	correct_rejection	NA	0
1	Single	103	589	103	4	0	0	85728	691	0	correct_rejection	NA	0
1	Single	104	590	104	5	0	0	86436	692	0	correct_rejection	NA	0
1	Single	105	591	105	9	0	0	87145	692	0	correct_rejection	NA	0
1	Single	106	592	106	8	0	0	87853	692	0	correct_rejection	NA	0
1	Single	107	593	107	7	0	0	88562	692	0	correct_rejection	NA	0
1	Single	108	594	108	6	0	0	89271	691	0	correct_rejection	NA	0
1	Single	109	595	109	6	0	0	89979	692	0	correct_rejection	NA	0
1	Single	110	596	110	4	0	0	90688	691	0	correct_rejection	NA	0
1	Single	111	597	111	4	0	0	91396	692	0	correct_rejection	NA	0
1	Single	112	598	112	9	0	0	92105	691	0	correct_rejection	NA	0
1	Single	113	599	113	7	0	0	92813	692	0	correct_rejection	NA	0
1	Single	114	600	114	7	0	0	93522	692	0	correct_rejection	NA	0
1	Single	115	601	115	8	0	0	94230	692	0	correct_rejection	NA	0
1	Single	116	602	116	8	0	0	94939	692	0	correct_rejection	NA	0
1	Single	117	603	117	6	0	0	95648	691	0	correct_rejection	NA	0
1	Single	118	604	118	5	0	0	96356	692	0	correct_rejection	NA	0
1	Single	119	605	119	7	0	0	97065	691	0	correct_rejection	NA	0
1	Single	120	606	120	7	0	0	97773	692	0	correct_rejection	NA	0
1	Single	121	607	121	0	1	1	98482	692	1	hit	318	0
1	Single	122	608	122	8	0	0	99190	692	0	correct_rejection	NA	0
1	Single	123	609	123	5	0	0	99899	692	0	correct_rejection	NA	0
1	Single	124	610	124	7	0	0	100608	691	0	correct_rejection	NA	0
1	Single	125	611	125	6	0	0	101316	692	0	correct_rejection	NA	0
1	Single	126	612	126	4	0	0	102025	691	0	correct_rejection	NA	0
1	Single	127	613	127	0	1	1	102733	692	1	hit	452	0
1	Single	128	614	128	5	0	0	103442	692	0	correct_rejection	NA	0
1	Single	129	615	129	5	0	0	104150	692	0	correct_rejection	NA	0
1	Single	130	616	130	6	0	0	104859	692	0	correct_rejection	NA	0
1	Single	131	617	131	8	0	0	105568	691	0	correct_rejection	NA	0
1	Single	132	618	132	6	0	0	106276	692	0	correct_rejection	NA	0
1	Single	133	619	133	9	0	0	106985	691	0	correct_rejection	NA	0
1	Single	134	620	134	4	0	0	107693	692	0	correct_rejection	NA	0
1	Single	135	621	135	8	0	0	108402	692	0	correct_rejection	NA	0
1	Single	136	622	136	0	1	1	109110	692	1	hit	340	0
1	Single	137	623	137	7	0	0	109819	692	0	correct_rejection	NA	0
1	Single	138	624	138	4	0	0	110528	691	0	correct_rejection	NA	0
1	Single	139	625	139	6	0	0	111236	692	0	correct_rejection	NA	0
1	Single	140	626	140	6	0	0	111945	691	0	correct_rejection	NA	0
1	Single	141	627	141	0	1	1	112653	692	1	hit	380	0
1	Single	142	628	142	7	0	0	113362	691	0	correct_rejection	NA	0
1	Single	143	629	143	5	0	0	114070	692	0	correct_rejection	NA	0
1	Single	144	630	144	8	0	0	114779	692	0	correct_rejection	NA	0
1	Single	145	631	145	9	0	0	115487	692	0	correct_rejection	NA	0
1	Single	146	632	146	8	0	0	116196	692	0	correct_rejection	NA	0
1	Single	147	633	147	0	1	1	116905	691	1	hit	351	0
1	Single	148	634	148	8	0	0	117613	692	0	correct_rejection	NA	0
1	Single	149	635	149	4	0	0	118322	691	0	correct_rejection	NA	0
1	Single	150	636	150	9	0	0	119030	692	0	correct_rejection	NA	0
1	Single	151	637	151	5	0	0	119739	692	0	correct_rejection	NA	0
1	Single	152	638	152	4	0	0	120447	692	0	correct_rejection	NA	0
1	Single	153	639	153	4	0	0	121156	692	0	correct_rejection	NA	0
1	Single	154	640	154	7	0	0	121865	691	0	correct_rejection	NA	0
1	Single	155	641	155	9	0	0	122573	692	0	correct_rejection	NA	0
1	Single	156	642	156	9	0	0	123282	691	0	correct_rejection	NA	0
1	Single	157	643	157	0	1	1	123990	692	1	hit	349	0
1	Single	158	644	158	6	0	0	124699	692	0	correct_rejection	NA	0
1	Single	159	645	159	5	0	0	125407	692	0	correct_rejection	NA	0
1	Single	160	646	160	0	1	1	126116	692	1	hit	374	0
1	Single	161	647	161	9	0	0	126825	691	0	correct_rejection	NA	0
1	Single	162	648	162	7	0	0	127533	692	0	correct_rejection	NA	0
1	Nonet	1	325	163	4	0	0	137245	691	0	correct_rejection	NA	416480
1	Nonet	2	326	164	5	0	0	137953	692	0	correct_rejection	NA	0
1	Nonet	3	327	165	6	0	0	138662	691	0	correct_rejection	NA	0
1	Nonet	4	328	166	4	0	0	139370	692	0	correct_rejection	NA	0
1	Nonet	5	329	167	5	0	0	140079	692	0	correct_rejection	NA	0
1	Nonet	6	330	168	6	0	0	140787	692	0	correct_rejection	NA	0
1	Nonet	7	331	169	4	0	0	141496	692	0	correct_rejection	NA	0
1	Nonet	8	332	170	5	0	0	142205	691	0	correct_rejection	NA	0
1	Nonet	9	333	171	6	0	0	142913	692	0	correct_rejection	NA	0
1	Nonet	10	334	172	6	0	0	143622	691	0	correct_rejection	NA	0
1	Nonet	11	335	173	5	0	0	144330	692	0	correct_rejection	NA	0
1	Nonet	12	336	174	4	0	0	145039	692	0	correct_rejection	NA	0
1	Nonet	13	337	175	0	1	2	145747	692	1	hit	453	0
1	Nonet	14	338	176	6	0	0	146456	692	0	correct_rejection	NA	0
1	Nonet	15	339	177	5	0	0	147165	691	0	correct_rejection	NA	0
1	Nonet	16	340	178	4	0	0	147873	692	0	correct_rejection	NA	0
1	Nonet	17	341	179	6	0	0	148582	691	0	correct_rejection	NA	0
1	Nonet	18	342	180	5	0	0	149290	692	0	correct_rejection	NA	0
1	Nonet	19	343	181	4	0	0	149999	692	0	correct_rejection	NA	0
1	Nonet	20	344	182	4	0	0	150707	692	0	correct_rejection	NA	0
1	Nonet	21	345	183	5	0	0	151416	692	0	correct_rejection	NA	0
1	Nonet	22	346	184	6	0	0	152125	691	0	correct_rejection	NA	0
1	Nonet	23	347	185	4	0	0	152833	692	0	correct_rejection	NA	0
1	Nonet	24	348	186	5	0	0	153542	691	0	correct_rejection	NA	0
1	Nonet	25	349	187	6	0	0	154250	692	0	correct_rejection	NA	0
1	Nonet	26	350	188	4	0	0	154959	691	0	correct_rejection	NA	0
1	Nonet	27	351	189	0	1	1	155667	692	1	hit	369	0
1	Nonet	28	352	190	5	0	0	156376	692	0	correct_rejection	NA	0
1	Nonet	29	353	191	6	0	0	157085	691	0	correct_rejection	NA	0
1	Nonet	30	354	192	9	0	0	157793	692	0	correct_rejection	NA	0
1	Nonet	31	355	193	8	0	0	158502	691	0	correct_rejection	NA	0
1	Nonet	32	356	194	7	0	0	159210	692	0	correct_rejection	NA	0
1	Nonet	33	357	195	9	0	0	159919	691	0	correct_rejection	NA	0
1	Nonet	34	358	196	8	0	0	160627	692	0	correct_rejection	NA	0
1	Nonet	35	359	197	7	0	0	161336	692	0	correct_rejection	NA	0
1	Nonet	36	360	198	9	0	0	162044	692	0	correct_rejection	NA	0
1	Nonet	37	361	199	8	0	0	162753	692	0	correct_rejection	NA	0
1	Nonet	38	362	200	7	0	0	163462	691	0	correct_rejection	NA	0
1	Nonet	39	363	201	4	0	0	164170	692	0	correct_rejection	NA	0
1	Nonet	40	364	202	0	1	1	164879	691	1	hit	400	0
1	Nonet	41	365	203	5	0	0	165587	692	0	correct_rejection	NA	0
1	Nonet	42	366	204	6	0	0	166296	692	0	correct_rejection	NA	0
1	Nonet	43	367	205	4	0	0	167004	692	0	correct_rejection	NA	0
1	Nonet	44	368	206	5	0	0	167713	692	0	correct_rejection	NA	0
1	Nonet	45	369	207	6	0	0	168422	691	0	correct_rejection	NA	0
1	Nonet	46	370	208	0	1	2	169130	692	1	hit	458	0
1	Nonet	47	371	209	4	0	0	169839	691	0	correct_rejection	NA	0
1	Nonet	48	372	210	5	0	0	170547	692	0	correct_rejection	NA	0
1	Nonet	49	373	211	6	0	0	171256	692	0	correct_rejection	NA	0
1	Nonet	50	374	212	7	0	0	171964	692	0	correct_rejection	NA	0
1	Nonet	51	375	213	8	0	0	172673	692	0	correct_rejection	NA	0
1	Nonet	52	376	214	9	0	0	173382	691	0	correct_rejection	NA	0
1	Nonet	53	377	215	7	0	0	174090	692	0	correct_rejection	NA	0
1	Nonet	54	378	216	8	0	0	174799	691	0	correct_rejection	NA	0
1	Nonet	55	379	217	0	1	1	175507	692	1	hit	421	0
1	Nonet	56	380	218	9	0	0	176216	691	0	correct_rejection	NA	0
1	Nonet	57	381	219	7	0	0	176924	692	0	correct_rejection	NA	0
1	Nonet	58	382	220	8	0	0	177633	692	0	correct_rejection	NA	0
1	Nonet	59	383	221	9	0	0	178342	691	0	correct_rejection	NA	0
1	Nonet	60	384	222	9	0	0	179050	692	0	correct_rejection	NA	0
1	Nonet	61	385	223	8	0	0	179759	691	0	correct_rejection	NA	0
1	Nonet	62	386	224	7	0	0	180467	692	0	correct_rejection	NA	0
1	Nonet	63	387	225	9	0	0	181176	691	0	correct_rejection	NA	0
1	Nonet	64	388	226	8	0	0	181884	692	0	correct_rejection	NA	0
1	Nonet	65	389	227	0	1	1	182593	692	1	hit	404	0
1	Nonet	66	390	228	7	0	0	183301	692	0	correct_rejection	NA	0
1	Nonet	67	391	229	9	0	0	184010	692	0	correct_rejection	NA	0
1	Nonet	68	392	230	0	1	1	184719	691	1	hit	543	0
1	Nonet	69	393	231	8	0	0	185427	692	0	correct_rejection	NA	0
1	Nonet	70	394	232	7	0	0	186136	691	0	correct_rejection	NA	0
1	Nonet	71	395	233	9	0	0	186844	692	0	correct_rejection	NA	0
1	Nonet	72	396	234	0	1	1	187553	692	1	hit	421	0
1	Nonet	73	397	235	8	0	0	188261	692	0	correct_rejection	NA	0
1	Nonet	74	398	236	7	0	0	188970	692	0	correct_rejection	NA	0
1	Nonet	75	399	237	9	0	0	189679	691	0	correct_rejection	NA	0
1	Nonet	76	400	238	8	0	0	190387	692	0	correct_rejection	NA	0
1	Nonet	77	401	239	7	0	0	191096	691	0	correct_rejection	NA	0
1	Nonet	78	402	240	9	0	0	191804	692	0	correct_rejection	NA	0
1	Nonet	79	403	241	8	0	0	192513	692	0	correct_rejection	NA	0
1	Nonet	80	404	242	7	0	0	193221	692	0	correct_rejection	NA	0
1	Nonet	81	405	243	6	0	0	193930	692	0	correct_rejection	NA	0
1	Nonet	82	406	244	5	0	0	194639	691	0	correct_rejection	NA	0
1	Nonet	83	407	245	4	0	0	195347	692	0	correct_rejection	NA	0
1	Nonet	84	408	246	0	1	2	196056	691	1	hit	367	0
1	Nonet	85	409	247	6	0	0	196764	692	0	correct_rejection	NA	0
1	Nonet	86	410	248	5	0	0	197473	691	0	correct_rejection	NA	0
1	Nonet	87	411	249	4	0	0	198181	692	0	correct_rejection	NA	0
1	Nonet	88	412	250	6	0	0	198890	692	0	correct_rejection	NA	0
1	Nonet	89	413	251	5	0	0	199599	691	0	correct_rejection	NA	0
1	Nonet	90	414	252	4	0	0	200307	692	0	correct_rejection	NA	0
1	Nonet	91	415	253	7	0	0	201016	691	0	correct_rejection	NA	0
1	Nonet	92	416	254	8	0	0	201724	692	0	correct_rejection	NA	0
1	Nonet	93	417	255	9	0	0	202433	691	0	correct_rejection	NA	0
1	Nonet	94	418	256	7	0	0	203141	692	0	correct_rejection	NA	0
1	Nonet	95	419	257	8	0	0	203850	692	0	correct_rejection	NA	0
1	Nonet	96	420	258	9	0	0	204558	692	0	correct_rejection	NA	0
1	Nonet	97	421	259	7	0	0	205267	692	0	correct_rejection	NA	0
1	Nonet	98	422	260	8	0	0	205976	691	0	correct_rejection	NA	0
1	Nonet	99	423	261	9	0	0	206684	692	0	correct_rejection	NA	0
1	Nonet	100	424	262	6	0	0	207393	691	0	correct_rejection	NA	0
1	Nonet	101	425	263	5	0	0	208101	692	0	correct_rejection	NA	0
1	Nonet	102	426	264	4	0	0	208810	692	0	correct_rejection	NA	0
1	Nonet	103	427	265	6	0	0	209518	692	0	correct_rejection	NA	0
1	Nonet	104	428	266	5	0	0	210227	692	0	correct_rejection	NA	0
1	Nonet	105	429	267	0	1	1	210936	691	1	hit	476	0
1	Nonet	106	430	268	4	0	0	211644	692	0	correct_rejection	NA	0
1	Nonet	107	431	269	6	0	0	212353	691	0	correct_rejection	NA	0
1	Nonet	108	432	270	5	0	0	213061	692	0	correct_rejection	NA	0
1	Nonet	109	433	271	4	0	0	213770	692	0	correct_rejection	NA	0
1	Nonet	110	434	272	6	0	0	214478	692	0	correct_rejection	NA	0
1	Nonet	111	435	273	0	1	1	215187	692	1	hit	458	0
1	Nonet	112	436	274	5	0	0	215896	691	0	correct_rejection	NA	0
1	Nonet	113	437	275	4	0	0	216604	692	0	correct_rejection	NA	0
1	Nonet	114	438	276	6	0	0	217313	691	0	correct_rejection	NA	0
1	Nonet	115	439	277	5	0	0	218021	692	0	correct_rejection	NA	0
1	Nonet	116	440	278	0	1	1	218730	691	1	hit	442	0
1	Nonet	117	441	279	4	0	0	219438	692	0	correct_rejection	NA	0
1	Nonet	118	442	280	6	0	0	220147	692	0	correct_rejection	NA	0
1	Nonet	119	443	281	5	0	0	220856	691	0	correct_rejection	NA	0
1	Nonet	120	444	282	4	0	0	221564	692	0	correct_rejection	NA	0
1	Nonet	121	445	283	9	0	0	222273	691	0	correct_rejection	NA	0
1	Nonet	122	446	284	8	0	0	222981	692	0	correct_rejection	NA	0
1	Nonet	123	447	285	7	0	0	223690	691	0	correct_rejection	NA	0
1	Nonet	124	448	286	9	0	0	224398	692	0	correct_rejection	NA	0
1	Nonet	125	449	287	8	0	0	225107	692	0	correct_rejection	NA	0
1	Nonet	126	450	288	7	0	0	225815	692	0	correct_rejection	NA	0
1	Nonet	127	451	289	0	1	2	226524	692	1	hit	375	0
1	Nonet	128	452	290	9	0	0	227233	691	0	correct_rejection	NA	0
1	Nonet	129	453	291	8	0	0	227941	692	0	correct_rejection	NA	0
1	Nonet	130	454	292	7	0	0	228650	691	0	correct_rejection	NA	0
1	Nonet	131	455	293	0	1	3	229358	692	1	hit	452	0
1	Nonet	132	456	294	7	0	0	230067	692	0	correct_rejection	NA	0
1	Nonet	133	457	295	8	0	0	230775	692	0	correct_rejection	NA	0
1	Nonet	134	458	296	9	0	0	231484	692	0	correct_rejection	NA	0
1	Nonet	135	459	297	0	1	2	232193	691	1	hit	412	0
1	Nonet	136	460	298	7	0	0	232901	692	0	correct_rejection	NA	0
1	Nonet	137	461	299	8	0	0	233610	691	0	correct_rejection	NA	0
1	Nonet	138	462	300	9	0	0	234318	692	0	correct_rejection	NA	0
1	Nonet	139	463	301	7	0	0	235027	692	0	correct_rejection	NA	0
1	Nonet	140	464	302	8	0	0	235735	692	0	correct_rejection	NA	0
1	Nonet	141	465	303	9	0	0	236444	692	0	correct_rejection	NA	0
1	Nonet	142	466	304	0	1	3	237153	691	1	hit	385	0
1	Nonet	143	467	305	7	0	0	237861	692	0	correct_rejection	NA	0
1	Nonet	144	468	306	8	0	0	238570	691	0	correct_rejection	NA	0
1	Nonet	145	469	307	0	1	1	239278	692	1	hit	479	0
1	Nonet	146	470	308	9	0	0	239987	691	0	correct_rejection	NA	0
1	Nonet	147	471	309	7	0	0	240695	692	0	correct_rejection	NA	0
1	Nonet	148	472	310	8	0	0	241404	692	0	correct_rejection	NA	0
1	Nonet	149	473	311	9	0	0	242113	691	0	correct_rejection	NA	0
1	Nonet	150	474	312	7	0	0	242821	692	0	correct_rejection	NA	0
1	Nonet	151	475	313	8	0	0	243530	691	0	correct_rejection	NA	0
1	Nonet	152	476	314	9	0	0	244238	692	0	correct_rejection	NA	0
1	Nonet	153	477	315	0	1	3	244947	691	1	hit	377	0
1	Nonet	154	478	316	4	0	0	245655	692	0	correct_rejection	NA	0
1	Nonet	155	479	317	5	0	0	246364	692	0	correct_rejection	NA	0
1	Nonet	156	480	318	6	0	0	247072	692	0	correct_rejection	NA	0
1	Nonet	157	481	319	4	0	0	247781	692	0	correct_rejection	NA	0
1	Nonet	158	482	320	5	0	0	248490	691	0	correct_rejection	NA	0
1	Nonet	159	483	321	6	0	0	249198	692	0	correct_rejection	NA	0
1	Nonet	160	484	322	4	0	0	249907	691	0	correct_rejection	NA	0
1	Nonet	161	485	323	5	0	0	250615	692	0	correct_rejection	NA	0
1	Nonet	162	486	324	6	0	0	251324	692	0	correct_rejection	NA	0
1	Correct	1	487	325	4	0	0	257843	691	0	correct_rejection	NA	775078
1	Correct	2	488	326	5	0	0	258551	692	0	correct_rejection	NA	0
1	Correct	3	489	327	6	0	0	259260	692	0	correct_rejection	NA	0
1	Correct	4	490	328	4	0	0	259968	692	0	correct_rejection	NA	0
1	Correct	5	491	329	0	1	1	260677	692	1	hit	426	0
1	Correct	6	492	330	5	0	0	261386	691	0	correct_rejection	NA	0
1	Correct	7	493	331	6	0	0	262094	692	0	correct_rejection	NA	0
1	Correct	8	494	332	0	1	2	262803	691	1	hit	410	0
1	Correct	9	495	333	4	0	0	263511	692	0	correct_rejection	NA	0
1	Correct	10	496	334	5	0	0	264220	691	0	correct_rejection	NA	0
1	Correct	11	497	335	6	0	0	264928	692	0	correct_rejection	NA	0
1	Correct	12	498	336	6	0	0	265637	692	0	correct_rejection	NA	0
1	Correct	13	499	337	5	0	0	266345	692	0	correct_rejection	NA	0
1	Correct	14	500	338	4	0	0	267054	692	0	correct_rejection	NA	0
1	Correct	15	501	339	0	1	2	267763	691	1	hit	391	0
1	Correct	16	502	340	6	0	0	268471	692	0	correct_rejection	NA	0
1	Correct	17	503	341	5	0	0	269180	691	0	correct_rejection	NA	0
1	Correct	18	504	342	4	0	0	269888	692	0	correct_rejection	NA	0
1	Correct	19	505	343	6	0	0	270597	692	0	correct_rejection	NA	0
1	Correct	20	506	344	0	1	1	271305	692	1	hit	438	0
1	Correct	21	507	345	5	0	0	272014	692	0	correct_rejection	NA	0
1	Correct	22	508	346	4	0	0	272723	691	0	correct_rejection	NA	0
1	Correct	23	509	347	9	0	0	273431	692	0	correct_rejection	NA	0
1	Correct	24	510	348	8	0	0	274140	691	0	correct_rejection	NA	0
1	Correct	25	511	349	7	0	0	274848	692	0	correct_rejection	NA	0
1	Correct	26	512	350	9	0	0	275557	692	0	correct_rejection	NA	0
1	Correct	27	513	351	0	1	1	276265	692	1	hit	396	0
1	Correct	28	514	352	8	0	0	276974	692	0	correct_rejection	NA	0
1	Correct	29	515	353	7	0	0	277683	691	0	correct_rejection	NA	0
1	Correct	30	516	354	9	0	0	278391	692	0	correct_rejection	NA	0
1	Correct	31	517	355	8	0	0	279100	691	0	correct_rejection	NA	0
1	Correct	32	518	356	0	1	1	279808	692	1	hit	529	0
1	Correct	33	519	357	7	0	0	280517	692	0	correct_rejection	NA	0
1	Correct	34	520	358	7	0	0	281225	692	0	correct_rejection	NA	0
1	Correct	35	521	359	8	0	0	281934	692	0	correct_rejection	NA	0
1	Correct	36	522	360	9	0	0	282643	691	0	correct_rejection	NA	0
1	Correct	37	523	361	7	0	0	283351	692	0	correct_rejection	NA	0
1	Correct	38	524	362	8	0	0	284060	691	0	correct_rejection	NA	0
1	Correct	39	525	363	9	0	0	284768	692	0	correct_rejection	NA	0
1	Correct	40	526	364	7	0	0	285477	691	0	correct_rejection	NA	0
1	Correct	41	527	365	8	0	0	286185	692	0	correct_rejection	NA	0
1	Correct	42	528	366	9	0	0	286894	692	0	correct_rejection	NA	0
1	Correct	43	529	367	4	0	0	287602	692	0	correct_rejection	NA	0
1	Correct	44	530	368	5	0	0	288311	692	0	correct_rejection	NA	0
1	Correct	45	531	369	6	0	0	289020	691	0	correct_rejection	NA	0
1	Correct	46	532	370	4	0	0	289728	692	0	correct_rejection	NA	0
1	Correct	47	533	371	5	0	0	290437	691	0	correct_rejection	NA	0
1	Correct	48	534	372	6	0	0	291145	692	0	correct_rejection	NA	0
1	Correct	49	535	373	4	0	0	291854	692	0	correct_rejection	NA	0
1	Correct	50	536	374	5	0	0	292562	692	0	correct_rejection	NA	0
1	Correct	51	537	375	0	1	1	293271	692	1	hit	378	0
1	Correct	52	538	376	6	0	0	293980	691	0	correct_rejection	NA	0
1	Correct	53	539	377	6	0	0	294688	692	0	correct_rejection	NA	0
1	Correct	54	540	378	5	0	0	295397	691	0	correct_rejection	NA	0
1	Correct	55	541	379	4	0	0	296105	692	0	correct_rejection	NA	0
1	Correct	56	542	380	6	0	0	296814	692	0	correct_rejection	NA	0
1	Correct	57	543	381	5	0	0	297522	692	0	correct_rejection	NA	0
1	Correct	58	544	382	4	0	0	298231	692	0	correct_rejection	NA	0
1	Correct	59	545	383	0	1	2	298940	691	1	hit	501	0
1	Correct	60	546	384	6	0	0	299648	692	0	correct_rejection	NA	0
1	Correct	61	547	385	5	0	0	300357	691	0	correct_rejection	NA	0
1	Correct	62	548	386	0	1	1	301065	692	1	hit	444	0
1	Correct	63	549	387	4	0	0	301774	691	0	correct_rejection	NA	0
1	Correct	64	550	388	9	0	0	302482	692	0	correct_rejection	NA	0
1	Correct	65	551	389	0	1	1	303191	692	0	miss	NA	0
1	Correct	66	552	390	8	0	0	303900	691	0	correct_rejection	NA	0
1	Correct	67	553	391	7	0	0	304608	692	0	correct_rejection	NA	0
1	Correct	68	554	392	9	0	0	305317	691	0	correct_rejection	NA	0
1	Correct	69	555	393	8	0	0	306025	692	0	correct_rejection	NA	0
1	Correct	70	556	394	0	1	1	306734	692	1	hit	365	0
1	Correct	71	557	395	7	0	0	307442	692	0	correct_rejection	NA	0
1	Correct	72	558	396	9	0	0	308151	692	0	correct_rejection	NA	0
1	Correct	73	559	397	8	0	0	308859	692	0	correct_rejection	NA	0
1	Correct	74	560	398	7	0	0	309568	692	0	correct_rejection	NA	0
1	Correct	75	561	399	7	0	0	310277	691	0	correct_rejection	NA	0
1	Correct	76	562	400	8	0	0	310985	692	0	correct_rejection	NA	0
1	Correct	77	563	401	9	0	0	311694	691	0	correct_rejection	NA	0
1	Correct	78	564	402	7	0	0	312402	692	0	correct_rejection	NA	0
1	Correct	79	565	403	8	0	0	313111	692	0	correct_rejection	NA	0
1	Correct	80	566	404	9	0	0	313819	692	0	correct_rejection	NA	0
1	Correct	81	567	405	7	0	0	314528	692	0	correct_rejection	NA	0
1	Correct	82	568	406	8	0	0	315237	691	0	correct_rejection	NA	0
1	Correct	83	569	407	9	0	0	315945	692	0	correct_rejection	NA	0
1	Correct	84	570	408	4	0	0	316654	691	0	correct_rejection	NA	0
1	Correct	85	571	409	5	0	0	317362	692	0	correct_rejection	NA	0
1	Correct	86	572	410	6	0	0	318071	692	0	correct_rejection	NA	0
1	Correct	87	573	411	4	0	0	318779	692	0	correct_rejection	NA	0
1	Correct	88	574	412	5	0	0	319488	692	0	correct_rejection	NA	0
1	Correct	89	575	413	0	1	1	320197	691	1	hit	439	0
1	Correct	90	576	414	6	0	0	320905	692	0	correct_rejection	NA	0
1	Correct	91	577	415	4	0	0	321614	691	0	correct_rejection	NA	0
1	Correct	92	578	416	5	0	0	322322	692	0	correct_rejection	NA	0
1	Correct	93	579	417	6	0	0	323031	691	0	correct_rejection	NA	0
1	Correct	94	580	418	6	0	0	323739	692	0	correct_rejection	NA	0
1	Correct	95	581	419	0	1	1	324448	692	1	hit	466	0
1	Correct	96	582	420	5	0	0	325157	691	0	correct_rejection	NA	0
1	Correct	97	583	421	4	0	0	325865	692	0	correct_rejection	NA	0
1	Correct	98	584	422	6	0	0	326574	691	0	correct_rejection	NA	0
1	Correct	99	585	423	5	0	0	327282	692	0	correct_rejection	NA	0
1	Correct	100	586	424	4	0	0	327991	691	0	correct_rejection	NA	0
1	Correct	101	587	425	6	0	0	328699	692	0	correct_rejection	NA	0
1	Correct	102	588	426	5	0	0	329408	692	0	correct_rejection	NA	0
1	Correct	103	589	427	4	0	0	330116	692	0	correct_rejection	NA	0
1	Correct	104	590	428	9	0	0	330825	692	0	correct_rejection	NA	0
1	Correct	105	591	429	8	0	0	331534	691	0	correct_rejection	NA	0
1	Correct	106	592	430	7	0	0	332242	692	0	correct_rejection	NA	0
1	Correct	107	593	431	9	0	0	332951	691	0	correct_rejection	NA	0
1	Correct	108	594	432	8	0	0	333659	692	0	correct_rejection	NA	0
1	Correct	109	595	433	7	0	0	334368	692	0	correct_rejection	NA	0
1	Correct	110	596	434	9	0	0	335076	692	0	correct_rejection	NA	0
1	Correct	111	597	435	8	0	0	335785	692	0	correct_rejection	NA	0
1	Correct	112	598	436	7	0	0	336494	691	0	correct_rejection	NA	0
1	Correct	113	599	437	7	0	0	337202	692	0	correct_rejection	NA	0
1	Correct	114	600	438	8	0	0	337911	691	0	correct_rejection	NA	0
1	Correct	115	601	439	0	1	1	338619	692	1	hit	380	0
1	Correct	116	602	440	9	0	0	339328	692	0	correct_rejection	NA	0
1	Correct	117	603	441	7	0	0	340036	692	0	correct_rejection	NA	0
1	Correct	118	604	442	8	0	0	340745	692	0	correct_rejection	NA	0
1	Correct	119	605	443	9	0	0	341454	691	0	correct_rejection	NA	0
1	Correct	120	606	444	7	0	0	342162	692	0	correct_rejection	NA	0
1	Correct	121	607	445	8	0	0	342871	691	0	correct_rejection	NA	0
1	Correct	122	608	446	9	0	0	343579	692	0	correct_rejection	NA	0
1	Correct	123	609	447	0	1	4	344288	691	1	hit	353	0
1	Correct	124	610	448	4	0	0	344996	692	0	correct_rejection	NA	0
1	Correct	125	611	449	5	0	0	345705	692	0	correct_rejection	NA	0
1	Correct	126	612	450	6	0	0	346414	691	0	correct_rejection	NA	0
1	Correct	127	613	451	4	0	0	347122	692	0	correct_rejection	NA	0
1	Correct	128	614	452	5	0	0	347831	691	0	correct_rejection	NA	0
1	Correct	129	615	453	6	0	0	348539	692	0	correct_rejection	NA	0
1	Correct	130	616	454	0	1	2	349248	691	1	hit	413	0
1	Correct	131	617	455	4	0	0	349956	692	0	correct_rejection	NA	0
1	Correct	132	618	456	5	0	0	350665	692	0	correct_rejection	NA	0
1	Correct	133	619	457	6	0	0	351373	692	0	correct_rejection	NA	0
1	Correct	134	620	458	6	0	0	352082	692	0	correct_rejection	NA	0
1	Correct	135	621	459	5	0	0	352791	691	0	correct_rejection	NA	0
1	Correct	136	622	460	4	0	0	353499	692	0	correct_rejection	NA	0
1	Correct	137	623	461	6	0	0	354208	691	0	correct_rejection	NA	0
1	Correct	138	624	462	5	0	0	354916	692	0	correct_rejection	NA	0
1	Correct	139	625	463	0	1	1	355625	692	1	hit	354	0
1	Correct	140	626	464	4	0	0	356333	692	0	correct_rejection	NA	0
1	Correct	141	627	465	6	0	0	357042	692	0	correct_rejection	NA	0
1	Correct	142	628	466	5	0	0	357751	691	0	correct_rejection	NA	0
1	Correct	143	629	467	4	0	0	358459	692	0	correct_rejection	NA	0
1	Correct	144	630	468	0	1	3	359168	691	1	hit	394	0
1	Correct	145	631	469	9	0	0	359876	692	0	correct_rejection	NA	0
1	Correct	146	632	470	8	0	0	360585	692	0	correct_rejection	NA	0
1	Correct	147	633	471	7	0	0	361293	692	0	correct_rejection	NA	0
1	Correct	148	634	472	9	0	0	362002	692	0	correct_rejection	NA	0
1	Correct	149	635	473	8	0	0	362711	691	0	correct_rejection	NA	0
1	Correct	150	636	474	7	0	0	363419	692	0	correct_rejection	NA	0
1	Correct	151	637	475	9	0	0	364128	691	0	correct_rejection	NA	0
1	Correct	152	638	476	8	0	0	364836	692	0	correct_rejection	NA	0
1	Correct	153	639	477	7	0	0	365545	691	0	correct_rejection	NA	0
1	Correct	154	640	478	7	0	0	366253	692	0	correct_rejection	NA	0
1	Correct	155	641	479	8	0	0	366962	692	0	correct_rejection	NA	0
1	Correct	156	642	480	9	0	0	367671	691	0	correct_rejection	NA	0
1	Correct	157	643	481	7	0	0	368379	692	0	correct_rejection	NA	0
1	Correct	158	644	482	8	0	0	369088	691	0	correct_rejection	NA	0
1	Correct	159	645	483	9	0	0	369796	692	0	correct_rejection	NA	0
1	Correct	160	646	484	7	0	0	370505	691	0	correct_rejection	NA	0
1	Correct	161	647	485	8	0	0	371213	692	0	correct_rejection	NA	0
1	Correct	162	648	486	9	0	0	371922	692	0	correct_rejection	NA	0
1	Triplet	1	487	487	6	0	0	379216	692	0	correct_rejection	NA	1139974
1	Triplet	2	488	488	5	0	0	379925	691	0	correct_rejection	NA	0
1	Triplet	3	489	489	4	0	0	380633	692	0	correct_rejection	NA	0
1	Triplet	4	490	490	4	0	0	381342	691	0	correct_rejection	NA	0
1	Triplet	5	491	491	5	0	0	382050	692	0	correct_rejection	NA	0
1	Triplet	6	492	492	6	0	0	382759	691	0	correct_rejection	NA	0
1	Triplet	7	493	493	9	0	0	383467	692	0	correct_rejection	NA	0
1	Triplet	8	494	494	8	0	0	384176	692	0	correct_rejection	NA	0
1	Triplet	9	495	495	0	1	1	384885	691	1	hit	424	0
1	Triplet	10	496	496	7	0	0	385593	692	0	correct_rejection	NA	0
1	Triplet	11	497	497	4	0	0	386302	691	0	correct_rejection	NA	0
1	Triplet	12	498	498	5	0	0	387010	692	0	correct_rejection	NA	0
1	Triplet	13	499	499	6	0	0	387719	691	0	correct_rejection	NA	0
1	Triplet	14	500	500	0	1	2	388427	692	1	hit	385	0
1	Triplet	15	501	501	6	0	0	389136	692	0	correct_rejection	NA	0
1	Triplet	16	502	502	5	0	0	389844	692	0	correct_rejection	NA	0
1	Triplet	17	503	503	4	0	0	390553	692	0	correct_rejection	NA	0
1	Triplet	18	504	504	6	0	0	391262	691	0	correct_rejection	NA	0
1	Triplet	19	505	505	5	0	0	391970	692	0	correct_rejection	NA	0
1	Triplet	20	506	506	4	0	0	392679	691	0	correct_rejection	NA	0
1	Triplet	21	507	507	7	0	0	393387	692	0	correct_rejection	NA	0
1	Triplet	22	508	508	0	1	1	394096	692	1	hit	455	0
1	Triplet	23	509	509	8	0	0	394804	692	0	correct_rejection	NA	0
1	Triplet	24	510	510	9	0	0	395513	692	0	correct_rejection	NA	0
1	Triplet	25	511	511	6	0	0	396222	691	0	correct_rejection	NA	0
1	Triplet	26	512	512	5	0	0	396930	692	0	correct_rejection	NA	0
1	Triplet	27	513	513	4	0	0	397639	691	0	correct_rejection	NA	0
1	Triplet	28	514	514	9	0	0	398347	692	0	correct_rejection	NA	0
1	Triplet	29	515	515	8	0	0	399056	692	0	correct_rejection	NA	0
1	Triplet	30	516	516	7	0	0	399764	692	0	correct_rejection	NA	0
1	Triplet	31	517	517	9	0	0	400473	692	0	correct_rejection	NA	0
1	Triplet	32	518	518	8	0	0	401182	691	0	correct_rejection	NA	0
1	Triplet	33	519	519	7	0	0	401890	692	0	correct_rejection	NA	0
1	Triplet	34	520	520	0	1	2	402599	691	1	hit	413	0
1	Triplet	35	521	521	7	0	0	403307	692	0	correct_rejection	NA	0
1	Triplet	36	522	522	8	0	0	404016	691	0	correct_rejection	NA	0
1	Triplet	37	523	523	9	0	0	404724	692	0	correct_rejection	NA	0
1	Triplet	38	524	524	0	1	2	405433	692	1	hit	484	0
1	Triplet	39	525	525	4	0	0	406142	691	0	correct_rejection	NA	0
1	Triplet	40	526	526	5	0	0	406850	692	0	correct_rejection	NA	0
1	Triplet	41	527	527	6	0	0	407559	691	0	correct_rejection	NA	0
1	Triplet	42	528	528	4	0	0	408267	692	0	correct_rejection	NA	0
1	Triplet	43	529	529	5	0	0	408976	691	0	correct_rejection	NA	0
1	Triplet	44	530	530	6	0	0	409684	692	0	correct_rejection	NA	0
1	Triplet	45	531	531	7	0	0	410393	692	0	correct_rejection	NA	0
1	Triplet	46	532	532	8	0	0	411101	692	0	correct_rejection	NA	0
1	Triplet	47	533	533	0	1	1	411810	692	1	hit	424	0
1	Triplet	48	534	534	9	0	0	412519	691	0	correct_rejection	NA	0
1	Triplet	49	535	535	7	0	0	413227	692	0	correct_rejection	NA	0
1	Triplet	50	536	536	8	0	0	413936	691	0	correct_rejection	NA	0
1	Triplet	51	537	537	9	0	0	414644	692	0	correct_rejection	NA	0
1	Triplet	52	538	538	9	0	0	415353	692	0	correct_rejection	NA	0
1	Triplet	53	539	539	8	0	0	416061	692	0	correct_rejection	NA	0
1	Triplet	54	540	540	7	0	0	416770	692	0	correct_rejection	NA	0
1	Triplet	55	541	541	4	0	0	417479	691	0	correct_rejection	NA	0
1	Triplet	56	542	542	5	0	0	418187	692	0	correct_rejection	NA	0
1	Triplet	57	543	543	0	1	1	418896	691	1	hit	555	0
1	Triplet	58	544	544	6	0	0	419604	692	0	correct_rejection	NA	0
1	Triplet	59	545	545	7	0	0	420313	692	0	correct_rejection	NA	0
1	Triplet	60	546	546	8	0	0	421021	692	0	correct_rejection	NA	0
1	Triplet	61	547	547	9	0	0	421730	692	0	correct_rejection	NA	0
1	Triplet	62	548	548	6	0	0	422439	691	0	correct_rejection	NA	0
1	Triplet	63	549	549	5	0	0	423147	692	0	correct_rejection	NA	0
1	Triplet	64	550	550	4	0	0	423856	691	0	correct_rejection	NA	0
1	Triplet	65	551	551	6	0	0	424564	692	0	correct_rejection	NA	0
1	Triplet	66	552	552	0	1	1	425273	691	1	hit	402	0
1	Triplet	67	553	553	5	0	0	425981	692	0	correct_rejection	NA	0
1	Triplet	68	554	554	4	0	0	426690	692	0	correct_rejection	NA	0
1	Triplet	69	555	555	0	1	2	427399	691	1	hit	454	0
1	Triplet	70	556	556	4	0	0	428107	692	0	correct_rejection	NA	0
1	Triplet	71	557	557	5	0	0	428816	691	0	correct_rejection	NA	0
1	Triplet	72	558	558	6	0	0	429524	692	0	correct_rejection	NA	0
1	Triplet	73	559	559	4	0	0	430233	691	0	correct_rejection	NA	0
1	Triplet	74	560	560	5	0	0	430941	692	0	correct_rejection	NA	0
1	Triplet	75	561	561	0	1	1	431650	692	1	hit	472	0
1	Triplet	76	562	562	6	0	0	432358	692	0	correct_rejection	NA	0
1	Triplet	77	563	563	6	0	0	433067	692	0	correct_rejection	NA	0
1	Triplet	78	564	564	5	0	0	433776	691	0	correct_rejection	NA	0
1	Triplet	79	565	565	0	1	1	434484	692	1	hit	376	0
1	Triplet	80	566	566	4	0	0	435193	691	0	correct_rejection	NA	0
1	Triplet	81	567	567	7	0	0	435901	692	0	correct_rejection	NA	0
1	Triplet	82	568	568	8	0	0	436610	692	0	correct_rejection	NA	0
1	Triplet	83	569	569	9	0	0	437318	692	0	correct_rejection	NA	0
1	Triplet	84	570	570	9	0	0	438027	692	0	correct_rejection	NA	0
1	Triplet	85	571	571	8	0	0	438736	691	0	correct_rejection	NA	0
1	Triplet	86	572	572	7	0	0	439444	692	0	correct_rejection	NA	0
1	Triplet	87	573	573	4	0	0	440153	691	0	correct_rejection	NA	0
1	Triplet	88	574	574	5	0	0	440861	692	0	correct_rejection	NA	0
1	Triplet	89	575	575	6	0	0	441570	692	0	correct_rejection	NA	0
1	Triplet	90	576	576	9	0	0	442278	692	0	correct_rejection	NA	0
1	Triplet	91	577	577	0	1	1	442987	692	1	hit	393	0
1	Triplet	92	578	578	8	0	0	443696	691	0	correct_rejection	NA	0
1	Triplet	93	579	579	7	0	0	444404	692	0	correct_rejection	NA	0
1	Triplet	94	580	580	9	0	0	445113	691	0	correct_rejection	NA	0
1	Triplet	95	581	581	0	1	1	445821	692	1	hit	530	0
1	Triplet	96	582	582	8	0	0	446530	691	0	correct_rejection	NA	0
1	Triplet	97	583	583	7	0	0	447238	692	0	correct_rejection	NA	0
1	Triplet	98	584	584	6	0	0	447947	692	0	correct_rejection	NA	0
1	Triplet	99	585	585	5	0	0	448656	691	0	correct_rejection	NA	0
1	Triplet	100	586	586	4	0	0	449364	692	0	correct_rejection	NA	0
1	Triplet	101	587	587	9	0	0	450073	691	0	correct_rejection	NA	0
1	Triplet	102	588	588	8	0	0	450781	692	0	correct_rejection	NA	0
1	Triplet	103	589	589	7	0	0	451490	691	0	correct_rejection	NA	0
1	Triplet	104	590	590	7	0	0	452198	692	0	correct_rejection	NA	0
1	Triplet	105	591	591	8	0	0	452907	692	0	correct_rejection	NA	0
1	Triplet	106	592	592	9	0	0	453615	692	0	correct_rejection	NA	0
1	Triplet	107	593	593	7	0	0	454324	692	0	correct_rejection	NA	0
1	Triplet	108	594	594	0	1	1	455033	691	1	hit	419	0
1	Triplet	109	595	595	8	0	0	455741	692	0	correct_rejection	NA	0
1	Triplet	110	596	596	9	0	0	456450	691	0	correct_rejection	NA	0
1	Triplet	111	597	597	6	0	0	457158	692	0	correct_rejection	NA	0
1	Triplet	112	598	598	0	1	1	457867	692	1	hit	382	0
1	Triplet	113	599	599	5	0	0	458575	692	0	correct_rejection	NA	0
1	Triplet	114	600	600	4	0	0	459284	692	0	correct_rejection	NA	0
1	Triplet	115	601	601	9	0	0	459993	691	0	correct_rejection	NA	0
1	Triplet	116	602	602	8	0	0	460701	692	0	correct_rejection	NA	0
1	Triplet	117	603	603	7	0	0	461410	691	0	correct_rejection	NA	0
1	Triplet	118	604	604	6	0	0	462118	692	0	correct_rejection	NA	0
1	Triplet	119	605	605	5	0	0	462827	692	0	correct_rejection	NA	0
1	Triplet	120	606	606	4	0	0	463535	692	0	correct_rejection	NA	0
1	Triplet	121	607	607	7	0	0	464244	692	0	correct_rejection	NA	0
1	Triplet	122	608	608	8	0	0	464953	691	0	correct_rejection	NA	0
1	Triplet	123	609	609	9	0	0	465661	692	0	correct_rejection	NA	0
1	Triplet	124	610	610	7	0	0	466370	691	0	correct_rejection	NA	0
1	Triplet	125	611	611	8	0	0	467078	692	0	correct_rejection	NA	0
1	Triplet	126	612	612	9	0	0	467787	691	0	correct_rejection	NA	0
1	Triplet	127	613	613	4	0	0	468495	692	0	correct_rejection	NA	0
1	Triplet	128	614	614	5	0	0	469204	692	0	correct_rejection	NA	0
1	Triplet	129	615	615	0	1	1	469912	692	1	hit	388	0
1	Triplet	130	616	616	6	0	0	470621	692	0	correct_rejection	NA	0
1	Triplet	131	617	617	6	0	0	471330	691	0	correct_rejection	NA	0
1	Triplet	132	618	618	5	0	0	472038	692	0	correct_rejection	NA	0
1	Triplet	133	619	619	4	0	0	472747	691	0	correct_rejection	NA	0
1	Triplet	134	620	620	4	0	0	473455	692	0	correct_rejection	NA	0
1	Triplet	135	621	621	5	0	0	474164	692	0	correct_rejection	NA	0
1	Triplet	136	622	622	6	0	0	474872	692	0	correct_rejection	NA	0
1	Triplet	137	623	623	7	0	0	475581	692	0	correct_rejection	NA	0
1	Triplet	138	624	624	8	0	0	476290	691	0	correct_rejection	NA	0
1	Triplet	139	625	625	9	0	0	476998	692	0	correct_rejection	NA	0
1	Triplet	140	626	626	9	0	0	477707	691	0	correct_rejection	NA	0
1	Triplet	141	627	627	8	0	0	478415	692	0	correct_rejection	NA	0
1	Triplet	142	628	628	7	0	0	479124	692	0	correct_rejection	NA	0
1	Triplet	143	629	629	9	0	0	479832	692	0	correct_rejection	NA	0
1	Triplet	144	630	630	8	0	0	480541	692	0	correct_rejection	NA	0
1	Triplet	145	631	631	7	0	0	481250	691	0	correct_rejection	NA	0
1	Triplet	146	632	632	0	1	2	481958	692	1	hit	489	0
1	Triplet	147	633	633	4	0	0	482667	691	0	correct_rejection	NA	0
1	Triplet	148	634	634	5	0	0	483375	692	0	correct_rejection	NA	0
1	Triplet	149	635	635	6	0	0	484084	692	0	correct_rejection	NA	0
1	Triplet	150	636	636	4	0	0	484792	692	0	correct_rejection	NA	0
1	Triplet	151	637	637	5	0	0	485501	692	0	correct_rejection	NA	0
1	Triplet	152	638	638	6	0	0	486210	691	0	correct_rejection	NA	0
1	Triplet	153	639	639	9	0	0	486918	692	0	correct_rejection	NA	0
1	Triplet	154	640	640	8	0	0	487627	691	0	correct_rejection	NA	0
1	Triplet	155	641	641	0	1	1	488335	692	1	hit	441	0
1	Triplet	156	642	642	7	0	0	489044	691	0	correct_rejection	NA	0
1	Triplet	157	643	643	7	0	0	489752	692	0	correct_rejection	NA	0
1	Triplet	158	644	644	8	0	0	490461	692	0	correct_rejection	NA	0
1	Triplet	159	645	645	9	0	0	491169	692	0	correct_rejection	NA	0
1	Triplet	160	646	646	6	0	0	491878	692	0	correct_rejection	NA	0
1	Triplet	161	647	647	5	0	0	492587	691	0	correct_rejection	NA	0
1	Triplet	162	648	648	4	0	0	493295	692	0	correct_rejection	NA	0
1	Nonet	1	1	649	9	0	0	503457	692	0	correct_rejection	NA	1515569
1	Nonet	2	2	650	8	0	0	504165	692	0	correct_rejection	NA	0
1	Nonet	3	3	651	7	0	0	504874	692	0	correct_rejection	NA	0
1	Nonet	4	4	652	9	0	0	505583	691	0	correct_rejection	NA	0
1	Nonet	5	5	653	0	1	1	506291	692	1	hit	389	0
1	Nonet	6	6	654	8	0	0	507000	691	0	correct_rejection	NA	0
1	Nonet	7	7	655	7	0	0	507708	692	0	correct_rejection	NA	0
1	Nonet	8	8	656	9	0	0	508417	692	0	correct_rejection	NA	0
1	Nonet	9	9	657	0	1	1	509125	692	1	hit	414	0
1	Nonet	10	10	658	8	0	0	509834	692	0	correct_rejection	NA	0
1	Nonet	11	11	659	7	0	0	510543	691	0	correct_rejection	NA	0
1	Nonet	12	12	660	6	0	0	511251	692	0	correct_rejection	NA	0
1	Nonet	13	13	661	5	0	0	511960	691	0	correct_rejection	NA	0
1	Nonet	14	14	662	0	1	1	512668	692	1	hit	409	0
1	Nonet	15	15	663	4	0	0	513377	691	0	correct_rejection	NA	0
1	Nonet	16	16	664	6	0	0	514085	692	0	correct_rejection	NA	0
1	Nonet	17	17	665	5	0	0	514794	692	0	correct_rejection	NA	0
1	Nonet	18	18	666	4	0	0	515503	691	0	correct_rejection	NA	0
1	Nonet	19	19	667	6	0	0	516211	692	0	correct_rejection	NA	0
1	Nonet	20	20	668	5	0	0	516920	691	0	correct_rejection	NA	0
1	Nonet	21	21	669	4	0	0	517628	692	0	correct_rejection	NA	0
1	Nonet	22	22	670	6	0	0	518337	691	0	correct_rejection	NA	0
1	Nonet	23	23	671	5	0	0	519045	692	0	correct_rejection	NA	0
1	Nonet	24	24	672	4	0	0	519754	692	0	correct_rejection	NA	0
1	Nonet	25	25	673	6	0	0	520462	692	0	correct_rejection	NA	0
1	Nonet	26	26	674	5	0	0	521171	692	0	correct_rejection	NA	0
1	Nonet	27	27	675	0	1	1	521880	691	1	hit	388	0
1	Nonet	28	28	676	4	0	0	522588	692	0	correct_rejection	NA	0
1	Nonet	29	29	677	6	0	0	523297	691	0	correct_rejection	NA	0
1	Nonet	30	30	678	0	1	1	524005	692	1	hit	426	0
1	Nonet	31	31	679	5	0	0	524714	692	0	correct_rejection	NA	0
1	Nonet	32	32	680	4	0	0	525422	692	0	correct_rejection	NA	0
1	Nonet	33	33	681	9	0	0	526131	692	0	correct_rejection	NA	0
1	Nonet	34	34	682	8	0	0	526840	691	0	correct_rejection	NA	0
1	Nonet	35	35	683	7	0	0	527548	692	0	correct_rejection	NA	0
1	Nonet	36	36	684	9	0	0	528257	691	0	correct_rejection	NA	0
1	Nonet	37	37	685	8	0	0	528965	692	0	correct_rejection	NA	0
1	Nonet	38	38	686	7	0	0	529674	692	0	correct_rejection	NA	0
1	Nonet	39	39	687	9	0	0	530382	692	0	correct_rejection	NA	0
1	Nonet	40	40	688	8	0	0	531091	692	0	correct_rejection	NA	0
1	Nonet	41	41	689	7	0	0	531800	691	0	correct_rejection	NA	0
1	Nonet	42	42	690	4	0	0	532508	692	0	correct_rejection	NA	0
1	Nonet	43	43	691	5	0	0	533217	691	0	correct_rejection	NA	0
1	Nonet	44	44	692	6	0	0	533925	692	0	correct_rejection	NA	0
1	Nonet	45	45	693	4	0	0	534634	691	0	correct_rejection	NA	0
1	Nonet	46	46	694	0	1	1	535342	692	0	miss	NA	0
1	Nonet	47	47	695	5	0	0	536051	692	0	correct_rejection	NA	0
1	Nonet	48	48	696	6	0	0	536760	691	0	correct_rejection	NA	0
1	Nonet	49	49	697	0	1	2	537468	692	1	hit	429	0
1	Nonet	50	50	698	4	0	0	538177	691	0	correct_rejection	NA	0
1	Nonet	51	51	699	5	0	0	538885	692	0	correct_rejection	NA	0
1	Nonet	52	52	700	6	0	0	539594	691	0	correct_rejection	NA	0
1	Nonet	53	53	701	4	0	0	540302	692	0	correct_rejection	NA	0
1	Nonet	54	54	702	5	0	0	541011	692	0	correct_rejection	NA	0
1	Nonet	55	55	703	6	0	0	541719	692	0	correct_rejection	NA	0
1	Nonet	56	56	704	4	0	0	542428	692	0	correct_rejection	NA	0
1	Nonet	57	57	705	5	0	0	543137	691	0	correct_rejection	NA	0
1	Nonet	58	58	706	6	0	0	543845	692	0	correct_rejection	NA	0
1	Nonet	59	59	707	4	0	0	544554	691	0	correct_rejection	NA	0
1	Nonet	60	60	708	5	0	0	545262	692	0	correct_rejection	NA	0
1	Nonet	61	61	709	6	0	0	545971	692	0	correct_rejection	NA	0
1	Nonet	62	62	710	7	0	0	546679	692	0	correct_rejection	NA	0
1	Nonet	63	63	711	8	0	0	547388	692	0	correct_rejection	NA	0
1	Nonet	64	64	712	9	0	0	548097	691	0	correct_rejection	NA	0
1	Nonet	65	65	713	7	0	0	548805	692	0	correct_rejection	NA	0
1	Nonet	66	66	714	0	1	1	549514	691	1	hit	359	0
1	Nonet	67	67	715	8	0	0	550222	692	0	correct_rejection	NA	0
1	Nonet	68	68	716	9	0	0	550931	692	0	correct_rejection	NA	0
1	Nonet	69	69	717	7	0	0	551639	692	0	correct_rejection	NA	0
1	Nonet	70	70	718	8	0	0	552348	692	0	correct_rejection	NA	0
1	Nonet	71	71	719	9	0	0	553057	691	0	correct_rejection	NA	0
1	Nonet	72	72	720	4	0	0	553765	692	0	correct_rejection	NA	0
1	Nonet	73	73	721	5	0	0	554474	691	0	correct_rejection	NA	0
1	Nonet	74	74	722	6	0	0	555182	692	0	correct_rejection	NA	0
1	Nonet	75	75	723	4	0	0	555891	691	0	correct_rejection	NA	0
1	Nonet	76	76	724	5	0	0	556599	692	0	correct_rejection	NA	0
1	Nonet	77	77	725	6	0	0	557308	692	0	correct_rejection	NA	0
1	Nonet	78	78	726	4	0	0	558017	691	0	correct_rejection	NA	0
1	Nonet	79	79	727	5	0	0	558725	692	0	correct_rejection	NA	0
1	Nonet	80	80	728	6	0	0	559434	691	0	correct_rejection	NA	0
1	Nonet	81	81	729	9	0	0	560142	692	0	correct_rejection	NA	0
1	Nonet	82	82	730	8	0	0	560851	691	0	correct_rejection	NA	0
1	Nonet	83	83	731	7	0	0	561559	692	0	correct_rejection	NA	0
1	Nonet	84	84	732	9	0	0	562268	692	0	correct_rejection	NA	0
1	Nonet	85	85	733	8	0	0	562976	692	0	correct_rejection	NA	0
1	Nonet	86	86	734	7	0	0	563685	692	0	correct_rejection	NA	0
1	Nonet	87	87	735	9	0	0	564394	691	0	correct_rejection	NA	0
1	Nonet	88	88	736	8	0	0	565102	692	0	correct_rejection	NA	0
1	Nonet	89	89	737	7	0	0	565811	691	0	correct_rejection	NA	0
1	Nonet	90	90	738	0	1	3	566519	692	1	hit	450	0
1	Nonet	91	91	739	9	0	0	567228	692	0	correct_rejection	NA	0
1	Nonet	92	92	740	8	0	0	567936	692	0	correct_rejection	NA	0
1	Nonet	93	93	741	7	0	0	568645	692	0	correct_rejection	NA	0
1	Nonet	94	94	742	9	0	0	569354	691	0	correct_rejection	NA	0
1	Nonet	95	95	743	8	0	0	570062	692	0	correct_rejection	NA	0
1	Nonet	96	96	744	7	0	0	570771	691	0	correct_rejection	NA	0
1	Nonet	97	97	745	9	0	0	571479	692	0	correct_rejection	NA	0
1	Nonet	98	98	746	8	0	0	572188	692	0	correct_rejection	NA	0
1	Nonet	99	99	747	7	0	0	572896	692	0	correct_rejection	NA	0
1	Nonet	100	100	748	7	0	0	573605	692	0	correct_rejection	NA	0
1	Nonet	101	101	749	8	0	0	574314	691	0	correct_rejection	NA	0
1	Nonet	102	102	750	9	0	0	575022	692	0	correct_rejection	NA	0
1	Nonet	103	103	751	7	0	0	575731	691	0	correct_rejection	NA	0
1	Nonet	104	104	752	8	0	0	576439	692	0	correct_rejection	NA	0
1	Nonet	105	105	753	9	0	0	577148	691	0	correct_rejection	NA	0
1	Nonet	106	106	754	7	0	0	577856	692	0	correct_rejection	NA	0
1	Nonet	107	107	755	8	0	0	578565	692	0	correct_rejection	NA	0
1	Nonet	108	108	756	9	0	0	579274	691	0	correct_rejection	NA	0
1	Nonet	109	109	757	6	0	0	579982	692	0	correct_rejection	NA	0
1	Nonet	110	110	758	5	0	0	580691	691	0	correct_rejection	NA	0
1	Nonet	111	111	759	4	0	0	581399	692	0	correct_rejection	NA	0
1	Nonet	112	112	760	6	0	0	582108	691	0	correct_rejection	NA	0
1	Nonet	113	113	761	5	0	0	582816	692	0	correct_rejection	NA	0
1	Nonet	114	114	762	4	0	0	583525	692	0	correct_rejection	NA	0
1	Nonet	115	115	763	6	0	0	584233	692	0	correct_rejection	NA	0
1	Nonet	116	116	764	5	0	0	584942	692	0	correct_rejection	NA	0
1	Nonet	117	117	765	0	1	1	585651	691	1	hit	375	0
1	Nonet	118	118	766	4	0	0	586359	692	0	correct_rejection	NA	0
1	Nonet	119	119	767	4	0	0	587068	691	0	correct_rejection	NA	0
1	Nonet	120	120	768	0	1	1	587776	692	1	hit	456	0
1	Nonet	121	121	769	5	0	0	588485	692	0	correct_rejection	NA	0
1	Nonet	122	122	770	6	0	0	589193	692	0	correct_rejection	NA	0
1	Nonet	123	123	771	0	1	2	589902	692	1	hit	372	0
1	Nonet	124	124	772	4	0	0	590611	691	0	correct_rejection	NA	0
1	Nonet	125	125	773	5	0	0	591319	692	0	correct_rejection	NA	0
1	Nonet	126	126	774	6	0	0	592028	691	0	correct_rejection	NA	0
1	Nonet	127	127	775	4	0	0	592736	692	0	correct_rejection	NA	0
1	Nonet	128	128	776	5	0	0	593445	692	0	correct_rejection	NA	0
1	Nonet	129	129	777	6	0	0	594153	692	0	correct_rejection	NA	0
1	Nonet	130	130	778	0	1	3	594862	692	1	hit	412	0
1	Nonet	131	131	779	6	0	0	595571	691	0	correct_rejection	NA	0
1	Nonet	132	132	780	5	0	0	596279	692	0	correct_rejection	NA	0
1	Nonet	133	133	781	4	0	0	596988	691	0	correct_rejection	NA	0
1	Nonet	134	134	782	6	0	0	597696	692	0	correct_rejection	NA	0
1	Nonet	135	135	783	5	0	0	598405	691	0	correct_rejection	NA	0
1	Nonet	136	136	784	4	0	0	599113	692	0	correct_rejection	NA	0
1	Nonet	137	137	785	0	1	2	599822	692	1	hit	382	0
1	Nonet	138	138	786	6	0	0	600530	692	0	correct_rejection	NA	0
1	Nonet	139	139	787	5	0	0	601239	692	0	correct_rejection	NA	0
1	Nonet	140	140	788	4	0	0	601948	691	0	correct_rejection	NA	0
1	Nonet	141	141	789	0	1	3	602656	692	1	hit	362	0
1	Nonet	142	142	790	7	0	0	603365	691	0	correct_rejection	NA	0
1	Nonet	143	143	791	8	0	0	604073	692	0	correct_rejection	NA	0
1	Nonet	144	144	792	9	0	0	604782	692	0	correct_rejection	NA	0
1	Nonet	145	145	793	7	0	0	605490	692	0	correct_rejection	NA	0
1	Nonet	146	146	794	8	0	0	606199	692	0	correct_rejection	NA	0
1	Nonet	147	147	795	0	1	1	606908	691	1	hit	504	0
1	Nonet	148	148	796	9	0	0	607616	692	0	correct_rejection	NA	0
1	Nonet	149	149	797	7	0	0	608325	691	0	correct_rejection	NA	0
1	Nonet	150	150	798	8	0	0	609033	692	0	correct_rejection	NA	0
1	Nonet	151	151	799	9	0	0	609742	692	0	correct_rejection	NA	0
1	Nonet	152	152	800	7	0	0	610450	692	0	correct_rejection	NA	0
1	Nonet	153	153	801	8	0	0	611159	692	0	correct_rejection	NA	0
1	Nonet	154	154	802	0	1	1	611868	691	1	hit	381	0
1	Nonet	155	155	803	9	0	0	612576	692	0	correct_rejection	NA	0
1	Nonet	156	156	804	7	0	0	613285	691	0	correct_rejection	NA	0
1	Nonet	157	157	805	8	0	0	613993	692	0	correct_rejection	NA	0
1	Nonet	158	158	806	9	0	0	614702	692	0	correct_rejection	NA	0
1	Nonet	159	159	807	7	0	0	615410	692	0	correct_rejection	NA	0
1	Nonet	160	160	808	0	1	1	616119	692	1	hit	416	0
1	Nonet	161	161	809	8	0	0	616828	691	0	correct_rejection	NA	0
1	Nonet	162	162	810	9	0	0	617536	692	0	correct_rejection	NA	0
1	Single	1	325	811	9	0	0	691777	692	0	correct_rejection	NA	2079477
1	Single	2	326	812	5	0	0	692486	691	0	correct_rejection	NA	0
1	Single	3	327	813	7	0	0	693194	692	0	correct_rejection	NA	0
1	Single	4	328	814	6	0	0	693903	692	0	correct_rejection	NA	0
1	Single	5	329	815	9	0	0	694611	692	0	correct_rejection	NA	0
1	Single	6	330	816	4	0	0	695320	692	0	correct_rejection	NA	0
1	Single	7	331	817	4	0	0	696029	691	0	correct_rejection	NA	0
1	Single	8	332	818	7	0	0	696737	692	0	correct_rejection	NA	0
1	Single	9	333	819	8	0	0	697446	691	0	correct_rejection	NA	0
1	Single	10	334	820	0	1	1	698154	692	0	miss	NA	0
1	Single	11	335	821	5	0	0	698863	692	0	correct_rejection	NA	0
1	Single	12	336	822	9	0	0	699571	692	0	correct_rejection	NA	0
1	Single	13	337	823	8	0	0	700280	692	0	correct_rejection	NA	0
1	Single	14	338	824	6	0	0	700989	691	0	correct_rejection	NA	0
1	Single	15	339	825	7	0	0	701697	692	0	correct_rejection	NA	0
1	Single	16	340	826	4	0	0	702406	691	0	correct_rejection	NA	0
1	Single	17	341	827	5	0	0	703114	692	0	correct_rejection	NA	0
1	Single	18	342	828	8	0	0	703823	692	0	correct_rejection	NA	0
1	Single	19	343	829	8	0	0	704531	692	0	correct_rejection	NA	0
1	Single	20	344	830	9	0	0	705240	692	0	correct_rejection	NA	0
1	Single	21	345	831	7	0	0	705949	691	0	correct_rejection	NA	0
1	Single	22	346	832	5	0	0	706657	692	0	correct_rejection	NA	0
1	Single	23	347	833	5	0	0	707366	691	0	correct_rejection	NA	0
1	Single	24	348	834	4	0	0	708074	692	0	correct_rejection	NA	0
1	Single	25	349	835	0	1	1	708783	691	0	miss	NA	0
1	Single	26	350	836	9	0	0	709491	692	0	correct_rejection	NA	0
1	Single	27	351	837	9	0	0	710200	692	0	correct_rejection	NA	0
1	Single	28	352	838	6	0	0	710908	692	0	correct_rejection	NA	0
1	Single	29	353	839	8	0	0	711617	692	0	correct_rejection	NA	0
1	Single	30	354	840	4	0	0	712326	691	0	correct_rejection	NA	0
1	Single	31	355	841	6	0	0	713034	692	0	correct_rejection	NA	0
1	Single	32	356	842	0	1	1	713743	691	0	miss	NA	0
1	Single	33	357	843	6	0	0	714451	692	0	correct_rejection	NA	0
1	Single	34	358	844	5	0	0	715160	692	0	correct_rejection	NA	0
1	Single	35	359	845	6	0	0	715868	692	0	correct_rejection	NA	0
1	Single	36	360	846	4	0	0	716577	692	0	correct_rejection	NA	0
1	Single	37	361	847	8	0	0	717286	691	0	correct_rejection	NA	0
1	Single	38	362	848	7	0	0	717994	692	0	correct_rejection	NA	0
1	Single	39	363	849	7	0	0	718703	691	0	correct_rejection	NA	0
1	Single	40	364	850	5	0	0	719411	692	0	correct_rejection	NA	0
1	Single	41	365	851	8	0	0	720120	692	0	correct_rejection	NA	0
1	Single	42	366	852	4	0	0	720828	692	0	correct_rejection	NA	0
1	Single	43	367	853	5	0	0	721537	692	0	correct_rejection	NA	0
1	Single	44	368	854	6	0	0	722246	691	0	correct_rejection	NA	0
1	Single	45	369	855	0	1	1	722954	692	0	miss	NA	0
1	Single	46	370	856	8	0	0	723663	691	0	correct_rejection	NA	0
1	Single	47	371	857	6	0	0	724371	692	0	correct_rejection	NA	0
1	Single	48	372	858	6	0	0	725080	692	0	correct_rejection	NA	0
1	Single	49	373	859	4	0	0	725788	692	0	correct_rejection	NA	0
1	Single	50	374	860	7	0	0	726497	692	0	correct_rejection	NA	0