ID	block	trial_block	trial_cat	trial_total	number	violation	level_violation	onset	duration	Response	Hit_Miss	RT	pre_trial_fixcross_ISI
first_trigger_at: 18113
trigger nr 4 at 21113
2	Triplet	1	649	1	4	0	0	27323	684	0	correct_rejection	NA	6027
2	Triplet	2	650	2	5	0	0	28040	682	0	correct_rejection	NA	0
2	Triplet	3	651	3	6	0	0	28756	684	0	correct_rejection	NA	0
2	Triplet	4	652	4	6	0	0	29473	683	0	correct_rejection	NA	0
2	Triplet	5	653	5	5	0	0	30189	683	0	correct_rejection	NA	0
2	Triplet	6	654	6	4	0	0	30906	683	0	correct_rejection	NA	0
2	Triplet	7	655	7	4	0	0	31622	683	0	correct_rejection	NA	0
2	Triplet	8	656	8	5	0	0	32338	684	0	correct_rejection	NA	0
2	Triplet	9	657	9	6	0	0	33055	683	0	correct_rejection	NA	0
2	Triplet	10	658	10	9	0	0	33771	684	0	correct_rejection	NA	0
2	Triplet	11	659	11	0	1	1	34488	683	0	miss	NA	0
2	Triplet	12	660	12	8	0	0	35204	683	0	correct_rejection	NA	0
2	Triplet	13	661	13	7	0	0	35921	683	0	correct_rejection	NA	0
2	Triplet	14	662	14	6	0	0	36637	683	0	correct_rejection	NA	0
2	Triplet	15	663	15	0	1	1	37353	684	0	miss	NA	0
2	Triplet	16	664	16	5	0	0	38070	683	0	correct_rejection	NA	0
2	Triplet	17	665	17	4	0	0	38786	684	0	correct_rejection	NA	0
2	Triplet	18	666	18	6	0	0	39503	683	0	correct_rejection	NA	0
2	Triplet	19	667	19	5	0	0	40219	683	0	correct_rejection	NA	0
2	Triplet	20	668	20	4	0	0	40935	683	0	correct_rejection	NA	0
2	Triplet	21	669	21	7	0	0	41652	683	0	correct_rejection	NA	0
2	Triplet	22	670	22	8	0	0	42368	683	0	correct_rejection	NA	0
2	Triplet	23	671	23	9	0	0	43085	682	0	correct_rejection	NA	0
2	Triplet	24	672	24	6	0	0	43801	684	0	correct_rejection	NA	0
2	Triplet	25	673	25	0	1	1	44518	683	0	miss	NA	0
2	Triplet	26	674	26	5	0	0	45234	683	0	correct_rejection	NA	0
2	Triplet	27	675	27	4	0	0	45950	683	0	correct_rejection	NA	0
2	Triplet	28	676	28	9	0	0	46667	682	0	correct_rejection	NA	0
2	Triplet	29	677	29	8	0	0	47383	684	0	correct_rejection	NA	0
2	Triplet	30	678	30	7	0	0	48100	683	0	correct_rejection	NA	0
2	Triplet	31	679	31	7	0	0	48816	683	0	correct_rejection	NA	0
2	Triplet	32	680	32	8	0	0	49533	682	0	correct_rejection	NA	0
2	Triplet	33	681	33	9	0	0	50249	683	0	correct_rejection	NA	0
2	Triplet	34	682	34	4	0	0	50965	684	0	correct_rejection	NA	0
2	Triplet	35	683	35	5	0	0	51682	683	0	correct_rejection	NA	0
2	Triplet	36	684	36	6	0	0	52398	684	0	correct_rejection	NA	0
2	Triplet	37	685	37	4	0	0	53115	683	0	correct_rejection	NA	0
2	Triplet	38	686	38	5	0	0	53831	683	0	correct_rejection	NA	0
2	Triplet	39	687	39	0	1	1	54547	684	0	miss	NA	0
2	Triplet	40	688	40	6	0	0	55264	683	0	correct_rejection	NA	0
2	Triplet	41	689	41	7	0	0	55980	684	0	correct_rejection	NA	0
2	Triplet	42	690	42	8	0	0	56697	683	0	correct_rejection	NA	0
2	Triplet	43	691	43	9	0	0	57413	683	0	correct_rejection	NA	0
2	Triplet	44	692	44	7	0	0	58130	683	0	correct_rejection	NA	0
2	Triplet	45	693	45	8	0	0	58846	683	0	correct_rejection	NA	0
2	Triplet	46	694	46	9	0	0	59562	683	0	correct_rejection	NA	0
2	Triplet	47	695	47	9	0	0	60279	683	0	correct_rejection	NA	0
2	Triplet	48	696	48	8	0	0	60995	684	0	correct_rejection	NA	0
2	Triplet	49	697	49	0	1	1	61712	682	0	miss	NA	0
2	Triplet	50	698	50	7	0	0	62428	683	0	correct_rejection	NA	0
2	Triplet	51	699	51	9	0	0	63145	682	0	correct_rejection	NA	0
2	Triplet	52	700	52	8	0	0	63861	683	0	correct_rejection	NA	0
2	Triplet	53	701	53	7	0	0	64577	683	0	correct_rejection	NA	0
2	Triplet	54	702	54	7	0	0	65294	683	0	correct_rejection	NA	0
2	Triplet	55	703	55	0	1	1	66010	683	0	miss	NA	0
2	Triplet	56	704	56	8	0	0	66727	682	0	correct_rejection	NA	0
2	Triplet	57	705	57	9	0	0	67443	683	0	correct_rejection	NA	0
2	Triplet	58	706	58	7	0	0	68160	682	0	correct_rejection	NA	0
2	Triplet	59	707	59	8	0	0	68876	683	0	correct_rejection	NA	0
2	Triplet	60	708	60	0	1	1	69592	683	0	miss	NA	0
2	Triplet	61	709	61	9	0	0	70309	683	0	correct_rejection	NA	0
2	Triplet	62	710	62	6	0	0	71025	684	0	correct_rejection	NA	0
2	Triplet	63	711	63	5	0	0	71742	683	0	correct_rejection	NA	0
2	Triplet	64	712	64	4	0	0	72458	683	0	correct_rejection	NA	0
2	Triplet	65	713	65	6	0	0	73174	683	0	correct_rejection	NA	0
2	Triplet	66	714	66	5	0	0	73891	683	0	correct_rejection	NA	0
2	Triplet	67	715	67	4	0	0	74607	684	0	correct_rejection	NA	0
2	Triplet	68	716	68	0	1	2	75324	683	0	miss	NA	0
2	Triplet	69	717	69	4	0	0	76040	684	0	correct_rejection	NA	0
2	Triplet	70	718	70	5	0	0	76757	682	0	correct_rejection	NA	0
2	Triplet	71	719	71	6	0	0	77473	683	0	correct_rejection	NA	0
2	Triplet	72	720	72	4	0	0	78189	683	0	correct_rejection	NA	0
2	Triplet	73	721	73	5	0	0	78906	683	0	correct_rejection	NA	0
2	Triplet	74	722	74	6	0	0	79622	683	0	correct_rejection	NA	0
2	Triplet	75	723	75	6	0	0	80339	683	0	correct_rejection	NA	0
2	Triplet	76	724	76	5	0	0	81055	683	0	correct_rejection	NA	0
2	Triplet	77	725	77	0	1	1	81772	682	0	miss	NA	0
2	Triplet	78	726	78	4	0	0	82488	683	0	correct_rejection	NA	0
2	Triplet	79	727	79	7	0	0	83204	684	0	correct_rejection	NA	0
2	Triplet	80	728	80	8	0	0	83921	683	0	correct_rejection	NA	0
2	Triplet	81	729	81	9	0	0	84637	684	0	correct_rejection	NA	0
2	Triplet	82	730	82	4	0	0	85354	683	0	correct_rejection	NA	0
2	Triplet	83	731	83	5	0	0	86070	683	0	correct_rejection	NA	0
2	Triplet	84	732	84	6	0	0	86786	684	0	correct_rejection	NA	0
2	Triplet	85	733	85	9	0	0	87503	683	0	correct_rejection	NA	0
2	Triplet	86	734	86	8	0	0	88219	683	0	correct_rejection	NA	0
2	Triplet	87	735	87	7	0	0	88936	682	0	correct_rejection	NA	0
2	Triplet	88	736	88	9	0	0	89652	684	0	correct_rejection	NA	0
2	Triplet	89	737	89	8	0	0	90369	682	0	correct_rejection	NA	0
2	Triplet	90	738	90	7	0	0	91085	683	0	correct_rejection	NA	0
2	Triplet	91	739	91	7	0	0	91801	684	0	correct_rejection	NA	0
2	Triplet	92	740	92	8	0	0	92518	683	0	correct_rejection	NA	0
2	Triplet	93	741	93	9	0	0	93234	684	0	correct_rejection	NA	0
2	Triplet	94	742	94	9	0	0	93951	683	0	correct_rejection	NA	0
2	Triplet	95	743	95	8	0	0	94667	683	0	correct_rejection	NA	0
2	Triplet	96	744	96	7	0	0	95384	683	0	correct_rejection	NA	0
2	Triplet	97	745	97	6	0	0	96100	683	0	correct_rejection	NA	0
2	Triplet	98	746	98	5	0	0	96816	684	0	correct_rejection	NA	0
2	Triplet	99	747	99	4	0	0	97533	683	0	correct_rejection	NA	0
2	Triplet	100	748	100	9	0	0	98249	683	0	correct_rejection	NA	0
2	Triplet	101	749	101	8	0	0	98966	682	0	correct_rejection	NA	0
2	Triplet	102	750	102	0	1	1	99682	683	0	miss	NA	0
2	Triplet	103	751	103	7	0	0	100398	684	0	correct_rejection	NA	0
2	Triplet	104	752	104	4	0	0	101115	683	0	correct_rejection	NA	0
2	Triplet	105	753	105	5	0	0	101831	683	0	correct_rejection	NA	0
2	Triplet	106	754	106	6	0	0	102548	682	0	correct_rejection	NA	0
2	Triplet	107	755	107	7	0	0	103264	683	0	correct_rejection	NA	0
2	Triplet	108	756	108	8	0	0	103981	683	0	correct_rejection	NA	0
2	Triplet	109	757	109	9	0	0	104697	683	0	correct_rejection	NA	0
2	Triplet	110	758	110	0	1	2	105413	683	0	miss	NA	0
2	Triplet	111	759	111	9	0	0	106130	683	0	correct_rejection	NA	0
2	Triplet	112	760	112	8	0	0	106846	684	0	correct_rejection	NA	0
2	Triplet	113	761	113	7	0	0	107563	682	0	correct_rejection	NA	0
2	Triplet	114	762	114	4	0	0	108279	683	0	correct_rejection	NA	0
2	Triplet	115	763	115	5	0	0	108996	682	0	correct_rejection	NA	0
2	Triplet	116	764	116	6	0	0	109712	683	0	correct_rejection	NA	0
2	Triplet	117	765	117	0	1	2	110428	683	0	miss	NA	0
2	Triplet	118	766	118	4	0	0	111145	683	0	correct_rejection	NA	0
2	Triplet	119	767	119	5	0	0	111861	683	0	correct_rejection	NA	0
2	Triplet	120	768	120	6	0	0	112578	682	0	correct_rejection	NA	0
2	Triplet	121	769	121	9	0	0	113294	683	0	correct_rejection	NA	0
2	Triplet	122	770	122	8	0	0	114010	683	0	correct_rejection	NA	0
2	Triplet	123	771	123	0	1	1	114727	683	0	miss	NA	0
2	Triplet	124	772	124	7	0	0	115443	684	0	correct_rejection	NA	0
2	Triplet	125	773	125	7	0	0	116160	682	0	correct_rejection	NA	0
2	Triplet	126	774	126	8	0	0	116876	684	0	correct_rejection	NA	0
2	Triplet	127	775	127	9	0	0	117593	682	0	correct_rejection	NA	0
2	Triplet	128	776	128	0	1	2	118309	683	0	miss	NA	0
2	Triplet	129	777	129	6	0	0	119025	683	0	correct_rejection	NA	0
2	Triplet	130	778	130	5	0	0	119742	683	0	correct_rejection	NA	0
2	Triplet	131	779	131	4	0	0	120458	684	0	correct_rejection	NA	0
2	Triplet	132	780	132	7	0	0	121175	683	0	correct_rejection	NA	0
2	Triplet	133	781	133	8	0	0	121891	683	0	correct_rejection	NA	0
2	Triplet	134	782	134	9	0	0	122608	683	0	correct_rejection	NA	0
2	Triplet	135	783	135	7	0	0	123324	683	0	correct_rejection	NA	0
2	Triplet	136	784	136	8	0	0	124040	684	0	correct_rejection	NA	0
2	Triplet	137	785	137	9	0	0	124757	682	0	correct_rejection	NA	0
2	Triplet	138	786	138	4	0	0	125473	684	0	correct_rejection	NA	0
2	Triplet	139	787	139	0	1	1	126190	683	0	miss	NA	0
2	Triplet	140	788	140	5	0	0	126906	683	0	correct_rejection	NA	0
2	Triplet	141	789	141	6	0	0	127623	683	0	correct_rejection	NA	0
2	Triplet	142	790	142	0	1	2	128339	683	0	miss	NA	0
2	Triplet	143	791	143	6	0	0	129055	684	0	correct_rejection	NA	0
2	Triplet	144	792	144	5	0	0	129772	682	0	correct_rejection	NA	0
2	Triplet	145	793	145	4	0	0	130488	683	0	correct_rejection	NA	0
2	Triplet	146	794	146	6	0	0	131205	682	0	correct_rejection	NA	0
2	Triplet	147	795	147	5	0	0	131921	683	0	correct_rejection	NA	0
2	Triplet	148	796	148	4	0	0	132637	683	0	correct_rejection	NA	0
2	Triplet	149	797	149	0	1	2	133354	683	0	miss	NA	0
2	Triplet	150	798	150	9	0	0	134070	684	0	correct_rejection	NA	0
2	Triplet	151	799	151	8	0	0	134787	683	0	correct_rejection	NA	0
2	Triplet	152	800	152	7	0	0	135503	683	0	correct_rejection	NA	0
2	Triplet	153	801	153	0	1	2	136220	683	0	miss	NA	0
2	Triplet	154	802	154	9	0	0	136936	683	0	correct_rejection	NA	0
2	Triplet	155	803	155	8	0	0	137652	684	0	correct_rejection	NA	0
2	Triplet	156	804	156	7	0	0	138369	683	0	correct_rejection	NA	0
2	Triplet	157	805	157	6	0	0	139085	684	0	correct_rejection	NA	0
2	Triplet	158	806	158	5	0	0	139802	683	0	correct_rejection	NA	0
2	Triplet	159	807	159	4	0	0	140518	683	0	correct_rejection	NA	0
2	Triplet	160	808	160	4	0	0	141235	682	0	correct_rejection	NA	0
2	Triplet	161	809	161	5	0	0	141951	683	0	correct_rejection	NA	0
2	Triplet	162	810	162	6	0	0	142667	684	0	correct_rejection	NA	0
2	Correct	1	325	163	4	0	0	151431	683	0	correct_rejection	NA	8010
2	Correct	2	326	164	5	0	0	152147	683	0	correct_rejection	NA	0
2	Correct	3	327	165	6	0	0	152864	683	0	correct_rejection	NA	0
2	Correct	4	328	166	4	0	0	153580	684	0	correct_rejection	NA	0
2	Correct	5	329	167	5	0	0	154297	683	0	correct_rejection	NA	0
2	Correct	6	330	168	6	0	0	155013	683	0	correct_rejection	NA	0
2	Correct	7	331	169	4	0	0	155730	682	0	correct_rejection	NA	0
2	Correct	8	332	170	5	0	0	156446	683	0	correct_rejection	NA	0
2	Correct	9	333	171	6	0	0	157162	684	0	correct_rejection	NA	0
2	Correct	10	334	172	0	1	3	157879	683	0	miss	NA	0
2	Correct	11	335	173	6	0	0	158595	683	0	correct_rejection	NA	0
2	Correct	12	336	174	5	0	0	159312	683	0	correct_rejection	NA	0
2	Correct	13	337	175	4	0	0	160028	683	0	correct_rejection	NA	0
2	Correct	14	338	176	6	0	0	160745	682	0	correct_rejection	NA	0
2	Correct	15	339	177	5	0	0	161461	683	0	correct_rejection	NA	0
2	Correct	16	340	178	4	0	0	162177	684	0	correct_rejection	NA	0
2	Correct	17	341	179	6	0	0	162894	683	0	correct_rejection	NA	0
2	Correct	18	342	180	0	1	1	163610	683	0	miss	NA	0
2	Correct	19	343	181	5	0	0	164327	683	0	correct_rejection	NA	0
2	Correct	20	344	182	4	0	0	165043	683	0	correct_rejection	NA	0
2	Correct	21	345	183	9	0	0	165759	684	0	correct_rejection	NA	0
2	Correct	22	346	184	8	0	0	166476	683	0	correct_rejection	NA	0
2	Correct	23	347	185	7	0	0	167192	683	0	correct_rejection	NA	0
2	Correct	24	348	186	0	1	2	167909	683	0	miss	NA	0
2	Correct	25	349	187	9	0	0	168625	684	0	correct_rejection	NA	0
2	Correct	26	350	188	8	0	0	169342	683	0	correct_rejection	NA	0
2	Correct	27	351	189	7	0	0	170058	683	0	correct_rejection	NA	0
2	Correct	28	352	190	9	0	0	170774	684	0	correct_rejection	NA	0
2	Correct	29	353	191	8	0	0	171491	682	0	correct_rejection	NA	0
2	Correct	30	354	192	7	0	0	172207	683	0	correct_rejection	NA	0
2	Correct	31	355	193	7	0	0	172924	683	0	correct_rejection	NA	0
2	Correct	32	356	194	8	0	0	173640	683	0	correct_rejection	NA	0
2	Correct	33	357	195	9	0	0	174357	682	0	correct_rejection	NA	0
2	Correct	34	358	196	7	0	0	175073	683	0	correct_rejection	NA	0
2	Correct	35	359	197	8	0	0	175789	683	0	correct_rejection	NA	0
2	Correct	36	360	198	9	0	0	176506	683	0	correct_rejection	NA	0
2	Correct	37	361	199	7	0	0	177222	684	0	correct_rejection	NA	0
2	Correct	38	362	200	0	1	1	177939	683	0	miss	NA	0
2	Correct	39	363	201	8	0	0	178655	683	0	correct_rejection	NA	0
2	Correct	40	364	202	9	0	0	179371	684	0	correct_rejection	NA	0
2	Correct	41	365	203	4	0	0	180088	683	0	correct_rejection	NA	0
2	Correct	42	366	204	5	0	0	180804	684	0	correct_rejection	NA	0
2	Correct	43	367	205	6	0	0	181521	683	0	correct_rejection	NA	0
2	Correct	44	368	206	4	0	0	182237	684	0	correct_rejection	NA	0
2	Correct	45	369	207	5	0	0	182954	682	0	correct_rejection	NA	0
2	Correct	46	370	208	6	0	0	183670	683	0	correct_rejection	NA	0
2	Correct	47	371	209	4	0	0	184386	683	0	correct_rejection	NA	0
2	Correct	48	372	210	0	1	1	185103	683	0	miss	NA	0
2	Correct	49	373	211	5	0	0	185819	684	0	correct_rejection	NA	0
2	Correct	50	374	212	6	0	0	186536	683	0	correct_rejection	NA	0
2	Correct	51	375	213	6	0	0	187252	683	0	correct_rejection	NA	0
2	Correct	52	376	214	5	0	0	187969	682	0	correct_rejection	NA	0
2	Correct	53	377	215	4	0	0	188685	683	0	correct_rejection	NA	0
2	Correct	54	378	216	6	0	0	189401	684	0	correct_rejection	NA	0
2	Correct	55	379	217	5	0	0	190118	683	0	correct_rejection	NA	0
2	Correct	56	380	218	4	0	0	190834	683	0	correct_rejection	NA	0
2	Correct	57	381	219	6	0	0	191551	683	0	correct_rejection	NA	0
2	Correct	58	382	220	5	0	0	192267	683	0	correct_rejection	NA	0
2	Correct	59	383	221	4	0	0	192983	683	0	correct_rejection	NA	0
2	Correct	60	384	222	9	0	0	193700	683	0	correct_rejection	NA	0
2	Correct	61	385	223	8	0	0	194416	683	0	correct_rejection	NA	0
2	Correct	62	386	224	7	0	0	195133	683	0	correct_rejection	NA	0
2	Correct	63	387	225	9	0	0	195849	683	0	correct_rejection	NA	0
2	Correct	64	388	226	8	0	0	196566	682	0	correct_rejection	NA	0
2	Correct	65	389	227	0	1	1	197282	683	0	miss	NA	0
2	Correct	66	390	228	7	0	0	197998	683	0	correct_rejection	NA	0
2	Correct	67	391	229	9	0	0	198715	683	0	correct_rejection	NA	0
2	Correct	68	392	230	8	0	0	199431	684	0	correct_rejection	NA	0
2	Correct	69	393	231	7	0	0	200148	683	0	correct_rejection	NA	0
2	Correct	70	394	232	7	0	0	200864	683	0	correct_rejection	NA	0
2	Correct	71	395	233	8	0	0	201581	683	0	correct_rejection	NA	0
2	Correct	72	396	234	9	0	0	202297	683	0	correct_rejection	NA	0
2	Correct	73	397	235	0	1	2	203013	683	0	miss	NA	0
2	Correct	74	398	236	7	0	0	203730	683	0	correct_rejection	NA	0
2	Correct	75	399	237	8	0	0	204446	684	0	correct_rejection	NA	0
2	Correct	76	400	238	0	1	1	205163	683	0	miss	NA	0
2	Correct	77	401	239	9	0	0	205879	683	0	correct_rejection	NA	0
2	Correct	78	402	240	7	0	0	206596	682	0	correct_rejection	NA	0
2	Correct	79	403	241	8	0	0	207312	683	0	correct_rejection	NA	0
2	Correct	80	404	242	0	1	1	208028	683	0	miss	NA	0
2	Correct	81	405	243	9	0	0	208745	683	0	correct_rejection	NA	0
2	Correct	82	406	244	4	0	0	209461	683	0	correct_rejection	NA	0
2	Correct	83	407	245	5	0	0	210178	682	0	correct_rejection	NA	0
2	Correct	84	408	246	0	1	1	210894	683	0	miss	NA	0
2	Correct	85	409	247	6	0	0	211610	683	0	correct_rejection	NA	0
2	Correct	86	410	248	4	0	0	212327	682	0	correct_rejection	NA	0
2	Correct	87	411	249	5	0	0	213043	683	0	correct_rejection	NA	0
2	Correct	88	412	250	6	0	0	213760	682	0	correct_rejection	NA	0
2	Correct	89	413	251	4	0	0	214476	683	0	correct_rejection	NA	0
2	Correct	90	414	252	5	0	0	215193	682	0	correct_rejection	NA	0
2	Correct	91	415	253	6	0	0	215909	683	0	correct_rejection	NA	0
2	Correct	92	416	254	6	0	0	216625	684	0	correct_rejection	NA	0
2	Correct	93	417	255	5	0	0	217342	683	0	correct_rejection	NA	0
2	Correct	94	418	256	4	0	0	218058	683	0	correct_rejection	NA	0
2	Correct	95	419	257	6	0	0	218775	683	0	correct_rejection	NA	0
2	Correct	96	420	258	5	0	0	219491	683	0	correct_rejection	NA	0
2	Correct	97	421	259	4	0	0	220208	683	0	correct_rejection	NA	0
2	Correct	98	422	260	6	0	0	220924	683	0	correct_rejection	NA	0
2	Correct	99	423	261	5	0	0	221640	684	0	correct_rejection	NA	0
2	Correct	100	424	262	4	0	0	222357	683	0	correct_rejection	NA	0
2	Correct	101	425	263	9	0	0	223073	683	0	correct_rejection	NA	0
2	Correct	102	426	264	8	0	0	223790	683	0	correct_rejection	NA	0
2	Correct	103	427	265	7	0	0	224506	683	0	correct_rejection	NA	0
2	Correct	104	428	266	0	1	2	225222	684	0	miss	NA	0
2	Correct	105	429	267	9	0	0	225939	683	0	correct_rejection	NA	0
2	Correct	106	430	268	8	0	0	226655	683	0	correct_rejection	NA	0
2	Correct	107	431	269	7	0	0	227372	682	0	correct_rejection	NA	0
2	Correct	108	432	270	9	0	0	228088	683	0	correct_rejection	NA	0
2	Correct	109	433	271	8	0	0	228805	682	0	correct_rejection	NA	0
2	Correct	110	434	272	7	0	0	229521	683	0	correct_rejection	NA	0
2	Correct	111	435	273	0	1	3	230237	684	0	miss	NA	0
2	Correct	112	436	274	7	0	0	230954	683	0	correct_rejection	NA	0
2	Correct	113	437	275	8	0	0	231670	683	0	correct_rejection	NA	0
2	Correct	114	438	276	9	0	0	232387	683	0	correct_rejection	NA	0
2	Correct	115	439	277	7	0	0	233103	683	0	correct_rejection	NA	0
2	Correct	116	440	278	0	1	1	233820	682	0	miss	NA	0
2	Correct	117	441	279	8	0	0	234536	683	0	correct_rejection	NA	0
2	Correct	118	442	280	9	0	0	235252	683	0	correct_rejection	NA	0
2	Correct	119	443	281	7	0	0	235969	683	0	correct_rejection	NA	0
2	Correct	120	444	282	0	1	1	236685	683	0	miss	NA	0
2	Correct	121	445	283	8	0	0	237402	682	0	correct_rejection	NA	0
2	Correct	122	446	284	9	0	0	238118	683	0	correct_rejection	NA	0
2	Correct	123	447	285	4	0	0	238834	684	0	correct_rejection	NA	0
2	Correct	124	448	286	5	0	0	239551	683	0	correct_rejection	NA	0
2	Correct	125	449	287	6	0	0	240267	684	0	correct_rejection	NA	0
2	Correct	126	450	288	4	0	0	240984	683	0	correct_rejection	NA	0
2	Correct	127	451	289	0	1	1	241700	684	0	miss	NA	0
2	Correct	128	452	290	5	0	0	242417	682	0	correct_rejection	NA	0
2	Correct	129	453	291	6	0	0	243133	683	0	correct_rejection	NA	0
2	Correct	130	454	292	4	0	0	243849	683	0	correct_rejection	NA	0
2	Correct	131	455	293	5	0	0	244566	683	0	correct_rejection	NA	0
2	Correct	132	456	294	6	0	0	245282	683	0	correct_rejection	NA	0
2	Correct	133	457	295	6	0	0	245999	683	0	correct_rejection	NA	0
2	Correct	134	458	296	5	0	0	246715	683	0	correct_rejection	NA	0
2	Correct	135	459	297	0	1	1	247432	683	0	miss	NA	0
2	Correct	136	460	298	4	0	0	248148	683	0	correct_rejection	NA	0
2	Correct	137	461	299	6	0	0	248864	683	0	correct_rejection	NA	0
2	Correct	138	462	300	5	0	0	249581	682	0	correct_rejection	NA	0
2	Correct	139	463	301	4	0	0	250297	683	0	correct_rejection	NA	0
2	Correct	140	464	302	6	0	0	251014	683	0	correct_rejection	NA	0
2	Correct	141	465	303	5	0	0	251730	683	0	correct_rejection	NA	0
2	Correct	142	466	304	4	0	0	252446	684	0	correct_rejection	NA	0
2	Correct	143	467	305	9	0	0	253163	683	0	correct_rejection	NA	0
2	Correct	144	468	306	8	0	0	253879	683	0	correct_rejection	NA	0
2	Correct	145	469	307	7	0	0	254596	683	0	correct_rejection	NA	0
2	Correct	146	470	308	9	0	0	255312	684	0	correct_rejection	NA	0
2	Correct	147	471	309	0	1	1	256029	683	0	miss	NA	0
2	Correct	148	472	310	8	0	0	256745	683	0	correct_rejection	NA	0
2	Correct	149	473	311	7	0	0	257461	684	0	correct_rejection	NA	0
2	Correct	150	474	312	9	0	0	258178	683	0	correct_rejection	NA	0
2	Correct	151	475	313	8	0	0	258894	684	0	correct_rejection	NA	0
2	Correct	152	476	314	7	0	0	259611	683	0	correct_rejection	NA	0
2	Correct	153	477	315	7	0	0	260327	683	0	correct_rejection	NA	0
2	Correct	154	478	316	8	0	0	261044	682	0	correct_rejection	NA	0
2	Correct	155	479	317	9	0	0	261760	683	0	correct_rejection	NA	0
2	Correct	156	480	318	0	1	2	262476	683	0	miss	NA	0
2	Correct	157	481	319	7	0	0	263193	683	0	correct_rejection	NA	0
2	Correct	158	482	320	8	0	0	263909	684	0	correct_rejection	NA	0
2	Correct	159	483	321	9	0	0	264626	682	0	correct_rejection	NA	0
2	Correct	160	484	322	7	0	0	265342	683	0	correct_rejection	NA	0
2	Correct	161	485	323	8	0	0	266058	684	0	correct_rejection	NA	0
2	Correct	162	486	324	9	0	0	266775	683	0	correct_rejection	NA	0
2	Triplet	1	487	325	6	0	0	275105	683	0	correct_rejection	NA	7569
2	Triplet	2	488	326	5	0	0	275822	683	0	correct_rejection	NA	0
2	Triplet	3	489	327	4	0	0	276538	684	0	correct_rejection	NA	0
2	Triplet	4	490	328	4	0	0	277255	682	0	correct_rejection	NA	0
2	Triplet	5	491	329	5	0	0	277971	683	0	correct_rejection	NA	0
2	Triplet	6	492	330	6	0	0	278688	683	0	correct_rejection	NA	0
2	Triplet	7	493	331	9	0	0	279404	683	0	correct_rejection	NA	0
2	Triplet	8	494	332	8	0	0	280120	684	0	correct_rejection	NA	0
2	Triplet	9	495	333	7	0	0	280837	683	0	correct_rejection	NA	0
2	Triplet	10	496	334	0	1	2	281553	684	0	miss	NA	0
2	Triplet	11	497	335	4	0	0	282270	682	0	correct_rejection	NA	0
2	Triplet	12	498	336	5	0	0	282986	683	0	correct_rejection	NA	0
2	Triplet	13	499	337	0	1	1	283702	684	0	miss	NA	0
2	Triplet	14	500	338	6	0	0	284419	683	0	correct_rejection	NA	0
2	Triplet	15	501	339	6	0	0	285135	684	0	correct_rejection	NA	0
2	Triplet	16	502	340	5	0	0	285852	682	0	correct_rejection	NA	0
2	Triplet	17	503	341	0	1	1	286568	684	0	miss	NA	0
2	Triplet	18	504	342	4	0	0	287285	682	0	correct_rejection	NA	0
2	Triplet	19	505	343	6	0	0	288001	683	0	correct_rejection	NA	0
2	Triplet	20	506	344	5	0	0	288717	684	0	correct_rejection	NA	0
2	Triplet	21	507	345	4	0	0	289434	682	0	correct_rejection	NA	0
2	Triplet	22	508	346	7	0	0	290150	683	0	correct_rejection	NA	0
2	Triplet	23	509	347	0	1	1	290867	682	0	miss	NA	0
2	Triplet	24	510	348	8	0	0	291583	683	0	correct_rejection	NA	0
2	Triplet	25	511	349	9	0	0	292300	682	0	correct_rejection	NA	0
2	Triplet	26	512	350	6	0	0	293016	683	0	correct_rejection	NA	0
2	Triplet	27	513	351	0	1	1	293732	683	0	miss	NA	0
2	Triplet	28	514	352	5	0	0	294449	683	0	correct_rejection	NA	0
2	Triplet	29	515	353	4	0	0	295165	683	0	correct_rejection	NA	0
2	Triplet	30	516	354	9	0	0	295882	683	0	correct_rejection	NA	0
2	Triplet	31	517	355	0	1	1	296598	683	0	miss	NA	0
2	Triplet	32	518	356	8	0	0	297314	683	0	correct_rejection	NA	0
2	Triplet	33	519	357	7	0	0	298031	683	0	correct_rejection	NA	0
2	Triplet	34	520	358	9	0	0	298747	683	0	correct_rejection	NA	0
2	Triplet	35	521	359	8	0	0	299464	683	0	correct_rejection	NA	0
2	Triplet	36	522	360	0	1	1	300180	684	0	miss	NA	0
2	Triplet	37	523	361	7	0	0	300897	683	0	correct_rejection	NA	0
2	Triplet	38	524	362	7	0	0	301613	683	0	correct_rejection	NA	0
2	Triplet	39	525	363	8	0	0	302329	684	0	correct_rejection	NA	0
2	Triplet	40	526	364	9	0	0	303046	683	0	correct_rejection	NA	0
2	Triplet	41	527	365	0	1	2	303762	683	0	miss	NA	0
2	Triplet	42	528	366	4	0	0	304479	683	0	correct_rejection	NA	0
2	Triplet	43	529	367	5	0	0	305195	683	0	correct_rejection	NA	0
2	Triplet	44	530	368	6	0	0	305912	683	0	correct_rejection	NA	0
2	Triplet	45	531	369	4	0	0	306628	683	0	correct_rejection	NA	0
2	Triplet	46	532	370	5	0	0	307344	684	0	correct_rejection	NA	0
2	Triplet	47	533	371	6	0	0	308061	682	0	correct_rejection	NA	0
2	Triplet	48	534	372	7	0	0	308777	684	0	correct_rejection	NA	0
2	Triplet	49	535	373	8	0	0	309494	682	0	correct_rejection	NA	0
2	Triplet	50	536	374	9	0	0	310210	683	0	correct_rejection	NA	0
2	Triplet	51	537	375	7	0	0	310926	683	0	correct_rejection	NA	0
2	Triplet	52	538	376	8	0	0	311643	683	0	correct_rejection	NA	0
2	Triplet	53	539	377	0	1	1	312359	684	0	miss	NA	0
2	Triplet	54	540	378	9	0	0	313076	682	0	correct_rejection	NA	0
2	Triplet	55	541	379	9	0	0	313792	684	0	correct_rejection	NA	0
2	Triplet	56	542	380	8	0	0	314509	683	0	correct_rejection	NA	0
2	Triplet	57	543	381	7	0	0	315225	683	0	correct_rejection	NA	0
2	Triplet	58	544	382	4	0	0	315941	683	0	correct_rejection	NA	0
2	Triplet	59	545	383	5	0	0	316658	683	0	correct_rejection	NA	0
2	Triplet	60	546	384	0	1	1	317374	684	0	miss	NA	0
2	Triplet	61	547	385	6	0	0	318091	683	0	correct_rejection	NA	0
2	Triplet	62	548	386	7	0	0	318807	683	0	correct_rejection	NA	0
2	Triplet	63	549	387	8	0	0	319524	682	0	correct_rejection	NA	0
2	Triplet	64	550	388	9	0	0	320240	683	0	correct_rejection	NA	0
2	Triplet	65	551	389	6	0	0	320956	684	0	correct_rejection	NA	0
2	Triplet	66	552	390	0	1	1	321673	683	0	miss	NA	0
2	Triplet	67	553	391	5	0	0	322389	684	0	correct_rejection	NA	0
2	Triplet	68	554	392	4	0	0	323106	682	0	correct_rejection	NA	0
2	Triplet	69	555	393	6	0	0	323822	683	0	correct_rejection	NA	0
2	Triplet	70	556	394	5	0	0	324538	684	0	correct_rejection	NA	0
2	Triplet	71	557	395	4	0	0	325255	683	0	correct_rejection	NA	0
2	Triplet	72	558	396	4	0	0	325971	683	0	correct_rejection	NA	0
2	Triplet	73	559	397	5	0	0	326688	682	0	correct_rejection	NA	0
2	Triplet	74	560	398	6	0	0	327404	683	0	correct_rejection	NA	0
2	Triplet	75	561	399	4	0	0	328121	682	0	correct_rejection	NA	0
2	Triplet	76	562	400	5	0	0	328837	683	0	correct_rejection	NA	0
2	Triplet	77	563	401	6	0	0	329553	684	0	correct_rejection	NA	0
2	Triplet	78	564	402	0	1	2	330270	683	0	miss	NA	0
2	Triplet	79	565	403	6	0	0	330986	683	0	correct_rejection	NA	0
2	Triplet	80	566	404	5	0	0	331703	682	0	correct_rejection	NA	0
2	Triplet	81	567	405	4	0	0	332419	683	0	correct_rejection	NA	0
2	Triplet	82	568	406	7	0	0	333136	683	0	correct_rejection	NA	0
2	Triplet	83	569	407	0	1	1	333852	683	0	miss	NA	0
2	Triplet	84	570	408	8	0	0	334568	684	0	correct_rejection	NA	0
2	Triplet	85	571	409	9	0	0	335285	683	0	correct_rejection	NA	0
2	Triplet	86	572	410	0	1	2	336001	684	0	miss	NA	0
2	Triplet	87	573	411	9	0	0	336718	683	0	correct_rejection	NA	0
2	Triplet	88	574	412	8	0	0	337434	683	0	correct_rejection	NA	0
2	Triplet	89	575	413	0	1	1	338151	683	0	miss	NA	0
2	Triplet	90	576	414	7	0	0	338867	683	0	correct_rejection	NA	0
2	Triplet	91	577	415	4	0	0	339583	683	0	correct_rejection	NA	0
2	Triplet	92	578	416	5	0	0	340300	683	0	correct_rejection	NA	0
2	Triplet	93	579	417	6	0	0	341016	684	0	correct_rejection	NA	0
2	Triplet	94	580	418	9	0	0	341733	683	0	correct_rejection	NA	0
2	Triplet	95	581	419	8	0	0	342449	683	0	correct_rejection	NA	0
2	Triplet	96	582	420	7	0	0	343165	684	0	correct_rejection	NA	0
2	Triplet	97	583	421	9	0	0	343882	682	0	correct_rejection	NA	0
2	Triplet	98	584	422	8	0	0	344598	683	0	correct_rejection	NA	0
2	Triplet	99	585	423	0	1	1	345315	683	0	miss	NA	0
2	Triplet	100	586	424	7	0	0	346031	684	0	correct_rejection	NA	0
2	Triplet	101	587	425	6	0	0	346748	683	0	correct_rejection	NA	0
2	Triplet	102	588	426	5	0	0	347464	683	0	correct_rejection	NA	0
2	Triplet	103	589	427	4	0	0	348180	683	0	correct_rejection	NA	0
2	Triplet	104	590	428	9	0	0	348897	683	0	correct_rejection	NA	0
2	Triplet	105	591	429	8	0	0	349613	684	0	correct_rejection	NA	0
2	Triplet	106	592	430	7	0	0	350330	682	0	correct_rejection	NA	0
2	Triplet	107	593	431	7	0	0	351046	683	0	correct_rejection	NA	0
2	Triplet	108	594	432	8	0	0	351763	683	0	correct_rejection	NA	0
2	Triplet	109	595	433	9	0	0	352479	683	0	correct_rejection	NA	0
2	Triplet	110	596	434	7	0	0	353195	683	0	correct_rejection	NA	0
2	Triplet	111	597	435	8	0	0	353912	683	0	correct_rejection	NA	0
2	Triplet	112	598	436	9	0	0	354628	684	0	correct_rejection	NA	0
2	Triplet	113	599	437	6	0	0	355345	682	0	correct_rejection	NA	0
2	Triplet	114	600	438	5	0	0	356061	683	0	correct_rejection	NA	0
2	Triplet	115	601	439	4	0	0	356777	684	0	correct_rejection	NA	0
2	Triplet	116	602	440	0	1	2	357494	683	0	miss	NA	0
2	Triplet	117	603	441	9	0	0	358210	684	0	correct_rejection	NA	0
2	Triplet	118	604	442	8	0	0	358927	683	0	correct_rejection	NA	0
2	Triplet	119	605	443	7	0	0	359643	684	0	correct_rejection	NA	0
2	Triplet	120	606	444	6	0	0	360360	683	0	correct_rejection	NA	0
2	Triplet	121	607	445	5	0	0	361076	683	0	correct_rejection	NA	0
2	Triplet	122	608	446	4	0	0	361792	684	0	correct_rejection	NA	0
2	Triplet	123	609	447	7	0	0	362509	683	0	correct_rejection	NA	0
2	Triplet	124	610	448	8	0	0	363225	683	0	correct_rejection	NA	0
2	Triplet	125	611	449	9	0	0	363942	682	0	correct_rejection	NA	0
2	Triplet	126	612	450	7	0	0	364658	683	0	correct_rejection	NA	0
2	Triplet	127	613	451	8	0	0	365375	683	0	correct_rejection	NA	0
2	Triplet	128	614	452	9	0	0	366091	683	0	correct_rejection	NA	0
2	Triplet	129	615	453	4	0	0	366807	684	0	correct_rejection	NA	0
2	Triplet	130	616	454	5	0	0	367524	683	0	correct_rejection	NA	0
2	Triplet	131	617	455	6	0	0	368240	684	0	correct_rejection	NA	0
2	Triplet	132	618	456	6	0	0	368957	682	0	correct_rejection	NA	0
2	Triplet	133	619	457	5	0	0	369673	683	0	correct_rejection	NA	0
2	Triplet	134	620	458	4	0	0	370389	684	0	correct_rejection	NA	0
2	Triplet	135	621	459	4	0	0	371106	682	0	correct_rejection	NA	0
2	Triplet	136	622	460	5	0	0	371822	683	0	correct_rejection	NA	0
2	Triplet	137	623	461	6	0	0	372539	683	0	correct_rejection	NA	0
2	Triplet	138	624	462	7	0	0	373255	684	0	correct_rejection	NA	0
2	Triplet	139	625	463	8	0	0	373972	682	0	correct_rejection	NA	0
2	Triplet	140	626	464	9	0	0	374688	683	0	correct_rejection	NA	0
2	Triplet	141	627	465	9	0	0	375404	683	0	correct_rejection	NA	0
2	Triplet	142	628	466	8	0	0	376121	683	0	correct_rejection	NA	0
2	Triplet	143	629	467	7	0	0	376837	683	0	correct_rejection	NA	0
2	Triplet	144	630	468	0	1	2	377554	683	0	miss	NA	0
2	Triplet	145	631	469	9	0	0	378270	683	0	correct_rejection	NA	0
2	Triplet	146	632	470	8	0	0	378987	682	0	correct_rejection	NA	0
2	Triplet	147	633	471	7	0	0	379703	683	0	correct_rejection	NA	0
2	Triplet	148	634	472	4	0	0	380419	684	0	correct_rejection	NA	0
2	Triplet	149	635	473	5	0	0	381136	682	0	correct_rejection	NA	0
2	Triplet	150	636	474	6	0	0	381852	684	0	correct_rejection	NA	0
2	Triplet	151	637	475	4	0	0	382569	683	0	correct_rejection	NA	0
2	Triplet	152	638	476	5	0	0	383285	683	0	correct_rejection	NA	0
2	Triplet	153	639	477	6	0	0	384001	684	0	correct_rejection	NA	0
2	Triplet	154	640	478	9	0	0	384718	683	0	correct_rejection	NA	0
2	Triplet	155	641	479	8	0	0	385434	684	0	correct_rejection	NA	0
2	Triplet	156	642	480	7	0	0	386151	682	0	correct_rejection	NA	0
2	Triplet	157	643	481	7	0	0	386867	683	0	correct_rejection	NA	0
2	Triplet	158	644	482	8	0	0	387584	683	0	correct_rejection	NA	0
2	Triplet	159	645	483	9	0	0	388300	683	0	correct_rejection	NA	0
2	Triplet	160	646	484	6	0	0	389016	683	0	correct_rejection	NA	0
2	Triplet	161	647	485	5	0	0	389733	683	0	correct_rejection	NA	0
2	Triplet	162	648	486	4	0	0	390449	684	0	correct_rejection	NA	0
2	Nonet	1	649	487	6	0	0	400446	683	0	correct_rejection	NA	9241
2	Nonet	2	650	488	5	0	0	401162	684	0	correct_rejection	NA	0
2	Nonet	3	651	489	4	0	0	401879	683	0	correct_rejection	NA	0
2	Nonet	4	652	490	6	0	0	402595	683	0	correct_rejection	NA	0
2	Nonet	5	653	491	5	0	0	403312	682	0	correct_rejection	NA	0
2	Nonet	6	654	492	4	0	0	404028	683	0	correct_rejection	NA	0
2	Nonet	7	655	493	6	0	0	404744	684	0	correct_rejection	NA	0
2	Nonet	8	656	494	5	0	0	405461	683	0	correct_rejection	NA	0
2	Nonet	9	657	495	4	0	0	406177	683	0	correct_rejection	NA	0
2	Nonet	10	658	496	9	0	0	406894	682	0	correct_rejection	NA	0
2	Nonet	11	659	497	8	0	0	407610	683	0	correct_rejection	NA	0
2	Nonet	12	660	498	7	0	0	408327	682	0	correct_rejection	NA	0
2	Nonet	13	661	499	9	0	0	409043	683	0	correct_rejection	NA	0
2	Nonet	14	662	500	8	0	0	409759	684	0	correct_rejection	NA	0
2	Nonet	15	663	501	7	0	0	410476	682	0	correct_rejection	NA	0
2	Nonet	16	664	502	0	1	2	411192	684	0	miss	NA	0
2	Nonet	17	665	503	9	0	0	411909	682	0	correct_rejection	NA	0
2	Nonet	18	666	504	8	0	0	412625	683	0	correct_rejection	NA	0
2	Nonet	19	667	505	7	0	0	413341	684	0	correct_rejection	NA	0
2	Nonet	20	668	506	0	1	3	414058	683	0	miss	NA	0
2	Nonet	21	669	507	4	0	0	414774	684	0	correct_rejection	NA	0
2	Nonet	22	670	508	5	0	0	415491	683	0	correct_rejection	NA	0
2	Nonet	23	671	509	0	1	1	416207	684	0	miss	NA	0
2	Nonet	24	672	510	6	0	0	416924	683	0	correct_rejection	NA	0
2	Nonet	25	673	511	4	0	0	417640	683	0	correct_rejection	NA	0
2	Nonet	26	674	512	5	0	0	418356	684	0	correct_rejection	NA	0
2	Nonet	27	675	513	6	0	0	419073	683	0	correct_rejection	NA	0
2	Nonet	28	676	514	4	0	0	419789	684	0	correct_rejection	NA	0
2	Nonet	29	677	515	5	0	0	420506	683	0	correct_rejection	NA	0
2	Nonet	30	678	516	0	1	1	421222	683	0	miss	NA	0
2	Nonet	31	679	517	6	0	0	421939	682	0	correct_rejection	NA	0
2	Nonet	32	680	518	4	0	0	422655	683	0	correct_rejection	NA	0
2	Nonet	33	681	519	5	0	0	423371	684	0	correct_rejection	NA	0
2	Nonet	34	682	520	6	0	0	424088	683	0	correct_rejection	NA	0
2	Nonet	35	683	521	4	0	0	424804	683	0	correct_rejection	NA	0
2	Nonet	36	684	522	5	0	0	425521	682	0	correct_rejection	NA	0
2	Nonet	37	685	523	6	0	0	426237	683	0	correct_rejection	NA	0
2	Nonet	38	686	524	4	0	0	426953	684	0	correct_rejection	NA	0
2	Nonet	39	687	525	5	0	0	427670	683	0	correct_rejection	NA	0
2	Nonet	40	688	526	6	0	0	428386	684	0	correct_rejection	NA	0
2	Nonet	41	689	527	6	0	0	429103	683	0	correct_rejection	NA	0
2	Nonet	42	690	528	5	0	0	429819	684	0	correct_rejection	NA	0
2	Nonet	43	691	529	4	0	0	430536	682	0	correct_rejection	NA	0
2	Nonet	44	692	530	6	0	0	431252	683	0	correct_rejection	NA	0
2	Nonet	45	693	531	5	0	0	431968	683	0	correct_rejection	NA	0
2	Nonet	46	694	532	4	0	0	432685	683	0	correct_rejection	NA	0
2	Nonet	47	695	533	6	0	0	433401	684	0	correct_rejection	NA	0
2	Nonet	48	696	534	5	0	0	434118	683	0	correct_rejection	NA	0
2	Nonet	49	697	535	0	1	1	434834	683	0	miss	NA	0
2	Nonet	50	698	536	4	0	0	435551	682	0	correct_rejection	NA	0
2	Nonet	51	699	537	6	0	0	436267	683	0	correct_rejection	NA	0
2	Nonet	52	700	538	5	0	0	436983	683	0	correct_rejection	NA	0
2	Nonet	53	701	539	4	0	0	437700	683	0	correct_rejection	NA	0
2	Nonet	54	702	540	6	0	0	438416	683	0	correct_rejection	NA	0
2	Nonet	55	703	541	0	1	1	439133	682	0	miss	NA	0
2	Nonet	56	704	542	5	0	0	439849	683	0	correct_rejection	NA	0
2	Nonet	57	705	543	4	0	0	440565	683	0	correct_rejection	NA	0
2	Nonet	58	706	544	0	1	2	441282	683	0	miss	NA	0
2	Nonet	59	707	545	6	0	0	441998	683	0	correct_rejection	NA	0
2	Nonet	60	708	546	5	0	0	442715	683	0	correct_rejection	NA	0
2	Nonet	61	709	547	4	0	0	443431	683	0	correct_rejection	NA	0
2	Nonet	62	710	548	4	0	0	444148	683	0	correct_rejection	NA	0
2	Nonet	63	711	549	5	0	0	444864	683	0	correct_rejection	NA	0
2	Nonet	64	712	550	6	0	0	445580	684	0	correct_rejection	NA	0
2	Nonet	65	713	551	4	0	0	446297	683	0	correct_rejection	NA	0
2	Nonet	66	714	552	5	0	0	447013	683	0	correct_rejection	NA	0
2	Nonet	67	715	553	6	0	0	447730	683	0	correct_rejection	NA	0
2	Nonet	68	716	554	4	0	0	448446	683	0	correct_rejection	NA	0
2	Nonet	69	717	555	5	0	0	449163	682	0	correct_rejection	NA	0
2	Nonet	70	718	556	6	0	0	449879	683	0	correct_rejection	NA	0
2	Nonet	71	719	557	7	0	0	450595	684	0	correct_rejection	NA	0
2	Nonet	72	720	558	8	0	0	451312	683	0	correct_rejection	NA	0
2	Nonet	73	721	559	9	0	0	452028	683	0	correct_rejection	NA	0
2	Nonet	74	722	560	0	1	2	452745	683	0	miss	NA	0
2	Nonet	75	723	561	7	0	0	453461	683	0	correct_rejection	NA	0
2	Nonet	76	724	562	8	0	0	454178	682	0	correct_rejection	NA	0
2	Nonet	77	725	563	0	1	1	454894	683	0	miss	NA	0
2	Nonet	78	726	564	9	0	0	455610	683	0	correct_rejection	NA	0
2	Nonet	79	727	565	7	0	0	456327	683	0	correct_rejection	NA	0
2	Nonet	80	728	566	8	0	0	457043	684	0	correct_rejection	NA	0
2	Nonet	81	729	567	9	0	0	457760	682	0	correct_rejection	NA	0
2	Nonet	82	730	568	6	0	0	458476	683	0	correct_rejection	NA	0
2	Nonet	83	731	569	5	0	0	459192	683	0	correct_rejection	NA	0
2	Nonet	84	732	570	4	0	0	459909	683	0	correct_rejection	NA	0
2	Nonet	85	733	571	6	0	0	460625	684	0	correct_rejection	NA	0
2	Nonet	86	734	572	5	0	0	461342	683	0	correct_rejection	NA	0
2	Nonet	87	735	573	4	0	0	462058	683	0	correct_rejection	NA	0
2	Nonet	88	736	574	0	1	2	462775	683	0	miss	NA	0
2	Nonet	89	737	575	6	0	0	463491	683	0	correct_rejection	NA	0
2	Nonet	90	738	576	5	0	0	464207	683	0	correct_rejection	NA	0
2	Nonet	91	739	577	4	0	0	464924	683	0	correct_rejection	NA	0
2	Nonet	92	740	578	7	0	0	465640	684	0	correct_rejection	NA	0
2	Nonet	93	741	579	8	0	0	466357	683	0	correct_rejection	NA	0
2	Nonet	94	742	580	9	0	0	467073	683	0	correct_rejection	NA	0
2	Nonet	95	743	581	7	0	0	467790	682	0	correct_rejection	NA	0
2	Nonet	96	744	582	8	0	0	468506	683	0	correct_rejection	NA	0
2	Nonet	97	745	583	9	0	0	469222	684	0	correct_rejection	NA	0
2	Nonet	98	746	584	7	0	0	469939	682	0	correct_rejection	NA	0
2	Nonet	99	747	585	0	1	1	470655	684	0	miss	NA	0
2	Nonet	100	748	586	8	0	0	471372	682	0	correct_rejection	NA	0
2	Nonet	101	749	587	9	0	0	472088	683	0	correct_rejection	NA	0
2	Nonet	102	750	588	4	0	0	472804	684	0	correct_rejection	NA	0
2	Nonet	103	751	589	0	1	1	473521	683	0	miss	NA	0
2	Nonet	104	752	590	5	0	0	474237	683	0	correct_rejection	NA	0
2	Nonet	105	753	591	6	0	0	474954	683	0	correct_rejection	NA	0
2	Nonet	106	754	592	0	1	2	475670	684	0	miss	NA	0
2	Nonet	107	755	593	4	0	0	476387	683	0	correct_rejection	NA	0
2	Nonet	108	756	594	5	0	0	477103	683	0	correct_rejection	NA	0
2	Nonet	109	757	595	6	0	0	477819	683	0	correct_rejection	NA	0
2	Nonet	110	758	596	4	0	0	478536	683	0	correct_rejection	NA	0
2	Nonet	111	759	597	5	0	0	479252	683	0	correct_rejection	NA	0
2	Nonet	112	760	598	6	0	0	479969	682	0	correct_rejection	NA	0
2	Nonet	113	761	599	9	0	0	480685	683	0	correct_rejection	NA	0
2	Nonet	114	762	600	8	0	0	481402	682	0	correct_rejection	NA	0
2	Nonet	115	763	601	7	0	0	482118	683	0	correct_rejection	NA	0
2	Nonet	116	764	602	9	0	0	482834	683	0	correct_rejection	NA	0
2	Nonet	117	765	603	0	1	1	483551	683	0	miss	NA	0
2	Nonet	118	766	604	8	0	0	484267	684	0	correct_rejection	NA	0
2	Nonet	119	767	605	7	0	0	484984	682	0	correct_rejection	NA	0
2	Nonet	120	768	606	9	0	0	485700	683	0	correct_rejection	NA	0
2	Nonet	121	769	607	8	0	0	486416	684	0	correct_rejection	NA	0
2	Nonet	122	770	608	0	1	1	487133	682	0	miss	NA	0
2	Nonet	123	771	609	7	0	0	487849	684	0	correct_rejection	NA	0
2	Nonet	124	772	610	9	0	0	488566	683	0	correct_rejection	NA	0
2	Nonet	125	773	611	8	0	0	489282	683	0	correct_rejection	NA	0
2	Nonet	126	774	612	7	0	0	489999	682	0	correct_rejection	NA	0
2	Nonet	127	775	613	0	1	2	490715	683	0	miss	NA	0
2	Nonet	128	776	614	9	0	0	491431	684	0	correct_rejection	NA	0
2	Nonet	129	777	615	8	0	0	492148	682	0	correct_rejection	NA	0
2	Nonet	130	778	616	0	1	1	492864	684	0	miss	NA	0
2	Nonet	131	779	617	7	0	0	493581	682	0	correct_rejection	NA	0
2	Nonet	132	780	618	9	0	0	494297	683	0	correct_rejection	NA	0
2	Nonet	133	781	619	8	0	0	495014	682	0	correct_rejection	NA	0
2	Nonet	134	782	620	7	0	0	495730	683	0	correct_rejection	NA	0
2	Nonet	135	783	621	7	0	0	496446	684	0	correct_rejection	NA	0
2	Nonet	136	784	622	8	0	0	497163	683	0	correct_rejection	NA	0
2	Nonet	137	785	623	9	0	0	497879	684	0	correct_rejection	NA	0
2	Nonet	138	786	624	7	0	0	498596	682	0	correct_rejection	NA	0
2	Nonet	139	787	625	8	0	0	499312	683	0	correct_rejection	NA	0
2	Nonet	140	788	626	9	0	0	500028	684	0	correct_rejection	NA	0
2	Nonet	141	789	627	7	0	0	500745	683	0	correct_rejection	NA	0
2	Nonet	142	790	628	8	0	0	501461	684	0	correct_rejection	NA	0
2	Nonet	143	791	629	9	0	0	502178	682	0	correct_rejection	NA	0
2	Nonet	144	792	630	0	1	3	502894	684	0	miss	NA	0
2	Nonet	145	793	631	7	0	0	503611	682	0	correct_rejection	NA	0
2	Nonet	146	794	632	8	0	0	504327	683	0	correct_rejection	NA	0
2	Nonet	147	795	633	9	0	0	505043	683	0	correct_rejection	NA	0
2	Nonet	148	796	634	7	0	0	505760	683	0	correct_rejection	NA	0
2	Nonet	149	797	635	8	0	0	506476	684	0	correct_rejection	NA	0
2	Nonet	150	798	636	9	0	0	507193	683	0	correct_rejection	NA	0
2	Nonet	151	799	637	7	0	0	507909	683	0	correct_rejection	NA	0
2	Nonet	152	800	638	8	0	0	508626	683	0	correct_rejection	NA	0
2	Nonet	153	801	639	9	0	0	509342	683	0	correct_rejection	NA	0
2	Nonet	154	802	640	9	0	0	510058	683	0	correct_rejection	NA	0
2	Nonet	155	803	641	8	0	0	510775	683	0	correct_rejection	NA	0
2	Nonet	156	804	642	7	0	0	511491	684	0	correct_rejection	NA	0
2	Nonet	157	805	643	9	0	0	512208	683	0	correct_rejection	NA	0
2	Nonet	158	806	644	8	0	0	512924	683	0	correct_rejection	NA	0
2	Nonet	159	807	645	7	0	0	513640	684	0	correct_rejection	NA	0
2	Nonet	160	808	646	9	0	0	514357	683	0	correct_rejection	NA	0
2	Nonet	161	809	647	8	0	0	515073	683	0	correct_rejection	NA	0
2	Nonet	162	810	648	7	0	0	515790	682	0	correct_rejection	NA	0
2	Correct	1	649	649	4	0	0	522787	684	0	correct_rejection	NA	6233
2	Correct	2	650	650	5	0	0	523504	682	0	correct_rejection	NA	0
2	Correct	3	651	651	6	0	0	524220	683	0	correct_rejection	NA	0
2	Correct	4	652	652	4	0	0	524937	682	0	correct_rejection	NA	0
2	Correct	5	653	653	5	0	0	525653	683	0	correct_rejection	NA	0
2	Correct	6	654	654	6	0	0	526369	684	0	correct_rejection	NA	0
2	Correct	7	655	655	4	0	0	527086	683	0	correct_rejection	NA	0
2	Correct	8	656	656	5	0	0	527802	684	0	correct_rejection	NA	0
2	Correct	9	657	657	6	0	0	528519	683	0	correct_rejection	NA	0
2	Correct	10	658	658	6	0	0	529235	684	0	correct_rejection	NA	0
2	Correct	11	659	659	5	0	0	529952	682	0	correct_rejection	NA	0
2	Correct	12	660	660	4	0	0	530668	683	0	correct_rejection	NA	0
2	Correct	13	661	661	6	0	0	531384	684	0	correct_rejection	NA	0
2	Correct	14	662	662	5	0	0	532101	683	0	correct_rejection	NA	0
2	Correct	15	663	663	4	0	0	532817	684	0	correct_rejection	NA	0
2	Correct	16	664	664	6	0	0	533534	682	0	correct_rejection	NA	0
2	Correct	17	665	665	5	0	0	534250	683	0	correct_rejection	NA	0
2	Correct	18	666	666	4	0	0	534967	682	0	correct_rejection	NA	0
2	Correct	19	667	667	9	0	0	535683	683	0	correct_rejection	NA	0
2	Correct	20	668	668	8	0	0	536399	683	0	correct_rejection	NA	0
2	Correct	21	669	669	7	0	0	537116	683	0	correct_rejection	NA	0
2	Correct	22	670	670	0	1	2	537832	684	0	miss	NA	0
2	Correct	23	671	671	9	0	0	538549	682	0	correct_rejection	NA	0
2	Correct	24	672	672	8	0	0	539265	683	0	correct_rejection	NA	0
2	Correct	25	673	673	7	0	0	539981	683	0	correct_rejection	NA	0
2	Correct	26	674	674	9	0	0	540698	683	0	correct_rejection	NA	0
2	Correct	27	675	675	8	0	0	541414	683	0	correct_rejection	NA	0
2	Correct	28	676	676	7	0	0	542131	683	0	correct_rejection	NA	0
2	Correct	29	677	677	7	0	0	542847	684	0	correct_rejection	NA	0
2	Correct	30	678	678	8	0	0	543564	682	0	correct_rejection	NA	0
2	Correct	31	679	679	9	0	0	544280	683	0	correct_rejection	NA	0
2	Correct	32	680	680	7	0	0	544996	683	0	correct_rejection	NA	0
2	Correct	33	681	681	8	0	0	545713	683	0	correct_rejection	NA	0
2	Correct	34	682	682	9	0	0	546429	683	0	correct_rejection	NA	0
2	Correct	35	683	683	0	1	2	547146	683	0	miss	NA	0
2	Correct	36	684	684	7	0	0	547862	683	0	correct_rejection	NA	0
2	Correct	37	685	685	8	0	0	548579	682	0	correct_rejection	NA	0
2	Correct	38	686	686	9	0	0	549295	683	0	correct_rejection	NA	0
2	Correct	39	687	687	0	1	4	550011	684	0	miss	NA	0
2	Correct	40	688	688	4	0	0	550728	683	0	correct_rejection	NA	0
2	Correct	41	689	689	5	0	0	551444	684	0	correct_rejection	NA	0
2	Correct	42	690	690	6	0	0	552161	683	0	correct_rejection	NA	0
2	Correct	43	691	691	4	0	0	552877	683	0	correct_rejection	NA	0
2	Correct	44	692	692	0	1	1	553593	684	0	miss	NA	0
2	Correct	45	693	693	5	0	0	554310	683	0	correct_rejection	NA	0
2	Correct	46	694	694	6	0	0	555026	684	0	correct_rejection	NA	0
2	Correct	47	695	695	4	0	0	555743	683	0	correct_rejection	NA	0
2	Correct	48	696	696	5	0	0	556459	683	0	correct_rejection	NA	0
2	Correct	49	697	697	6	0	0	557176	683	0	correct_rejection	NA	0
2	Correct	50	698	698	6	0	0	557892	683	0	correct_rejection	NA	0
2	Correct	51	699	699	5	0	0	558608	684	0	correct_rejection	NA	0
2	Correct	52	700	700	4	0	0	559325	683	0	correct_rejection	NA	0
2	Correct	53	701	701	6	0	0	560041	683	0	correct_rejection	NA	0
2	Correct	54	702	702	5	0	0	560758	683	0	correct_rejection	NA	0
2	Correct	55	703	703	4	0	0	561474	683	0	correct_rejection	NA	0
2	Correct	56	704	704	6	0	0	562191	683	0	correct_rejection	NA	0
2	Correct	57	705	705	5	0	0	562907	683	0	correct_rejection	NA	0
2	Correct	58	706	706	0	1	1	563623	684	0	miss	NA	0
2	Correct	59	707	707	4	0	0	564340	683	0	correct_rejection	NA	0
2	Correct	60	708	708	9	0	0	565056	684	0	correct_rejection	NA	0
2	Correct	61	709	709	8	0	0	565773	682	0	correct_rejection	NA	0
2	Correct	62	710	710	7	0	0	566489	683	0	correct_rejection	NA	0
2	Correct	63	711	711	9	0	0	567205	684	0	correct_rejection	NA	0
2	Correct	64	712	712	0	1	1	567922	683	0	miss	NA	0
2	Correct	65	713	713	8	0	0	568638	684	0	correct_rejection	NA	0
2	Correct	66	714	714	7	0	0	569355	683	0	correct_rejection	NA	0
2	Correct	67	715	715	9	0	0	570071	684	0	correct_rejection	NA	0
2	Correct	68	716	716	8	0	0	570788	683	0	correct_rejection	NA	0
2	Correct	69	717	717	7	0	0	571504	683	0	correct_rejection	NA	0
2	Correct	70	718	718	7	0	0	572220	683	0	correct_rejection	NA	0
2	Correct	71	719	719	8	0	0	572937	683	0	correct_rejection	NA	0
2	Correct	72	720	720	9	0	0	573653	684	0	correct_rejection	NA	0
2	Correct	73	721	721	7	0	0	574370	683	0	correct_rejection	NA	0
2	Correct	74	722	722	8	0	0	575086	683	0	correct_rejection	NA	0
2	Correct	75	723	723	9	0	0	575803	683	0	correct_rejection	NA	0
2	Correct	76	724	724	7	0	0	576519	683	0	correct_rejection	NA	0
2	Correct	77	725	725	0	1	1	577235	683	0	miss	NA	0
2	Correct	78	726	726	8	0	0	577952	683	0	correct_rejection	NA	0
2	Correct	79	727	727	9	0	0	578668	683	0	correct_rejection	NA	0
2	Correct	80	728	728	4	0	0	579385	682	0	correct_rejection	NA	0
2	Correct	81	729	729	5	0	0	580101	683	0	correct_rejection	NA	0
2	Correct	82	730	730	6	0	0	580818	683	0	correct_rejection	NA	0
2	Correct	83	731	731	4	0	0	581534	683	0	correct_rejection	NA	0
2	Correct	84	732	732	5	0	0	582250	683	0	correct_rejection	NA	0
2	Correct	85	733	733	6	0	0	582967	682	0	correct_rejection	NA	0
2	Correct	86	734	734	4	0	0	583683	683	0	correct_rejection	NA	0
2	Correct	87	735	735	5	0	0	584400	682	0	correct_rejection	NA	0
2	Correct	88	736	736	6	0	0	585116	683	0	correct_rejection	NA	0
2	Correct	89	737	737	6	0	0	585832	683	0	correct_rejection	NA	0
2	Correct	90	738	738	5	0	0	586549	683	0	correct_rejection	NA	0
2	Correct	91	739	739	4	0	0	587265	684	0	correct_rejection	NA	0
2	Correct	92	740	740	6	0	0	587982	682	0	correct_rejection	NA	0
2	Correct	93	741	741	0	1	1	588698	683	0	miss	NA	0
2	Correct	94	742	742	5	0	0	589415	682	0	correct_rejection	NA	0
2	Correct	95	743	743	4	0	0	590131	683	0	correct_rejection	NA	0
2	Correct	96	744	744	6	0	0	590847	684	0	correct_rejection	NA	0
2	Correct	97	745	745	5	0	0	591564	683	0	correct_rejection	NA	0
2	Correct	98	746	746	4	0	0	592280	683	0	correct_rejection	NA	0
2	Correct	99	747	747	0	1	3	592997	683	0	miss	NA	0
2	Correct	100	748	748	9	0	0	593713	683	0	correct_rejection	NA	0
2	Correct	101	749	749	8	0	0	594430	682	0	correct_rejection	NA	0
2	Correct	102	750	750	7	0	0	595146	683	0	correct_rejection	NA	0
2	Correct	103	751	751	9	0	0	595862	683	0	correct_rejection	NA	0
2	Correct	104	752	752	8	0	0	596579	683	0	correct_rejection	NA	0
2	Correct	105	753	753	7	0	0	597295	684	0	correct_rejection	NA	0
2	Correct	106	754	754	9	0	0	598012	683	0	correct_rejection	NA	0
2	Correct	107	755	755	8	0	0	598728	683	0	correct_rejection	NA	0
2	Correct	108	756	756	7	0	0	599444	683	0	correct_rejection	NA	0
2	Correct	109	757	757	0	1	3	600161	683	0	miss	NA	0
2	Correct	110	758	758	7	0	0	600877	684	0	correct_rejection	NA	0
2	Correct	111	759	759	8	0	0	601594	683	0	correct_rejection	NA	0
2	Correct	112	760	760	9	0	0	602310	683	0	correct_rejection	NA	0
2	Correct	113	761	761	0	1	2	603027	682	0	miss	NA	0
2	Correct	114	762	762	7	0	0	603743	683	0	correct_rejection	NA	0
2	Correct	115	763	763	8	0	0	604459	683	0	correct_rejection	NA	0
2	Correct	116	764	764	9	0	0	605176	683	0	correct_rejection	NA	0
2	Correct	117	765	765	7	0	0	605892	684	0	correct_rejection	NA	0
2	Correct	118	766	766	8	0	0	606609	683	0	correct_rejection	NA	0
2	Correct	119	767	767	9	0	0	607325	683	0	correct_rejection	NA	0
2	Correct	120	768	768	4	0	0	608042	683	0	correct_rejection	NA	0
2	Correct	121	769	769	0	1	1	608758	683	0	miss	NA	0
2	Correct	122	770	770	5	0	0	609474	683	0	correct_rejection	NA	0
2	Correct	123	771	771	6	0	0	610191	683	0	correct_rejection	NA	0
2	Correct	124	772	772	4	0	0	610907	683	0	correct_rejection	NA	0
2	Correct	125	773	773	5	0	0	611624	682	0	correct_rejection	NA	0
2	Correct	126	774	774	0	1	1	612340	683	0	miss	NA	0
2	Correct	127	775	775	6	0	0	613056	684	0	correct_rejection	NA	0
2	Correct	128	776	776	4	0	0	613773	683	0	correct_rejection	NA	0
2	Correct	129	777	777	5	0	0	614489	683	0	correct_rejection	NA	0
2	Correct	130	778	778	6	0	0	615206	682	0	correct_rejection	NA	0
2	Correct	131	779	779	6	0	0	615922	683	0	correct_rejection	NA	0
2	Correct	132	780	780	5	0	0	616639	683	0	correct_rejection	NA	0
2	Correct	133	781	781	0	1	1	617355	683	0	miss	NA	0
2	Correct	134	782	782	4	0	0	618071	684	0	correct_rejection	NA	0
2	Correct	135	783	783	6	0	0	618788	682	0	correct_rejection	NA	0
2	Correct	136	784	784	0	1	1	619504	683	0	miss	NA	0
2	Correct	137	785	785	5	0	0	620221	683	0	correct_rejection	NA	0
2	Correct	138	786	786	4	0	0	620937	683	0	correct_rejection	NA	0
2	Correct	139	787	787	6	0	0	621654	683	0	correct_rejection	NA	0
2	Correct	140	788	788	5	0	0	622370	683	0	correct_rejection	NA	0
2	Correct	141	789	789	4	0	0	623086	683	0	correct_rejection	NA	0
2	Correct	142	790	790	9	0	0	623803	683	0	correct_rejection	NA	0
2	Correct	143	791	791	8	0	0	624519	684	0	correct_rejection	NA	0
2	Correct	144	792	792	0	1	1	625236	682	0	miss	NA	0
2	Correct	145	793	793	7	0	0	625952	683	0	correct_rejection	NA	0
2	Correct	146	794	794	9	0	0	626668	684	0	correct_rejection	NA	0
2	Correct	147	795	795	8	0	0	627385	683	0	correct_rejection	NA	0
2	Correct	148	796	796	7	0	0	628101	684	0	correct_rejection	NA	0
2	Correct	149	797	797	9	0	0	628818	683	0	correct_rejection	NA	0
2	Correct	150	798	798	8	0	0	629534	683	0	correct_rejection	NA	0
2	Correct	151	799	799	7	0	0	630251	682	0	correct_rejection	NA	0
2	Correct	152	800	800	7	0	0	630967	683	0	correct_rejection	NA	0
2	Correct	153	801	801	8	0	0	631683	684	0	correct_rejection	NA	0
2	Correct	154	802	802	9	0	0	632400	683	0	correct_rejection	NA	0
2	Correct	155	803	803	7	0	0	633116	684	0	correct_rejection	NA	0
2	Correct	156	804	804	8	0	0	633833	683	0	correct_rejection	NA	0
2	Correct	157	805	805	0	1	1	634549	683	0	miss	NA	0
2	Correct	158	806	806	9	0	0	635266	683	0	correct_rejection	NA	0
2	Correct	159	807	807	7	0	0	635982	683	0	correct_rejection	NA	0
2	Correct	160	808	808	8	0	0	636698	684	0	correct_rejection	NA	0
2	Correct	161	809	809	0	1	1	637415	683	0	miss	NA	0
2	Correct	162	810	810	9	0	0	638131	684	0	correct_rejection	NA	0
trigger nr 621 at 638098
trigger nr 632 at 691363
2	Single	1	163	811	8	0	0	699410	684	0	correct_rejection	NA	7969
2	Single	2	164	812	6	0	0	700127	683	0	correct_rejection	NA	0
2	Single	3	165	813	7	0	0	700843	683	0	correct_rejection	NA	0